timestamp_ns,accel_x,accel_y,accel_z,gyro_x,gyro_y,gyro_z
62510125,0.00262451,0.00013733,-1.00254822,0.549316,0.000000,-0.061035
69160583,0.00347900,-0.00018311,-1.00430298,0.244141,0.000000,-0.122070
72781125,0.00411987,-0.00048828,-1.00593567,0.244141,0.000000,-0.061035
77183291,0.00480652,-0.00021362,-1.00534058,0.549316,0.122070,-0.122070
82168333,0.00546265,0.00038147,-1.00502014,0.122070,0.122070,-0.122070
87615416,0.00563049,0.00085449,-1.00384521,0.305176,0.000000,-0.122070
93023583,0.00537109,0.00117493,-1.00442505,0.366211,0.122070,-0.061035
97382041,0.00512695,0.00160217,-1.00765991,0.427246,0.000000,-0.183105
103203750,0.00447083,0.00244141,-1.00759888,0.244141,0.061035,0.000000
107281041,0.00314331,0.00367737,-1.00453186,0.244141,0.122070,0.061035
117407916,0.00177002,0.00495911,-1.00471497,0.244141,0.061035,-0.061035
117420750,0.00071716,0.00587463,-1.00704956,0.305176,0.061035,0.000000
124414583,-0.00006104,0.00611877,-1.00750732,0.366211,0.000000,-0.061035
128352958,-0.00059509,0.00595093,-1.00669861,0.183105,0.061035,-0.061035
132433500,-0.00108337,0.00581360,-1.00558472,0.122070,0.061035,0.061035
137503583,-0.00143433,0.00569153,-1.00552368,0.366211,0.061035,-0.122070
143003583,-0.00141907,0.00518799,-1.00715637,0.305176,-0.061035,-0.061035
147504625,-0.00085449,0.00425720,-1.00720215,0.366211,0.122070,0.000000
152267458,0.00033569,0.00323486,-1.00517273,0.366211,0.122070,-0.061035
159448541,0.00183105,0.00242615,-1.00482178,0.244141,0.061035,0.122070
162220583,0.00297546,0.00164795,-1.00637817,0.366211,0.061035,0.000000
167175791,0.00361633,0.00030518,-1.00694275,0.366211,0.061035,-0.122070
172187000,0.00410461,-0.00103760,-1.00621033,0.366211,0.061035,-0.061035
177180750,0.00459290,-0.00125122,-1.00549316,0.305176,0.122070,-0.122070
182190875,0.00502014,-0.00036621,-1.00538635,0.244141,0.061035,0.000000
187189541,0.00517273,0.00086975,-1.00605774,0.366211,-0.061035,-0.122070
192180750,0.00511169,0.00189209,-1.00656128,0.305176,0.061035,-0.122070
197239041,0.00514221,0.00262451,-1.00616455,0.427246,0.183105,-0.122070
202207291,0.00489807,0.00346375,-1.00624084,0.427246,0.122070,-0.122070
207195125,0.00395203,0.00480652,-1.00703430,0.305176,0.061035,-0.244141
212221791,0.00251770,0.00642395,-1.00688171,0.366211,-0.122070,-0.183105
217210291,0.00111389,0.00729370,-1.00567627,0.305176,0.061035,-0.122070
222253416,0.00006104,0.00698853,-1.00492859,0.244141,0.061035,0.000000
227218708,-0.00056458,0.00619507,-1.00546265,0.244141,0.061035,0.000000
232248375,-0.00105286,0.00567627,-1.00633240,0.244141,0.061035,0.000000
237214208,-0.00144958,0.00515747,-1.00613403,0.061035,0.061035,0.000000
242255625,-0.00151062,0.00404358,-1.00521851,0.244141,0.000000,-0.061035
247210833,-0.00099182,0.00311279,-1.00495911,0.305176,0.183105,0.061035
252227291,0.00013733,0.00299072,-1.00573730,0.305176,0.000000,-0.122070
257220666,0.00155640,0.00300598,-1.00642395,0.305176,0.122070,-0.061035
262219041,0.00251770,0.00244141,-1.00614929,0.305176,0.000000,0.000000
267265833,0.00300598,0.00151062,-1.00596619,0.244141,0.183105,-0.061035
272258375,0.00357056,0.00122070,-1.00654602,0.061035,0.122070,-0.061035
277214166,0.00421143,0.00163269,-1.00674438,0.183105,0.061035,-0.122070
282223583,0.00462341,0.00199890,-1.00613403,0.183105,0.000000,-0.183105
287235916,0.00483704,0.00216675,-1.00593567,0.244141,0.000000,-0.122070
292251833,0.00486755,0.00233459,-1.00682068,0.366211,0.061035,0.000000
297230833,0.00465393,0.00230408,-1.00727844,0.183105,-0.061035,-0.061035
302225333,0.00422668,0.00218201,-1.00621033,0.305176,-0.061035,0.000000
307228125,0.00379944,0.00244141,-1.00505066,0.366211,0.061035,-0.061035
312247833,0.00329590,0.00320435,-1.00546265,0.244141,-0.061035,-0.122070
317235375,0.00248718,0.00384521,-1.00657654,0.305176,0.000000,-0.122070
322240916,0.00166321,0.00407410,-1.00692749,0.244141,0.061035,0.000000
327234541,0.00119019,0.00421143,-1.00643921,0.427246,0.000000,0.061035
332237875,0.00068665,0.00442505,-1.00523376,0.305176,0.061035,-0.061035
337230791,0.00000000,0.00491333,-1.00418091,0.366211,0.183105,-0.061035
342215958,-0.00056458,0.00538635,-1.00459290,0.366211,0.122070,0.000000
347248416,-0.00090027,0.00489807,-1.00578308,0.183105,0.000000,0.000000
352269875,-0.00100708,0.00369263,-1.00688171,0.305176,0.061035,-0.061035
357251916,-0.00085449,0.00251770,-1.00740051,0.366211,0.061035,-0.183105
362236416,-0.00054932,0.00129700,-1.00642395,0.366211,0.061035,-0.061035
367239916,-0.00016785,0.00025940,-1.00494385,0.549316,0.061035,0.000000
372301458,0.00047302,0.00015259,-1.00479126,0.488281,0.122070,0.061035
377297583,0.00166321,0.00070190,-1.00593567,0.549316,0.122070,0.061035
382288625,0.00314331,0.00114441,-1.00654602,0.427246,0.061035,-0.061035
387261500,0.00431824,0.00172424,-1.00582886,0.488281,-0.061035,-0.061035
392243708,0.00479126,0.00315857,-1.00471497,0.305176,0.000000,-0.061035
397254500,0.00469971,0.00534058,-1.00498962,0.549316,0.061035,-0.122070
402281625,0.00474548,0.00724792,-1.00683594,0.610352,-0.061035,-0.061035
407279458,0.00491333,0.00823975,-1.00723267,0.366211,0.061035,-0.061035
412271958,0.00454712,0.00828552,-1.00607300,0.427246,0.061035,-0.183105
417270375,0.00370789,0.00747681,-1.00637817,0.244141,0.122070,-0.061035
422312041,0.00306702,0.00605774,-1.00743103,0.427246,0.183105,-0.061035
427356375,0.00245667,0.00454712,-1.00648499,0.244141,-0.061035,-0.122070
432268416,0.00129700,0.00341797,-1.00474548,0.366211,0.183105,0.000000
437260666,-0.00019836,0.00253296,-1.00462341,0.427246,0.183105,0.000000
442259208,-0.00115967,0.00180054,-1.00573730,0.488281,0.061035,0.122070
447290583,-0.00157166,0.00102234,-1.00663757,0.305176,0.061035,0.000000
452348791,-0.00181580,0.00000000,-1.00659180,0.305176,0.000000,0.061035
457294833,-0.00157166,-0.00076294,-1.00621033,0.427246,0.061035,-0.122070
462295875,-0.00068665,-0.00067139,-1.00617981,0.488281,0.000000,0.000000
467309166,0.00036621,-0.00009155,-1.00558472,0.366211,0.000000,-0.122070
472301666,0.00114441,0.00006104,-1.00471497,0.366211,0.061035,-0.061035
477267083,0.00160217,-0.00001526,-1.00578308,0.305176,0.122070,-0.122070
482281333,0.00216675,0.00007629,-1.00750732,0.244141,0.061035,0.000000
487306916,0.00292969,0.00082397,-1.00740051,0.549316,-0.061035,-0.061035
492292458,0.00347900,0.00218201,-1.00599670,0.488281,0.061035,-0.061035
497280791,0.00384521,0.00358582,-1.00468445,0.305176,-0.061035,-0.122070
502279000,0.00437927,0.00465393,-1.00474548,0.305176,0.000000,0.000000
507321791,0.00463867,0.00558472,-1.00639343,0.488281,0.000000,0.000000
512287875,0.00408936,0.00654602,-1.00730896,0.427246,0.061035,0.000000
517270291,0.00338745,0.00724792,-1.00593567,0.427246,0.122070,0.061035
522293583,0.00378418,0.00759888,-1.00456238,0.549316,0.122070,-0.183105
527311208,0.00460815,0.00791931,-1.00479126,0.488281,0.183105,0.061035
532381208,0.00415039,0.00788879,-1.00497437,0.549316,0.000000,-0.122070
537337166,0.00271606,0.00697327,-1.00448608,0.427246,0.061035,0.000000
542314416,0.00134277,0.00508118,-1.00466919,0.305176,0.061035,-0.061035
547321583,0.00033569,0.00248718,-1.00669861,0.427246,-0.061035,-0.122070
552324333,-0.00028992,0.00012207,-1.00961304,0.305176,0.000000,-0.122070
557315166,-0.00071716,-0.00125122,-1.01014709,0.366211,0.000000,0.000000
562313250,-0.00077820,-0.00213623,-1.00769043,0.305176,0.000000,-0.061035
567298500,-0.00048828,-0.00296021,-1.00582886,0.244141,0.061035,0.061035
572316875,-0.00044250,-0.00341797,-1.00636292,0.427246,0.000000,-0.061035
577297916,-0.00015259,-0.00268555,-1.00700378,0.305176,0.122070,-0.122070
582287833,0.00125122,-0.00085449,-1.00575256,0.427246,0.061035,-0.061035
587354500,0.00320435,0.00126648,-1.00382996,0.488281,0.061035,-0.061035
592314375,0.00433350,0.00349426,-1.00350952,0.122070,0.122070,-0.183105
597308583,0.00439453,0.00543213,-1.00477600,0.427246,0.122070,-0.122070
602300166,0.00436401,0.00659180,-1.00553894,0.366211,0.061035,0.000000
607333291,0.00463867,0.00712585,-1.00523376,0.183105,0.000000,0.000000
612299458,0.00468445,0.00732422,-1.00547791,0.244141,0.061035,-0.244141
617300541,0.00415039,0.00700378,-1.00656128,0.305176,0.061035,-0.061035
622303083,0.00364685,0.00659180,-1.00677490,0.366211,0.061035,-0.122070
627298875,0.00363159,0.00622559,-1.00602722,0.061035,0.061035,-0.122070
632308083,0.00347900,0.00524902,-1.00579834,0.305176,0.122070,0.061035
637356541,0.00239563,0.00361633,-1.00651550,0.183105,0.061035,0.061035
642308250,0.00079346,0.00218201,-1.00701904,0.305176,0.122070,-0.061035
647305166,-0.00003052,0.00138855,-1.00637817,0.305176,0.122070,0.000000
652343750,0.00010681,0.00093079,-1.00535583,0.366211,0.000000,-0.183105
657261958,0.00039673,0.00032043,-1.00555420,0.366211,0.000000,-0.122070
662310708,0.00018311,-0.00030518,-1.00711060,0.366211,0.000000,-0.122070
667316208,-0.00010681,-0.00067139,-1.00801086,0.183105,0.061035,-0.061035
672338333,0.00004578,-0.00086975,-1.00704956,0.366211,0.061035,-0.183105
677308625,0.00044250,-0.00096130,-1.00532532,0.305176,0.061035,-0.122070
682303208,0.00076294,-0.00077820,-1.00466919,0.183105,0.061035,-0.061035
687328083,0.00112915,-0.00013733,-1.00492859,0.183105,0.061035,-0.122070
692320750,0.00167847,0.00083923,-1.00473022,0.122070,0.000000,-0.183105
697321000,0.00227356,0.00205994,-1.00463867,0.305176,0.122070,-0.061035
702442750,0.00263977,0.00340271,-1.00601196,0.183105,-0.061035,-0.122070
707361125,0.00317383,0.00494385,-1.00790405,0.366211,0.061035,-0.061035
712326958,0.00404358,0.00634766,-1.00784302,0.183105,0.000000,-0.183105
717331125,0.00477600,0.00721741,-1.00611877,0.244141,0.061035,-0.061035
722359208,0.00509644,0.00764465,-1.00538635,0.183105,0.061035,-0.061035
727330916,0.00517273,0.00779724,-1.00639343,0.305176,0.061035,-0.122070
732340791,0.00471497,0.00727844,-1.00675964,0.061035,0.000000,-0.183105
737336458,0.00349426,0.00582886,-1.00555420,0.183105,0.000000,-0.061035
742323791,0.00224304,0.00381470,-1.00486755,0.122070,0.000000,-0.122070
747334708,0.00172424,0.00178528,-1.00564575,0.305176,0.000000,-0.122070
752340291,0.00146484,0.00016785,-1.00665283,0.244141,0.122070,-0.061035
757354875,0.00061035,-0.00071716,-1.00671387,0.427246,0.061035,-0.061035
762337708,-0.00080872,-0.00070190,-1.00578308,0.427246,-0.061035,0.000000
767353583,-0.00193787,-0.00044250,-1.00505066,0.488281,0.061035,-0.061035
772342625,-0.00187683,-0.00036621,-1.00540161,0.427246,0.000000,0.000000
777345666,-0.00070190,0.00012207,-1.00584412,0.244141,0.183105,-0.122070
782349750,0.00064087,0.00131226,-1.00587463,0.366211,0.122070,-0.061035
787392750,0.00144958,0.00259399,-1.00654602,0.305176,0.061035,0.000000
792367125,0.00181580,0.00340271,-1.00762939,0.549316,0.061035,-0.183105
797337500,0.00238037,0.00375366,-1.00753784,0.366211,0.000000,-0.183105
802371041,0.00302124,0.00402832,-1.00619507,0.366211,0.000000,-0.061035
807332625,0.00300598,0.00430298,-1.00505066,0.183105,0.000000,-0.122070
812344708,0.00273132,0.00444031,-1.00505066,0.305176,0.000000,0.000000
817360750,0.00305176,0.00450134,-1.00570679,0.305176,0.122070,-0.061035
822440916,0.00386047,0.00444031,-1.00573730,0.122070,0.122070,0.122070
827356083,0.00439453,0.00396729,-1.00549316,0.305176,0.122070,0.000000
832351291,0.00425720,0.00326538,-1.00637817,0.427246,0.122070,-0.061035
837368958,0.00367737,0.00299072,-1.00743103,0.122070,-0.122070,-0.183105
842346125,0.00311279,0.00320435,-1.00714111,0.244141,0.061035,0.000000
847348125,0.00248718,0.00344849,-1.00630188,0.305176,0.000000,-0.122070
852394916,0.00169373,0.00354004,-1.00608826,0.244141,0.061035,0.000000
857465500,0.00106812,0.00331116,-1.00624084,0.305176,0.061035,-0.061035
862383500,0.00085449,0.00259399,-1.00607300,0.183105,0.183105,0.122070
867365250,0.00056458,0.00196838,-1.00593567,0.244141,0.000000,-0.183105
872359583,0.00012207,0.00175476,-1.00540161,0.427246,-0.061035,-0.122070
877347166,-0.00015259,0.00172424,-1.00567627,0.183105,0.061035,-0.122070
882346041,-0.00027466,0.00172424,-1.00714111,0.244141,0.183105,-0.122070
887474000,0.00019836,0.00161743,-1.00648499,0.427246,0.000000,-0.061035
892374500,0.00108337,0.00177002,-1.00550842,0.305176,0.000000,-0.061035
897360916,0.00158691,0.00260925,-1.00608826,0.183105,0.122070,-0.122070
902370041,0.00193787,0.00378418,-1.00651550,0.305176,0.122070,-0.122070
907355916,0.00225830,0.00468445,-1.00672913,0.244141,0.000000,-0.061035
912395125,0.00222778,0.00512695,-1.00613403,0.305176,0.122070,-0.183105
917383750,0.00210571,0.00556946,-1.00479126,0.366211,0.000000,-0.122070
922383500,0.00263977,0.00613403,-1.00480652,0.244141,0.000000,-0.122070
927366625,0.00386047,0.00642395,-1.00578308,0.244141,0.061035,-0.122070
932377708,0.00462341,0.00593567,-1.00566101,0.305176,0.061035,-0.122070
937366666,0.00407410,0.00460815,-1.00498962,0.427246,0.061035,0.061035
942396333,0.00294495,0.00312805,-1.00498962,0.244141,0.061035,0.000000
947378333,0.00238037,0.00195312,-1.00541687,0.244141,0.061035,0.000000
952447041,0.00225830,0.00086975,-1.00599670,0.244141,0.061035,-0.183105
957420500,0.00221252,-0.00047302,-1.00660706,0.305176,0.061035,-0.061035
962374833,0.00218201,-0.00157166,-1.00627136,0.366211,0.061035,0.061035
967392541,0.00190735,-0.00154114,-1.00512695,0.427246,0.061035,0.000000
972408166,0.00152588,-0.00051880,-1.00465393,0.305176,0.122070,-0.122070
977406000,0.00138855,0.00070190,-1.00512695,0.427246,0.061035,-0.122070
982342083,0.00141907,0.00184631,-1.00572205,0.305176,0.061035,-0.061035
987415666,0.00146484,0.00308228,-1.00642395,0.305176,-0.061035,-0.061035
992408541,0.00151062,0.00440979,-1.00671387,0.427246,0.061035,-0.183105
997442000,0.00157166,0.00564575,-1.00625610,0.366211,0.061035,-0.122070
1002419583,0.00137329,0.00627136,-1.00631714,0.366211,0.061035,0.122070
1007406625,0.00088501,0.00610352,-1.00674438,0.183105,0.061035,0.000000
1012380208,0.00061035,0.00556946,-1.00650024,0.244141,0.122070,0.061035
1017393416,0.00102234,0.00498962,-1.00599670,0.488281,0.122070,0.000000
1022433250,0.00175476,0.00433350,-1.00546265,0.183105,0.061035,-0.122070
1027373791,0.00238037,0.00387573,-1.00500488,0.183105,-0.061035,-0.183105
1032404291,0.00317383,0.00373840,-1.00520325,0.366211,0.122070,0.000000
1037372583,0.00390625,0.00349426,-1.00543213,0.244141,0.122070,-0.061035
1042386500,0.00413513,0.00296021,-1.00514221,0.366211,-0.122070,-0.122070
1047396583,0.00422668,0.00228882,-1.00534058,0.305176,0.061035,-0.122070
1052407375,0.00469971,0.00158691,-1.00585938,0.366211,0.000000,0.000000
1057419541,0.00515747,0.00086975,-1.00581360,0.488281,0.183105,-0.061035
1062432875,0.00495911,0.00009155,-1.00570679,0.549316,0.183105,-0.061035
1067408250,0.00418091,-0.00042725,-1.00617981,0.366211,0.000000,0.000000
1072416125,0.00306702,-0.00036621,-1.00665283,0.427246,0.061035,-0.061035
1077388958,0.00180054,0.00042725,-1.00625610,0.305176,0.122070,-0.061035
1082378333,0.00086975,0.00148010,-1.00537109,0.427246,0.183105,0.000000
1087444333,0.00027466,0.00227356,-1.00514221,0.427246,0.061035,-0.061035
1092399625,-0.00021362,0.00320435,-1.00564575,0.305176,0.000000,-0.061035
1097394166,-0.00028992,0.00459290,-1.00556946,0.427246,0.061035,0.000000
1102457583,0.00028992,0.00590515,-1.00451660,0.244141,0.000000,0.000000
1107409250,0.00097656,0.00633240,-1.00422668,0.305176,0.000000,-0.183105
1112432666,0.00146484,0.00617981,-1.00526428,0.183105,-0.061035,-0.122070
1117415875,0.00195312,0.00617981,-1.00610352,0.244141,0.061035,-0.183105
1122459583,0.00234985,0.00613403,-1.00633240,0.366211,0.122070,0.000000
1127424125,0.00227356,0.00561523,-1.00637817,0.183105,0.061035,-0.061035
1132427750,0.00183105,0.00451660,-1.00617981,0.244141,0.000000,-0.061035
1137416750,0.00155640,0.00314331,-1.00616455,0.366211,0.061035,-0.122070
1142445416,0.00172424,0.00192261,-1.00656128,0.366211,0.061035,-0.122070
1147413791,0.00213623,0.00112915,-1.00688171,0.366211,0.000000,-0.244141
1152519041,0.00253296,0.00056458,-1.00692749,0.366211,0.122070,-0.122070
1157437083,0.00292969,0.00009155,-1.00666809,0.427246,0.061035,-0.061035
1162423625,0.00299072,0.00010681,-1.00576782,0.183105,-0.061035,-0.183105
1167415041,0.00236511,0.00086975,-1.00469971,0.244141,0.244141,-0.183105
1172447750,0.00180054,0.00180054,-1.00474548,0.366211,0.122070,-0.122070
1177419916,0.00170898,0.00230408,-1.00584412,0.305176,0.000000,-0.061035
1182383875,0.00144958,0.00236511,-1.00651550,0.305176,0.122070,0.000000
1187502250,0.00091553,0.00279236,-1.00610352,0.305176,0.061035,-0.122070
1192434500,0.00061035,0.00367737,-1.00569153,0.244141,0.061035,-0.061035
1197427125,0.00080872,0.00433350,-1.00631714,0.183105,0.061035,-0.122070
1202442416,0.00106812,0.00456238,-1.00709534,0.244141,-0.061035,-0.061035
1207433000,0.00106812,0.00468445,-1.00660706,0.305176,0.061035,-0.183105
1212458000,0.00094604,0.00466919,-1.00561523,0.305176,0.061035,-0.061035
1217452375,0.00103760,0.00434875,-1.00585938,0.244141,0.000000,0.122070
1222531000,0.00167847,0.00415039,-1.00704956,0.305176,0.000000,-0.122070
1227453708,0.00262451,0.00428772,-1.00726318,0.305176,-0.061035,-0.122070
1232466958,0.00332642,0.00424194,-1.00592041,0.183105,0.061035,-0.061035
1237493083,0.00364685,0.00378418,-1.00483704,0.244141,0.061035,0.061035
1242452125,0.00399780,0.00349426,-1.00543213,0.244141,0.061035,-0.061035
1247474166,0.00410461,0.00334167,-1.00669861,0.305176,0.122070,-0.061035
1252534375,0.00369263,0.00267029,-1.00698853,0.061035,-0.061035,-0.061035
1257556625,0.00317383,0.00166321,-1.00637817,0.244141,0.000000,-0.183105
1262462750,0.00289917,0.00109863,-1.00607300,0.427246,0.061035,-0.122070
1267460541,0.00282288,0.00129700,-1.00625610,0.427246,0.061035,-0.061035
1272470708,0.00254822,0.00148010,-1.00614929,0.427246,0.122070,0.000000
1277448250,0.00186157,0.00123596,-1.00544739,0.366211,0.061035,-0.122070
1282451750,0.00148010,0.00119019,-1.00511169,0.305176,0.061035,0.000000
1287479541,0.00148010,0.00195312,-1.00587463,0.366211,0.061035,0.000000
1292463000,0.00141907,0.00303650,-1.00672913,0.305176,0.122070,0.000000
1297460250,0.00135803,0.00363159,-1.00653076,0.183105,0.000000,-0.122070
1302512416,0.00140381,0.00402832,-1.00596619,0.427246,0.061035,-0.061035
1307491375,0.00132751,0.00459290,-1.00570679,0.366211,0.000000,-0.061035
1312483333,0.00114441,0.00503540,-1.00546265,0.305176,-0.061035,0.000000
1317466000,0.00125122,0.00521851,-1.00531006,0.549316,0.000000,-0.122070
1322487625,0.00175476,0.00502014,-1.00553894,0.244141,0.061035,-0.183105
1327450666,0.00222778,0.00434875,-1.00604248,0.305176,0.122070,-0.122070
1332479875,0.00210571,0.00331116,-1.00683594,0.244141,-0.061035,-0.122070
1337470125,0.00169373,0.00215149,-1.00726318,0.244141,0.061035,-0.061035
1342452416,0.00192261,0.00141907,-1.00656128,0.366211,0.061035,0.000000
1347465791,0.00282288,0.00172424,-1.00587463,0.244141,0.122070,-0.122070
1352661291,0.00334167,0.00271606,-1.00646973,0.305176,-0.061035,0.000000
1357872333,0.00326538,0.00309753,-1.00737000,0.366211,-0.061035,-0.122070
1362533166,0.00332642,0.00241089,-1.00695801,0.183105,0.000000,0.000000
1367468458,0.00369263,0.00196838,-1.00573730,0.183105,0.000000,0.000000
1372467625,0.00390625,0.00256348,-1.00559998,0.488281,0.061035,-0.183105
1377446125,0.00363159,0.00344849,-1.00624084,0.549316,0.061035,-0.061035
1382471625,0.00299072,0.00363159,-1.00570679,0.427246,0.122070,-0.061035
1387525208,0.00270081,0.00317383,-1.00404358,0.366211,0.000000,-0.061035
1392503041,0.00285339,0.00268555,-1.00367737,0.305176,0.122070,-0.122070
1397466583,0.00251770,0.00254822,-1.00538635,0.427246,0.061035,-0.061035
1402483750,0.00129700,0.00262451,-1.00669861,0.366211,0.000000,-0.183105
1407477916,0.00047302,0.00260925,-1.00598145,0.366211,0.061035,-0.061035
1412471833,0.00048828,0.00276184,-1.00495911,0.427246,0.000000,0.000000
1417515708,0.00044250,0.00328064,-1.00561523,0.427246,0.061035,0.000000
1422534958,0.00038147,0.00378418,-1.00672913,0.305176,0.000000,-0.122070
1427504791,0.00090027,0.00376892,-1.00633240,0.366211,0.000000,-0.122070
1432522500,0.00172424,0.00334167,-1.00550842,0.122070,0.000000,-0.122070
1437501583,0.00236511,0.00299072,-1.00610352,0.183105,0.122070,-0.122070
1442499750,0.00285339,0.00286865,-1.00738525,0.244141,0.000000,0.000000
1447497333,0.00315857,0.00288391,-1.00743103,0.122070,0.000000,-0.122070
1452528208,0.00283813,0.00273132,-1.00634766,0.244141,0.000000,0.000000
1457439916,0.00218201,0.00199890,-1.00549316,0.244141,0.000000,-0.122070
1462508458,0.00172424,0.00114441,-1.00567627,0.305176,-0.061035,-0.183105
1467590958,0.00143433,0.00100708,-1.00607300,0.427246,-0.061035,-0.061035
1472500958,0.00172424,0.00158691,-1.00559998,0.244141,0.000000,-0.061035
1477482583,0.00265503,0.00228882,-1.00482178,0.366211,0.061035,0.122070
1482502958,0.00320435,0.00277710,-1.00511169,0.305176,0.061035,-0.061035
1487514625,0.00277710,0.00297546,-1.00654602,0.305176,0.000000,0.000000
1492495791,0.00212097,0.00299072,-1.00750732,0.305176,0.000000,-0.122070
1497523833,0.00207520,0.00328064,-1.00704956,0.244141,0.183105,-0.061035
1502508208,0.00230408,0.00413513,-1.00634766,0.305176,-0.061035,0.061035
1507485958,0.00224304,0.00506592,-1.00660706,0.427246,0.000000,0.000000
1512498958,0.00213623,0.00541687,-1.00666809,0.549316,0.061035,0.000000
1517491708,0.00190735,0.00489807,-1.00570679,0.305176,0.061035,-0.183105
1522486125,0.00122070,0.00378418,-1.00505066,0.305176,0.061035,-0.183105
1527495083,0.00056458,0.00277710,-1.00549316,0.366211,0.061035,0.061035
1532523833,0.00065613,0.00225830,-1.00624084,0.244141,0.183105,0.000000
1537536500,0.00111389,0.00187683,-1.00648499,0.305176,0.061035,-0.061035
1542524291,0.00112915,0.00148010,-1.00611877,0.366211,-0.061035,-0.061035
1547507416,0.00091553,0.00151062,-1.00573730,0.366211,0.061035,-0.061035
1552525250,0.00097656,0.00181580,-1.00593567,0.488281,0.061035,0.000000
1557506541,0.00128174,0.00186157,-1.00616455,0.183105,-0.122070,-0.061035
1562515583,0.00158691,0.00172424,-1.00592041,0.366211,0.061035,-0.122070
1567517625,0.00202942,0.00195312,-1.00593567,0.244141,0.000000,-0.122070
1572572291,0.00260925,0.00239563,-1.00665283,0.183105,-0.061035,-0.122070
1577499000,0.00291443,0.00274658,-1.00692749,0.244141,0.061035,-0.061035
1582542666,0.00263977,0.00274658,-1.00625610,0.427246,0.000000,0.000000
1587544333,0.00219727,0.00265503,-1.00561523,0.305176,0.000000,-0.183105
1592524250,0.00225830,0.00302124,-1.00608826,0.366211,0.061035,0.000000
1597505333,0.00250244,0.00366211,-1.00672913,0.305176,0.061035,-0.122070
1602516083,0.00199890,0.00390625,-1.00614929,0.244141,0.061035,0.000000
1607503083,0.00117493,0.00364685,-1.00497437,0.305176,0.122070,-0.061035
1612531750,0.00097656,0.00338745,-1.00471497,0.183105,0.000000,-0.122070
1617797708,0.00149536,0.00334167,-1.00534058,0.122070,0.000000,0.061035
1622542583,0.00213623,0.00334167,-1.00559998,0.305176,0.061035,-0.183105
1627539541,0.00250244,0.00318909,-1.00550842,0.244141,-0.122070,-0.061035
1632555041,0.00256348,0.00323486,-1.00613403,0.183105,0.000000,-0.061035
1637513916,0.00242615,0.00361633,-1.00723267,0.427246,-0.061035,-0.061035
1642518583,0.00215149,0.00372314,-1.00747681,0.305176,0.061035,0.000000
1647535500,0.00193787,0.00317383,-1.00663757,0.427246,0.122070,0.122070
1652590750,0.00192261,0.00245667,-1.00593567,0.366211,0.061035,-0.122070
1657539625,0.00222778,0.00190735,-1.00610352,0.366211,0.183105,-0.122070
1662536750,0.00270081,0.00151062,-1.00640869,0.244141,0.061035,-0.061035
1667533041,0.00288391,0.00129700,-1.00592041,0.244141,-0.061035,-0.122070
1672550958,0.00248718,0.00106812,-1.00524902,0.366211,0.183105,-0.061035
1677520250,0.00193787,0.00076294,-1.00550842,0.244141,0.122070,0.000000
1682555375,0.00184631,0.00073242,-1.00639343,0.305176,0.000000,-0.061035
1687555000,0.00219727,0.00143433,-1.00698853,0.427246,0.061035,0.000000
1692549916,0.00247192,0.00271606,-1.00666809,0.305176,0.183105,-0.061035
1697548458,0.00248718,0.00375366,-1.00610352,0.183105,0.000000,-0.183105
1702606833,0.00244141,0.00407410,-1.00659180,0.305176,0.000000,0.061035
1707535166,0.00239563,0.00398254,-1.00709534,0.244141,0.061035,-0.122070
1712547833,0.00213623,0.00387573,-1.00625610,0.305176,0.061035,-0.122070
1717575583,0.00173950,0.00387573,-1.00535583,0.305176,-0.061035,0.000000
1722597041,0.00140381,0.00386047,-1.00588989,0.366211,0.000000,-0.122070
1727567375,0.00096130,0.00369263,-1.00657654,0.244141,0.000000,0.061035
1732558375,0.00077820,0.00337219,-1.00605774,0.366211,0.000000,-0.061035
1737548625,0.00126648,0.00309753,-1.00527954,0.122070,0.061035,-0.061035
1742549083,0.00202942,0.00312805,-1.00547791,0.183105,0.000000,-0.122070
1747562000,0.00234985,0.00311279,-1.00636292,0.305176,-0.061035,-0.061035
1752578375,0.00215149,0.00274658,-1.00706482,0.427246,0.061035,-0.061035
1757568125,0.00207520,0.00234985,-1.00704956,0.244141,0.000000,-0.061035
1762582583,0.00221252,0.00209045,-1.00682068,0.244141,-0.061035,-0.122070
1767576083,0.00204468,0.00184631,-1.00675964,0.305176,0.061035,0.061035
1772559875,0.00163269,0.00161743,-1.00648499,0.366211,0.061035,-0.061035
1777593625,0.00155640,0.00173950,-1.00572205,0.244141,0.000000,-0.122070
1782556583,0.00198364,0.00234985,-1.00517273,0.427246,0.122070,-0.122070
1787573791,0.00241089,0.00312805,-1.00535583,0.366211,-0.061035,-0.061035
1792569083,0.00251770,0.00372314,-1.00596619,0.244141,0.183105,0.000000
1797547166,0.00245667,0.00390625,-1.00639343,0.183105,0.000000,-0.122070
1802558416,0.00239563,0.00372314,-1.00648499,0.305176,-0.061035,-0.122070
1807543458,0.00230408,0.00361633,-1.00657654,0.244141,0.000000,0.000000
1812558541,0.00225830,0.00372314,-1.00659180,0.305176,0.000000,0.000000
1817568791,0.00227356,0.00367737,-1.00587463,0.305176,0.061035,-0.061035
1822578208,0.00228882,0.00364685,-1.00465393,0.366211,0.122070,-0.183105
1827577333,0.00181580,0.00370789,-1.00427246,0.610352,0.122070,-0.061035
1832571875,0.00114441,0.00355530,-1.00529480,0.183105,-0.061035,0.000000
1837556708,0.00106812,0.00325012,-1.00672913,0.305176,0.061035,-0.122070
1842559708,0.00135803,0.00312805,-1.00704956,0.427246,0.000000,0.000000
1847553166,0.00152588,0.00306702,-1.00625610,0.366211,0.000000,-0.061035
1852582041,0.00164795,0.00256348,-1.00569153,0.366211,0.000000,-0.061035
1857574666,0.00205994,0.00186157,-1.00561523,0.244141,0.000000,-0.061035
1862593833,0.00225830,0.00148010,-1.00540161,0.183105,0.000000,0.000000
1867591250,0.00215149,0.00177002,-1.00541687,0.244141,0.061035,-0.061035
1872591416,0.00241089,0.00251770,-1.00622559,0.122070,0.122070,-0.122070
1877590083,0.00283813,0.00296021,-1.00717163,0.122070,-0.061035,0.000000
1882587333,0.00300598,0.00285339,-1.00721741,0.366211,0.061035,-0.183105
1887599791,0.00291443,0.00280762,-1.00642395,0.366211,0.122070,-0.122070
1892607833,0.00267029,0.00325012,-1.00624084,0.366211,0.061035,0.000000
1897573125,0.00265503,0.00357056,-1.00692749,0.427246,0.061035,-0.061035
1902590583,0.00279236,0.00318909,-1.00686646,0.183105,-0.061035,-0.061035
1907570375,0.00260925,0.00260925,-1.00598145,0.183105,0.000000,-0.244141
1912605250,0.00221252,0.00250244,-1.00588989,0.305176,0.000000,-0.061035
1917613000,0.00190735,0.00296021,-1.00692749,0.366211,0.122070,-0.061035
1922582708,0.00149536,0.00338745,-1.00738525,0.305176,0.000000,-0.061035
1927575500,0.00096130,0.00346375,-1.00646973,0.366211,0.061035,0.000000
1932689166,0.00106812,0.00317383,-1.00570679,0.427246,0.061035,0.000000
1937604500,0.00189209,0.00270081,-1.00593567,0.305176,0.000000,-0.183105
1942595500,0.00250244,0.00244141,-1.00599670,0.305176,-0.122070,-0.061035
1947599625,0.00271606,0.00262451,-1.00529480,0.366211,0.000000,-0.061035
1952600666,0.00282288,0.00283813,-1.00480652,0.244141,0.122070,-0.061035
1957577416,0.00282288,0.00259399,-1.00552368,0.305176,-0.061035,-0.061035
1962604166,0.00280762,0.00189209,-1.00688171,0.244141,0.061035,-0.061035
1967585875,0.00270081,0.00138855,-1.00726318,0.427246,0.061035,-0.122070
1972614250,0.00250244,0.00164795,-1.00607300,0.244141,0.000000,0.000000
1977585291,0.00234985,0.00251770,-1.00527954,0.305176,0.061035,0.000000
1982628666,0.00213623,0.00328064,-1.00616455,0.366211,0.000000,0.000000
1987609916,0.00198364,0.00344849,-1.00723267,0.366211,0.061035,-0.061035
1992597708,0.00213623,0.00314331,-1.00695801,0.305176,0.000000,-0.061035
1997589125,0.00254822,0.00289917,-1.00578308,0.305176,0.000000,-0.061035
2002628750,0.00263977,0.00292969,-1.00555420,0.244141,-0.061035,-0.061035
2007612000,0.00198364,0.00334167,-1.00627136,0.305176,0.000000,-0.183105
2012631750,0.00112915,0.00386047,-1.00648499,0.366211,0.122070,0.000000
2017600250,0.00062561,0.00369263,-1.00602722,0.366211,0.000000,-0.061035
2022631500,0.00047302,0.00286865,-1.00587463,0.183105,0.061035,0.000000
2027595416,0.00064087,0.00209045,-1.00643921,0.244141,0.000000,0.000000
2032654000,0.00091553,0.00161743,-1.00686646,0.305176,0.000000,-0.061035
2037669416,0.00102234,0.00152588,-1.00642395,0.427246,0.122070,0.000000
2042600625,0.00111389,0.00193787,-1.00585938,0.244141,0.000000,-0.122070
2047606458,0.00161743,0.00238037,-1.00622559,0.305176,-0.061035,0.000000
2052641041,0.00251770,0.00251770,-1.00709534,0.305176,-0.061035,0.000000
2057648916,0.00323486,0.00247192,-1.00697327,0.366211,0.061035,-0.061035
2062636708,0.00321960,0.00244141,-1.00584412,0.305176,0.061035,0.000000
2067682541,0.00273132,0.00262451,-1.00541687,0.366211,0.122070,-0.061035
2072698958,0.00239563,0.00283813,-1.00617981,0.244141,0.061035,-0.122070
2077656166,0.00236511,0.00282288,-1.00645447,0.305176,0.061035,-0.122070
2082658666,0.00259399,0.00291443,-1.00535583,0.366211,0.122070,-0.061035
2087783791,0.00297546,0.00325012,-1.00450134,0.305176,0.000000,-0.061035
2092788291,0.00311279,0.00343323,-1.00538635,0.427246,0.183105,0.000000
2097629541,0.00286865,0.00325012,-1.00674438,0.427246,0.183105,-0.061035
2102660708,0.00251770,0.00300598,-1.00640869,0.305176,-0.061035,-0.122070
2107614291,0.00231934,0.00305176,-1.00497437,0.305176,0.061035,-0.061035
2112619750,0.00204468,0.00318909,-1.00498962,0.305176,0.183105,-0.061035
2117659041,0.00172424,0.00303650,-1.00631714,0.305176,0.000000,0.061035
2122666416,0.00172424,0.00265503,-1.00674438,0.244141,0.000000,0.061035
2127642708,0.00178528,0.00198364,-1.00613403,0.305176,-0.061035,-0.122070
2132644666,0.00140381,0.00129700,-1.00611877,0.366211,0.000000,-0.122070
2137629083,0.00082397,0.00117493,-1.00695801,0.244141,0.000000,-0.122070
2142653958,0.00070190,0.00163269,-1.00727844,0.183105,0.061035,-0.244141
2147646291,0.00112915,0.00192261,-1.00624084,0.183105,0.061035,-0.122070
2152727666,0.00170898,0.00190735,-1.00491333,0.183105,0.000000,0.000000
2157747083,0.00199890,0.00189209,-1.00503540,0.122070,0.061035,0.000000
2162655583,0.00201416,0.00209045,-1.00637817,0.366211,0.183105,0.000000
2167673375,0.00198364,0.00245667,-1.00672913,0.305176,0.122070,-0.061035
2172634083,0.00213623,0.00268555,-1.00579834,0.366211,0.061035,-0.122070
2177680500,0.00238037,0.00289917,-1.00564575,0.183105,0.000000,0.000000
2182734083,0.00247192,0.00344849,-1.00692749,0.366211,-0.061035,-0.061035
2187734000,0.00241089,0.00389099,-1.00769043,0.305176,0.122070,-0.122070
2192726083,0.00225830,0.00379944,-1.00662231,0.427246,0.244141,0.061035
2197657833,0.00234985,0.00328064,-1.00523376,0.488281,0.061035,0.000000
2202808208,0.00286865,0.00302124,-1.00552368,0.244141,0.061035,0.000000
2207737458,0.00357056,0.00321960,-1.00650024,0.305176,-0.061035,0.000000
2212653416,0.00386047,0.00341797,-1.00639343,0.366211,0.061035,0.000000
2217710000,0.00343323,0.00344849,-1.00613403,0.366211,0.000000,-0.122070
2222748083,0.00256348,0.00346375,-1.00663757,0.183105,0.000000,-0.061035
2227672916,0.00207520,0.00360107,-1.00671387,0.427246,0.122070,-0.122070
2232809625,0.00233459,0.00341797,-1.00584412,0.305176,0.061035,-0.122070
2237735500,0.00268555,0.00274658,-1.00497437,0.305176,-0.061035,-0.122070
2242693041,0.00236511,0.00216675,-1.00494385,0.183105,0.061035,-0.061035
2247659458,0.00152588,0.00189209,-1.00564575,0.366211,0.061035,-0.061035
2252797625,0.00120544,0.00186157,-1.00624084,0.305176,0.000000,-0.061035
2257698666,0.00183105,0.00222778,-1.00619507,0.305176,0.061035,-0.061035
2262663833,0.00270081,0.00256348,-1.00610352,0.427246,0.122070,0.000000
2267806083,0.00300598,0.00238037,-1.00672913,0.366211,0.000000,-0.183105
2272669416,0.00263977,0.00213623,-1.00738525,0.305176,0.061035,-0.061035
2277648375,0.00202942,0.00239563,-1.00703430,0.305176,0.122070,-0.061035
2282697708,0.00187683,0.00279236,-1.00624084,0.244141,0.000000,0.000000
2287773375,0.00205994,0.00267029,-1.00616455,0.366211,-0.061035,-0.061035
2292690833,0.00177002,0.00236511,-1.00650024,0.244141,0.000000,-0.122070
2297665708,0.00131226,0.00267029,-1.00604248,0.183105,0.000000,-0.183105
2302752583,0.00119019,0.00338745,-1.00517273,0.122070,0.061035,0.000000
2307686250,0.00141907,0.00370789,-1.00515747,0.366211,0.000000,-0.122070
2312668458,0.00172424,0.00337219,-1.00593567,0.427246,0.061035,0.061035
2317760291,0.00158691,0.00312805,-1.00582886,0.366211,0.000000,-0.122070
2322705166,0.00120544,0.00325012,-1.00476074,0.305176,0.061035,0.061035
2327665458,0.00128174,0.00321960,-1.00488281,0.305176,0.000000,-0.122070
2332688958,0.00161743,0.00279236,-1.00680542,0.366211,0.000000,-0.061035
2337723958,0.00163269,0.00231934,-1.00823975,0.244141,0.061035,-0.061035
2342809791,0.00148010,0.00202942,-1.00718689,0.305176,0.061035,-0.061035
2347707500,0.00143433,0.00205994,-1.00509644,0.427246,0.122070,-0.122070
2352842208,0.00158691,0.00244141,-1.00465393,0.305176,0.061035,-0.061035
2357716500,0.00186157,0.00285339,-1.00584412,0.305176,0.061035,-0.061035
2362675750,0.00212097,0.00305176,-1.00659180,0.244141,0.122070,-0.061035
2367699625,0.00230408,0.00326538,-1.00604248,0.305176,-0.061035,-0.122070
2372722416,0.00222778,0.00355530,-1.00569153,0.122070,-0.061035,-0.061035
2377686041,0.00227356,0.00358582,-1.00662231,0.305176,0.000000,-0.061035
2382697791,0.00259399,0.00344849,-1.00735474,0.122070,0.061035,-0.122070
2387796333,0.00256348,0.00332642,-1.00631714,0.305176,0.000000,-0.122070
2392722375,0.00233459,0.00314331,-1.00529480,0.305176,0.061035,-0.122070
2397792041,0.00267029,0.00308228,-1.00614929,0.549316,0.183105,0.000000
2402851000,0.00315857,0.00326538,-1.00741577,0.305176,0.000000,-0.061035
2407734541,0.00282288,0.00347900,-1.00738525,0.366211,0.061035,0.061035
2412689416,0.00187683,0.00364685,-1.00657654,0.427246,0.122070,-0.061035
2417806041,0.00151062,0.00357056,-1.00605774,0.305176,-0.061035,-0.061035
2422774791,0.00175476,0.00318909,-1.00570679,0.305176,0.061035,-0.244141
2427694875,0.00202942,0.00296021,-1.00521851,0.366211,0.000000,0.000000
2432737041,0.00222778,0.00311279,-1.00506592,0.305176,0.000000,-0.061035
2437781791,0.00212097,0.00337219,-1.00561523,0.366211,0.000000,-0.061035
2442709250,0.00172424,0.00344849,-1.00624084,0.183105,0.061035,-0.244141
2447684541,0.00155640,0.00328064,-1.00625610,0.366211,0.061035,0.061035
2452832750,0.00183105,0.00308228,-1.00576782,0.305176,0.061035,0.000000
2457693333,0.00222778,0.00328064,-1.00567627,0.366211,-0.061035,-0.122070
2462687791,0.00251770,0.00357056,-1.00642395,0.305176,-0.061035,-0.122070
2467841750,0.00282288,0.00308228,-1.00654602,0.244141,0.000000,-0.122070
2472870583,0.00303650,0.00227356,-1.00550842,0.244141,0.000000,-0.061035
2477736916,0.00268555,0.00205994,-1.00495911,0.305176,0.122070,-0.122070
2482782500,0.00228882,0.00222778,-1.00563049,0.244141,0.061035,-0.061035
2487802416,0.00271606,0.00218201,-1.00636292,0.305176,0.122070,0.122070
2492742708,0.00354004,0.00234985,-1.00625610,0.244141,-0.061035,-0.183105
2497700708,0.00350952,0.00311279,-1.00595093,0.305176,0.061035,-0.061035
2502785458,0.00241089,0.00366211,-1.00640869,0.427246,-0.061035,0.000000
2507732250,0.00158691,0.00329590,-1.00695801,0.244141,0.000000,-0.061035
2512717750,0.00169373,0.00282288,-1.00650024,0.244141,0.000000,-0.061035
2517746666,0.00201416,0.00294495,-1.00572205,0.427246,-0.061035,-0.061035
2522736291,0.00178528,0.00320435,-1.00578308,0.305176,0.000000,-0.061035
2527705041,0.00126648,0.00334167,-1.00640869,0.366211,0.061035,-0.122070
2532756291,0.00137329,0.00334167,-1.00671387,0.244141,0.061035,-0.122070
2537771416,0.00195312,0.00305176,-1.00631714,0.366211,0.000000,-0.061035
2542728333,0.00199890,0.00285339,-1.00572205,0.244141,0.061035,0.061035
2547729250,0.00166321,0.00309753,-1.00572205,0.244141,0.000000,0.000000
2552836875,0.00178528,0.00329590,-1.00613403,0.305176,-0.122070,-0.122070
2557780083,0.00247192,0.00334167,-1.00607300,0.305176,0.061035,-0.244141
2562751875,0.00296021,0.00343323,-1.00599670,0.366211,0.122070,-0.061035
2567737166,0.00288391,0.00334167,-1.00663757,0.305176,0.061035,-0.061035
2572762625,0.00256348,0.00326538,-1.00714111,0.366211,0.061035,0.000000
2577743708,0.00236511,0.00331116,-1.00660706,0.427246,0.183105,-0.061035
2582809291,0.00234985,0.00321960,-1.00564575,0.305176,0.061035,-0.061035
2587811458,0.00270081,0.00299072,-1.00561523,0.305176,0.061035,-0.122070
2592739333,0.00366211,0.00286865,-1.00634766,0.244141,0.061035,0.000000
2597720583,0.00419617,0.00277710,-1.00642395,0.305176,0.000000,-0.061035
2602782041,0.00343323,0.00242615,-1.00578308,0.244141,-0.061035,-0.061035
2607757541,0.00236511,0.00222778,-1.00595093,0.366211,0.000000,0.000000
2612736500,0.00209045,0.00263977,-1.00709534,0.244141,0.000000,0.000000
2617748166,0.00244141,0.00317383,-1.00761414,0.366211,0.061035,0.061035
2622821750,0.00286865,0.00292969,-1.00682068,0.244141,0.000000,-0.183105
2627763166,0.00263977,0.00209045,-1.00593567,0.366211,0.000000,-0.122070
2632753708,0.00184631,0.00166321,-1.00592041,0.305176,0.061035,0.000000
2637763041,0.00129700,0.00169373,-1.00598145,0.366211,0.122070,-0.061035
2642754166,0.00106812,0.00177002,-1.00540161,0.305176,0.000000,-0.061035
2647749833,0.00096130,0.00221252,-1.00489807,0.183105,0.061035,-0.061035
2652866166,0.00088501,0.00311279,-1.00541687,0.427246,0.061035,-0.122070
2657782666,0.00112915,0.00367737,-1.00633240,0.305176,0.061035,-0.061035
2662775458,0.00167847,0.00360107,-1.00662231,0.305176,-0.183105,-0.122070
2667760125,0.00202942,0.00326538,-1.00627136,0.244141,0.061035,-0.061035
2672755458,0.00210571,0.00292969,-1.00610352,0.488281,0.122070,-0.061035
2677750583,0.00207520,0.00276184,-1.00634766,0.366211,0.122070,-0.122070
2682762791,0.00192261,0.00288391,-1.00650024,0.183105,-0.061035,-0.244141
2687802541,0.00169373,0.00294495,-1.00604248,0.244141,0.000000,-0.061035
2692775750,0.00169373,0.00280762,-1.00553894,0.183105,-0.061035,-0.122070
2697765916,0.00221252,0.00285339,-1.00584412,0.366211,0.061035,-0.061035
2702807083,0.00312805,0.00309753,-1.00666809,0.183105,0.000000,0.000000
2707834666,0.00358582,0.00308228,-1.00689697,0.244141,0.122070,0.000000
2712793166,0.00296021,0.00286865,-1.00639343,0.244141,0.000000,-0.122070
2717770958,0.00196838,0.00282288,-1.00610352,0.488281,0.000000,-0.061035
2722830291,0.00146484,0.00292969,-1.00654602,0.366211,0.061035,0.000000
2727838083,0.00132751,0.00311279,-1.00665283,0.305176,-0.061035,-0.061035
2732878791,0.00138855,0.00309753,-1.00575256,0.305176,0.000000,0.000000
2737781833,0.00201416,0.00262451,-1.00497437,0.305176,0.061035,-0.122070
2742752541,0.00270081,0.00227356,-1.00549316,0.366211,-0.061035,-0.183105
2747739500,0.00262451,0.00276184,-1.00642395,0.305176,0.061035,-0.061035
2752897166,0.00187683,0.00344849,-1.00617981,0.305176,0.122070,-0.122070
2757958958,0.00120544,0.00334167,-1.00512695,0.122070,-0.061035,-0.061035
2762807625,0.00120544,0.00273132,-1.00489807,0.427246,0.000000,-0.061035
2767806166,0.00178528,0.00245667,-1.00550842,0.366211,0.061035,-0.122070
2772800208,0.00233459,0.00267029,-1.00585938,0.427246,0.122070,-0.122070
2777761875,0.00222778,0.00292969,-1.00564575,0.305176,0.183105,-0.122070
2782786583,0.00157166,0.00291443,-1.00573730,0.305176,0.061035,0.000000
2787796833,0.00106812,0.00253296,-1.00633240,0.366211,0.122070,-0.061035
2792793916,0.00135803,0.00225830,-1.00645447,0.366211,0.000000,-0.122070
2797766333,0.00201416,0.00265503,-1.00588989,0.366211,0.000000,-0.244141
2802809666,0.00213623,0.00323486,-1.00573730,0.305176,0.183105,-0.122070
2807788708,0.00190735,0.00320435,-1.00657654,0.244141,0.000000,-0.183105
2812780291,0.00204468,0.00245667,-1.00724792,0.305176,0.061035,-0.122070
2817815083,0.00225830,0.00166321,-1.00666809,0.366211,0.000000,-0.183105
2822863875,0.00222778,0.00141907,-1.00555420,0.244141,0.061035,-0.061035
2827823375,0.00204468,0.00178528,-1.00547791,0.366211,-0.122070,-0.122070
2832804250,0.00192261,0.00227356,-1.00621033,0.488281,0.122070,0.061035
2837800083,0.00190735,0.00247192,-1.00613403,0.305176,0.061035,0.000000
2842845541,0.00178528,0.00257874,-1.00564575,0.427246,-0.183105,0.000000
2847810625,0.00146484,0.00292969,-1.00622559,0.244141,-0.061035,0.000000
2852858333,0.00112915,0.00315857,-1.00730896,0.305176,0.000000,-0.122070
2857804500,0.00117493,0.00296021,-1.00730896,0.549316,-0.061035,0.000000
2862864458,0.00163269,0.00265503,-1.00602722,0.427246,0.000000,-0.061035
2867817666,0.00213623,0.00285339,-1.00497437,0.244141,0.000000,-0.122070
2872809416,0.00260925,0.00360107,-1.00563049,0.366211,-0.061035,-0.061035
2877800208,0.00280762,0.00434875,-1.00715637,0.366211,0.122070,-0.061035
2882857125,0.00247192,0.00436401,-1.00755310,0.366211,0.061035,-0.183105
2887858875,0.00212097,0.00367737,-1.00672913,0.244141,0.061035,0.000000
2892818208,0.00270081,0.00329590,-1.00646973,0.305176,0.000000,0.061035
2897817875,0.00344849,0.00334167,-1.00701904,0.305176,0.061035,-0.183105
2902807000,0.00314331,0.00312805,-1.00657654,0.305176,0.061035,0.000000
2907819625,0.00224304,0.00257874,-1.00569153,0.244141,0.000000,0.000000
2912803000,0.00184631,0.00210571,-1.00599670,0.427246,0.061035,-0.061035
2917834541,0.00189209,0.00201416,-1.00608826,0.244141,0.000000,-0.061035
2922820958,0.00199890,0.00242615,-1.00563049,0.244141,0.122070,-0.061035
2927815041,0.00224304,0.00288391,-1.00567627,0.305176,0.061035,-0.122070
2932830500,0.00256348,0.00309753,-1.00595093,0.183105,0.000000,-0.122070
2937887833,0.00257874,0.00306702,-1.00663757,0.305176,0.122070,0.061035
2942814541,0.00236511,0.00253296,-1.00807190,0.244141,0.183105,-0.061035
2947856708,0.00198364,0.00157166,-1.00805664,0.183105,0.000000,-0.122070
2952861625,0.00131226,0.00079346,-1.00614929,0.305176,0.000000,-0.122070
2957872041,0.00068665,0.00088501,-1.00529480,0.366211,-0.061035,0.000000
2962860083,0.00079346,0.00181580,-1.00619507,0.244141,0.061035,-0.122070
2967824416,0.00146484,0.00276184,-1.00648499,0.366211,-0.061035,0.000000
2972851000,0.00183105,0.00311279,-1.00558472,0.427246,0.122070,-0.061035
2977821583,0.00167847,0.00320435,-1.00489807,0.244141,0.061035,-0.183105
2982846500,0.00155640,0.00335693,-1.00529480,0.305176,0.122070,0.061035
2987894041,0.00152588,0.00363159,-1.00617981,0.244141,0.122070,-0.122070
2992864208,0.00143433,0.00405884,-1.00595093,0.244141,0.122070,-0.183105
2997853416,0.00177002,0.00419617,-1.00489807,0.305176,0.000000,-0.122070
3003055500,0.00279236,0.00366211,-1.00518799,0.305176,0.000000,-0.061035
3007881208,0.00360107,0.00302124,-1.00634766,0.366211,0.122070,0.000000
3012851708,0.00355530,0.00280762,-1.00598145,0.183105,-0.061035,0.000000
3017932208,0.00349426,0.00300598,-1.00480652,0.366211,0.000000,0.000000
3022880541,0.00355530,0.00328064,-1.00495911,0.244141,-0.061035,-0.122070
3027877291,0.00314331,0.00312805,-1.00601196,0.366211,0.000000,-0.122070
3032955041,0.00254822,0.00239563,-1.00660706,0.427246,0.000000,0.000000
3037896333,0.00222778,0.00178528,-1.00648499,0.305176,0.061035,0.061035
3042846750,0.00207520,0.00193787,-1.00608826,0.427246,0.122070,0.061035
3047813291,0.00180054,0.00239563,-1.00607300,0.244141,0.061035,0.000000
3052891500,0.00149536,0.00239563,-1.00654602,0.183105,0.000000,-0.122070
3057870458,0.00129700,0.00198364,-1.00640869,0.305176,0.122070,-0.122070
3062958333,0.00108337,0.00183105,-1.00598145,0.427246,0.061035,-0.061035
3067881458,0.00079346,0.00236511,-1.00631714,0.427246,0.061035,-0.061035
3072881375,0.00050354,0.00299072,-1.00669861,0.427246,0.000000,-0.061035
3077976375,0.00059509,0.00311279,-1.00634766,0.305176,0.000000,0.061035
3082933708,0.00096130,0.00274658,-1.00570679,0.305176,0.000000,-0.183105
3087941666,0.00149536,0.00236511,-1.00550842,0.244141,0.061035,0.000000
3092911333,0.00212097,0.00250244,-1.00605774,0.183105,0.061035,0.000000
3097914083,0.00251770,0.00305176,-1.00672913,0.366211,0.000000,-0.183105
3102897458,0.00283813,0.00363159,-1.00683594,0.305176,0.000000,0.000000
3107898125,0.00341797,0.00413513,-1.00642395,0.427246,0.061035,0.000000
3112921875,0.00402832,0.00473022,-1.00613403,0.366211,0.122070,-0.122070
3118028375,0.00433350,0.00508118,-1.00619507,0.244141,0.000000,0.000000
3123019958,0.00421143,0.00454712,-1.00616455,0.366211,0.061035,0.061035
3127870583,0.00413513,0.00349426,-1.00596619,0.366211,0.122070,-0.122070
3132910375,0.00424194,0.00268555,-1.00590515,0.305176,0.061035,-0.061035
3137889666,0.00399780,0.00219727,-1.00631714,0.244141,0.000000,-0.061035
3142853291,0.00323486,0.00175476,-1.00674438,0.305176,-0.061035,-0.061035
3147860125,0.00250244,0.00172424,-1.00654602,0.427246,0.061035,-0.061035
3152917333,0.00198364,0.00219727,-1.00639343,0.305176,-0.061035,-0.061035
3157869791,0.00129700,0.00247192,-1.00669861,0.244141,-0.122070,0.061035
3162884916,0.00045776,0.00221252,-1.00650024,0.305176,0.000000,0.000000
3167895291,0.00004578,0.00169373,-1.00563049,0.366211,-0.061035,-0.061035
3172901666,0.00035095,0.00143433,-1.00540161,0.427246,0.183105,0.061035
3177859041,0.00085449,0.00158691,-1.00614929,0.305176,0.061035,0.000000
3182902125,0.00108337,0.00196838,-1.00659180,0.366211,0.061035,-0.122070
3187949458,0.00122070,0.00257874,-1.00610352,0.305176,0.061035,-0.061035
3192905541,0.00138855,0.00331116,-1.00585938,0.366211,0.122070,0.000000
3197892083,0.00149536,0.00381470,-1.00634766,0.305176,0.122070,-0.061035
3202893291,0.00175476,0.00396729,-1.00659180,0.366211,-0.061035,-0.061035
3208239250,0.00260925,0.00402832,-1.00619507,0.244141,-0.061035,0.000000
3213056250,0.00375366,0.00415039,-1.00566101,0.305176,0.000000,-0.122070
3218019833,0.00444031,0.00395203,-1.00527954,0.366211,0.122070,-0.183105
3223138083,0.00451660,0.00326538,-1.00540161,0.122070,-0.061035,0.000000
3227917375,0.00430298,0.00244141,-1.00573730,0.244141,0.061035,-0.061035
3232914833,0.00389099,0.00199890,-1.00575256,0.366211,-0.061035,-0.061035
3237924250,0.00347900,0.00221252,-1.00567627,0.366211,0.061035,-0.061035
3242898583,0.00325012,0.00297546,-1.00604248,0.427246,0.122070,0.061035
3247900958,0.00289917,0.00381470,-1.00674438,0.366211,-0.061035,-0.061035
3252916958,0.00250244,0.00387573,-1.00712585,0.183105,0.000000,-0.122070
3257862333,0.00222778,0.00320435,-1.00653076,0.244141,0.061035,-0.061035
3262873041,0.00164795,0.00270081,-1.00572205,0.366211,0.061035,-0.122070
3267889000,0.00065613,0.00248718,-1.00567627,0.305176,0.061035,0.061035
3272902583,-0.00022888,0.00241089,-1.00598145,0.305176,0.122070,0.122070
3277891250,-0.00044250,0.00241089,-1.00602722,0.244141,0.000000,0.000000
3282909041,0.00000000,0.00239563,-1.00579834,0.305176,-0.061035,-0.061035
3287915666,0.00048828,0.00221252,-1.00576782,0.305176,0.000000,-0.061035
3292918541,0.00090027,0.00181580,-1.00610352,0.244141,0.061035,0.061035
3297895625,0.00152588,0.00163269,-1.00630188,0.305176,0.122070,0.000000
3302906000,0.00215149,0.00202942,-1.00604248,0.305176,0.061035,0.000000
3307897458,0.00228882,0.00265503,-1.00588989,0.244141,0.000000,-0.061035
3312892708,0.00253296,0.00289917,-1.00596619,0.183105,0.061035,0.000000
3317893708,0.00332642,0.00267029,-1.00563049,0.366211,0.122070,-0.122070
3322890333,0.00370789,0.00236511,-1.00538635,0.244141,-0.122070,-0.183105
3327870916,0.00338745,0.00231934,-1.00636292,0.366211,0.061035,-0.061035
3332891666,0.00320435,0.00273132,-1.00782776,0.366211,0.122070,-0.122070
3337876166,0.00314331,0.00297546,-1.00752258,0.183105,0.000000,-0.061035
3342904625,0.00250244,0.00257874,-1.00564575,0.366211,0.122070,0.061035
3347877708,0.00152588,0.00224304,-1.00488281,0.366211,-0.122070,-0.061035
3352937166,0.00115967,0.00242615,-1.00575256,0.366211,-0.061035,-0.122070
3357901208,0.00123596,0.00244141,-1.00637817,0.366211,0.000000,-0.061035
3362893166,0.00131226,0.00218201,-1.00645447,0.244141,0.000000,0.000000
3367908583,0.00160217,0.00234985,-1.00691223,0.427246,0.061035,0.061035
3372914000,0.00177002,0.00302124,-1.00747681,0.244141,0.000000,-0.122070
3377893791,0.00151062,0.00355530,-1.00704956,0.305176,0.000000,-0.122070
3382966000,0.00143433,0.00382996,-1.00578308,0.244141,0.061035,-0.061035
3387905458,0.00131226,0.00372314,-1.00498962,0.305176,-0.061035,0.000000
3392923125,0.00090027,0.00326538,-1.00518799,0.427246,0.061035,-0.061035
3397879916,0.00099182,0.00285339,-1.00555420,0.488281,0.122070,0.000000
3402901250,0.00161743,0.00251770,-1.00576782,0.305176,0.122070,0.061035
3407893333,0.00202942,0.00216675,-1.00607300,0.427246,0.122070,-0.061035
3412929125,0.00207520,0.00201416,-1.00610352,0.244141,0.000000,0.000000
3417991625,0.00216675,0.00221252,-1.00552368,0.183105,0.000000,-0.061035
3422963000,0.00256348,0.00244141,-1.00462341,0.427246,0.000000,-0.061035
3427920375,0.00331116,0.00262451,-1.00431824,0.244141,0.061035,-0.183105
3433091500,0.00399780,0.00283813,-1.00521851,0.244141,-0.061035,-0.061035
3437929708,0.00395203,0.00309753,-1.00660706,0.305176,0.000000,-0.061035
3442932125,0.00332642,0.00347900,-1.00712585,0.427246,0.061035,0.000000
3447936708,0.00285339,0.00343323,-1.00637817,0.244141,0.061035,-0.061035
3452950583,0.00265503,0.00279236,-1.00569153,0.183105,0.061035,-0.061035
3457964250,0.00230408,0.00213623,-1.00588989,0.244141,0.122070,0.000000
3462911791,0.00163269,0.00207520,-1.00630188,0.244141,0.000000,0.000000
3467944875,0.00102234,0.00280762,-1.00617981,0.366211,0.000000,-0.061035
3472925041,0.00085449,0.00352478,-1.00567627,0.305176,-0.061035,-0.061035
3477901375,0.00091553,0.00346375,-1.00572205,0.305176,0.000000,0.000000
3482959625,0.00090027,0.00320435,-1.00625610,0.305176,0.183105,-0.061035
3487949541,0.00079346,0.00341797,-1.00628662,0.305176,0.061035,0.061035
3492920875,0.00091553,0.00373840,-1.00553894,0.244141,0.000000,-0.183105
3497937625,0.00135803,0.00367737,-1.00512695,0.488281,0.061035,-0.183105
3502923041,0.00183105,0.00363159,-1.00599670,0.244141,0.061035,-0.183105
3507912125,0.00222778,0.00366211,-1.00694275,0.183105,-0.061035,-0.061035
3512946583,0.00267029,0.00329590,-1.00651550,0.366211,0.122070,0.000000
3517920625,0.00285339,0.00263977,-1.00550842,0.366211,0.122070,0.000000
3522978291,0.00267029,0.00201416,-1.00576782,0.366211,0.061035,-0.061035
3527941458,0.00256348,0.00143433,-1.00703430,0.305176,0.000000,0.122070
3532927250,0.00265503,0.00131226,-1.00727844,0.305176,0.061035,0.000000
3537995083,0.00247192,0.00169373,-1.00630188,0.244141,-0.061035,-0.183105
3542935791,0.00205994,0.00201416,-1.00596619,0.244141,0.000000,-0.061035
3547921250,0.00183105,0.00222778,-1.00657654,0.305176,0.061035,0.000000
3552958375,0.00204468,0.00253296,-1.00660706,0.305176,-0.061035,-0.061035
3557948500,0.00254822,0.00299072,-1.00587463,0.305176,0.061035,-0.061035
3562935708,0.00267029,0.00344849,-1.00599670,0.122070,0.000000,-0.122070
3567936958,0.00224304,0.00373840,-1.00724792,0.244141,-0.061035,-0.122070
3572937541,0.00187683,0.00355530,-1.00793457,0.244141,0.000000,-0.061035
3577936416,0.00164795,0.00294495,-1.00698853,0.305176,0.000000,-0.061035
3582957625,0.00140381,0.00265503,-1.00517273,0.427246,0.000000,0.000000
3588077166,0.00131226,0.00326538,-1.00459290,0.183105,0.000000,-0.061035
3592968291,0.00160217,0.00410461,-1.00599670,0.183105,0.122070,-0.061035
3597958250,0.00222778,0.00418091,-1.00706482,0.366211,0.000000,-0.183105
3602969083,0.00248718,0.00381470,-1.00619507,0.244141,0.061035,0.000000
3607933000,0.00187683,0.00370789,-1.00520325,0.244141,0.061035,0.000000
3612976666,0.00117493,0.00354004,-1.00617981,0.122070,-0.061035,-0.122070
3617962541,0.00126648,0.00273132,-1.00791931,0.244141,0.061035,-0.122070
3622952000,0.00190735,0.00186157,-1.00784302,0.244141,0.061035,0.000000
3627991833,0.00225830,0.00181580,-1.00621033,0.305176,0.061035,0.061035
3632980291,0.00225830,0.00219727,-1.00546265,0.366211,-0.122070,-0.122070
3637979791,0.00245667,0.00227356,-1.00607300,0.244141,-0.061035,-0.183105
3642945958,0.00271606,0.00222778,-1.00637817,0.366211,0.122070,-0.183105
3647934375,0.00265503,0.00245667,-1.00588989,0.427246,0.183105,-0.183105
3653026250,0.00236511,0.00291443,-1.00575256,0.366211,-0.122070,-0.122070
3657986458,0.00205994,0.00296021,-1.00645447,0.305176,0.061035,-0.122070
3662975166,0.00190735,0.00248718,-1.00674438,0.122070,0.122070,-0.061035
3667973833,0.00181580,0.00225830,-1.00555420,0.305176,0.183105,-0.183105
3672965416,0.00155640,0.00253296,-1.00433350,0.305176,0.061035,0.000000
3677964208,0.00103760,0.00274658,-1.00477600,0.244141,0.061035,0.000000
3682977375,0.00064087,0.00279236,-1.00608826,0.427246,0.061035,-0.061035
3687969750,0.00088501,0.00259399,-1.00643921,0.305176,-0.122070,-0.122070
3693038541,0.00157166,0.00219727,-1.00575256,0.244141,0.122070,-0.061035
3697994416,0.00213623,0.00190735,-1.00559998,0.244141,-0.061035,-0.061035
3702989125,0.00221252,0.00173950,-1.00666809,0.183105,0.061035,-0.061035
3707969666,0.00213623,0.00155640,-1.00740051,0.427246,0.061035,0.000000
3712995375,0.00242615,0.00169373,-1.00692749,0.244141,0.122070,0.061035
3717991833,0.00271606,0.00238037,-1.00621033,0.244141,0.000000,-0.061035
3722981166,0.00267029,0.00302124,-1.00621033,0.305176,0.061035,-0.061035
3727967708,0.00270081,0.00303650,-1.00627136,0.427246,-0.061035,-0.183105
3732975250,0.00285339,0.00267029,-1.00547791,0.244141,-0.061035,-0.061035
3737974625,0.00279236,0.00267029,-1.00485229,0.305176,-0.061035,-0.122070
3742973000,0.00244141,0.00309753,-1.00588989,0.305176,-0.122070,-0.061035
3748000833,0.00221252,0.00320435,-1.00700378,0.366211,-0.061035,0.000000
3753010083,0.00227356,0.00288391,-1.00631714,0.366211,0.000000,-0.061035
3757998750,0.00238037,0.00282288,-1.00511169,0.305176,0.000000,-0.061035
3763012125,0.00239563,0.00299072,-1.00556946,0.366211,0.122070,-0.122070
3767975666,0.00222778,0.00254822,-1.00703430,0.427246,0.000000,-0.061035
3772985875,0.00199890,0.00170898,-1.00726318,0.366211,-0.061035,-0.122070
3777990875,0.00189209,0.00161743,-1.00596619,0.366211,0.061035,-0.183105
3783012250,0.00169373,0.00239563,-1.00503540,0.366211,0.000000,-0.061035
3787996625,0.00106812,0.00306702,-1.00553894,0.244141,-0.061035,-0.122070
3793003708,0.00051880,0.00329590,-1.00637817,0.488281,0.000000,0.000000
3798050333,0.00070190,0.00337219,-1.00622559,0.488281,0.061035,-0.061035
3803016625,0.00143433,0.00341797,-1.00546265,0.305176,0.122070,0.000000
3807986625,0.00187683,0.00334167,-1.00535583,0.305176,0.000000,-0.061035
3813027416,0.00175476,0.00321960,-1.00596619,0.366211,0.061035,-0.122070
3818020708,0.00172424,0.00318909,-1.00621033,0.305176,-0.061035,-0.061035
3823007791,0.00209045,0.00306702,-1.00588989,0.183105,0.000000,-0.122070
3827977458,0.00242615,0.00289917,-1.00570679,0.366211,0.061035,-0.122070
3833017166,0.00239563,0.00268555,-1.00601196,0.244141,0.061035,-0.061035
3837993041,0.00236511,0.00247192,-1.00625610,0.122070,0.061035,-0.061035
3843003375,0.00277710,0.00242615,-1.00613403,0.244141,0.000000,-0.061035
3848002750,0.00306702,0.00260925,-1.00611877,0.305176,0.122070,-0.122070
3853002750,0.00279236,0.00286865,-1.00643921,0.244141,0.122070,-0.183105
3858009625,0.00227356,0.00296021,-1.00654602,0.305176,0.061035,-0.061035
3863003791,0.00177002,0.00291443,-1.00616455,0.244141,-0.061035,-0.061035
3868021125,0.00143433,0.00259399,-1.00570679,0.366211,0.061035,-0.061035
3873015833,0.00119019,0.00195312,-1.00627136,0.549316,0.122070,-0.183105
3877996625,0.00070190,0.00146484,-1.00703430,0.366211,-0.061035,0.000000
3883009125,0.00030518,0.00148010,-1.00653076,0.366211,0.122070,0.061035
3888036541,0.00082397,0.00166321,-1.00561523,0.244141,0.061035,-0.061035
3893004250,0.00216675,0.00173950,-1.00563049,0.305176,-0.061035,-0.061035
3898006333,0.00318909,0.00225830,-1.00643921,0.366211,0.061035,0.000000
3903072833,0.00299072,0.00326538,-1.00709534,0.244141,0.000000,-0.183105
3908017625,0.00209045,0.00381470,-1.00694275,0.427246,0.061035,-0.122070
3913030791,0.00144958,0.00375366,-1.00659180,0.366211,0.122070,-0.061035
3918012500,0.00155640,0.00373840,-1.00682068,0.366211,0.183105,0.000000
3923030083,0.00196838,0.00398254,-1.00691223,0.244141,0.061035,-0.061035
3928027083,0.00202942,0.00421143,-1.00595093,0.244141,0.122070,-0.061035
3933027208,0.00215149,0.00408936,-1.00482178,0.244141,0.061035,-0.061035
3938044958,0.00260925,0.00369263,-1.00497437,0.305176,0.000000,-0.122070
3943018708,0.00294495,0.00296021,-1.00613403,0.183105,0.000000,-0.122070
3948013625,0.00263977,0.00210571,-1.00669861,0.305176,0.061035,-0.122070
3953027916,0.00209045,0.00175476,-1.00628662,0.183105,0.000000,-0.122070
3958028708,0.00196838,0.00198364,-1.00576782,0.305176,-0.061035,-0.061035
3963036583,0.00253296,0.00195312,-1.00614929,0.305176,0.061035,0.000000
3968045791,0.00299072,0.00161743,-1.00666809,0.183105,0.000000,-0.061035
3973061583,0.00254822,0.00166321,-1.00645447,0.305176,0.061035,0.061035
3978046708,0.00164795,0.00189209,-1.00611877,0.366211,0.061035,-0.061035
3983043041,0.00119019,0.00186157,-1.00608826,0.244141,0.122070,-0.061035
3988063208,0.00129700,0.00164795,-1.00567627,0.305176,0.183105,0.000000
3993059458,0.00163269,0.00186157,-1.00491333,0.122070,0.122070,-0.122070
3998036166,0.00207520,0.00280762,-1.00489807,0.305176,0.061035,-0.061035
4003085833,0.00241089,0.00395203,-1.00572205,0.305176,0.122070,-0.061035
4008065833,0.00244141,0.00463867,-1.00622559,0.305176,-0.061035,-0.061035
4013053291,0.00219727,0.00453186,-1.00569153,0.244141,0.000000,-0.061035
4018029458,0.00204468,0.00408936,-1.00476074,0.122070,0.122070,-0.061035
4023049500,0.00221252,0.00396729,-1.00466919,0.427246,0.122070,0.061035
4028041291,0.00244141,0.00392151,-1.00521851,0.549316,0.000000,-0.061035
4033065208,0.00262451,0.00369263,-1.00582886,0.549316,0.000000,-0.061035
4038064125,0.00280762,0.00337219,-1.00640869,0.366211,0.000000,-0.061035
4043061875,0.00277710,0.00274658,-1.00645447,0.366211,0.061035,0.000000
4048041791,0.00270081,0.00205994,-1.00604248,0.366211,0.061035,-0.061035
4053090666,0.00268555,0.00167847,-1.00595093,0.305176,0.000000,0.000000
4058030791,0.00254822,0.00155640,-1.00601196,0.244141,0.000000,-0.183105
4063072666,0.00239563,0.00189209,-1.00598145,0.244141,0.122070,0.000000
4068069958,0.00210571,0.00254822,-1.00599670,0.427246,0.000000,-0.061035
4073050208,0.00166321,0.00279236,-1.00575256,0.305176,0.000000,-0.061035
4078049333,0.00134277,0.00234985,-1.00508118,0.366211,0.122070,0.061035
4083087333,0.00099182,0.00173950,-1.00502014,0.244141,0.061035,-0.061035
4088044375,0.00071716,0.00154114,-1.00582886,0.305176,0.061035,-0.244141
4093088875,0.00094604,0.00192261,-1.00653076,0.244141,0.061035,0.000000
4098048250,0.00138855,0.00247192,-1.00613403,0.366211,0.000000,-0.122070
4103090166,0.00167847,0.00294495,-1.00535583,0.305176,0.183105,-0.061035
4108158208,0.00189209,0.00329590,-1.00552368,0.366211,0.061035,-0.122070
4113125958,0.00207520,0.00341797,-1.00627136,0.244141,0.000000,-0.061035
4118076583,0.00244141,0.00315857,-1.00619507,0.244141,0.000000,-0.061035
4123102666,0.00285339,0.00274658,-1.00534058,0.366211,0.061035,0.000000
4128092708,0.00305176,0.00276184,-1.00537109,0.244141,-0.061035,0.000000
4133080541,0.00273132,0.00283813,-1.00669861,0.427246,0.000000,-0.122070
4138073500,0.00228882,0.00262451,-1.00755310,0.244141,0.061035,-0.061035
4143092000,0.00259399,0.00238037,-1.00689697,0.305176,0.000000,-0.061035
4148049541,0.00328064,0.00227356,-1.00576782,0.366211,-0.122070,-0.122070
4153123458,0.00344849,0.00231934,-1.00555420,0.366211,0.122070,-0.061035
4158097708,0.00276184,0.00234985,-1.00608826,0.366211,0.061035,-0.183105
4163084125,0.00190735,0.00239563,-1.00625610,0.244141,0.061035,0.000000
4168073291,0.00169373,0.00273132,-1.00582886,0.244141,0.000000,-0.122070
4173116333,0.00170898,0.00296021,-1.00569153,0.305176,0.000000,0.000000
4178100458,0.00131226,0.00263977,-1.00605774,0.427246,0.061035,0.000000
4183123333,0.00096130,0.00234985,-1.00608826,0.305176,0.061035,-0.061035
4188110083,0.00111389,0.00279236,-1.00549316,0.305176,-0.122070,-0.061035
4193099041,0.00144958,0.00344849,-1.00511169,0.244141,-0.061035,-0.061035
4198071458,0.00181580,0.00361633,-1.00541687,0.427246,0.000000,-0.061035
4203094500,0.00218201,0.00352478,-1.00570679,0.305176,0.000000,-0.061035
4208097333,0.00222778,0.00361633,-1.00537109,0.305176,0.061035,-0.061035
4213084666,0.00215149,0.00369263,-1.00517273,0.366211,0.183105,0.061035
4218076166,0.00218201,0.00370789,-1.00585938,0.488281,0.122070,0.061035
4223107791,0.00234985,0.00381470,-1.00643921,0.305176,0.061035,-0.244141
4228112916,0.00259399,0.00381470,-1.00607300,0.305176,0.122070,-0.244141
4233090375,0.00248718,0.00346375,-1.00546265,0.061035,0.000000,-0.061035
4238118583,0.00209045,0.00274658,-1.00531006,0.305176,0.061035,-0.061035
4243093000,0.00187683,0.00199890,-1.00559998,0.488281,0.061035,-0.061035
4248098000,0.00189209,0.00189209,-1.00576782,0.366211,0.122070,-0.122070
4253125791,0.00192261,0.00239563,-1.00535583,0.183105,0.122070,-0.061035
4258148666,0.00177002,0.00262451,-1.00497437,0.244141,0.061035,0.000000
4263149583,0.00170898,0.00231934,-1.00566101,0.244141,0.000000,0.061035
4268122208,0.00204468,0.00209045,-1.00666809,0.244141,0.061035,0.000000
4273097458,0.00218201,0.00204468,-1.00648499,0.305176,0.000000,-0.061035
4278090625,0.00146484,0.00225830,-1.00553894,0.122070,-0.061035,-0.122070
4283129125,0.00085449,0.00273132,-1.00546265,0.183105,0.061035,-0.061035
4288154166,0.00164795,0.00300598,-1.00637817,0.305176,-0.061035,-0.061035
4293143250,0.00289917,0.00280762,-1.00659180,0.305176,0.000000,0.000000
4298092750,0.00328064,0.00254822,-1.00556946,0.305176,-0.061035,-0.061035
4303107958,0.00317383,0.00262451,-1.00498962,0.305176,0.122070,0.000000
4308093833,0.00302124,0.00279236,-1.00563049,0.488281,0.000000,-0.061035
4313117833,0.00241089,0.00285339,-1.00617981,0.427246,0.061035,0.000000
4318109375,0.00172424,0.00294495,-1.00570679,0.366211,0.244141,0.061035
4323108208,0.00172424,0.00299072,-1.00544739,0.305176,0.061035,-0.122070
4328133833,0.00221252,0.00300598,-1.00628662,0.488281,0.122070,-0.061035
4333120750,0.00270081,0.00326538,-1.00698853,0.488281,0.061035,0.000000
4338102666,0.00314331,0.00358582,-1.00654602,0.305176,0.000000,-0.061035
4343093291,0.00332642,0.00332642,-1.00576782,0.366211,0.061035,-0.061035
4348095125,0.00300598,0.00270081,-1.00602722,0.244141,0.000000,0.000000
4353156000,0.00242615,0.00248718,-1.00682068,0.305176,0.000000,-0.183105
4358144916,0.00198364,0.00286865,-1.00666809,0.366211,0.000000,-0.061035
4363132958,0.00222778,0.00332642,-1.00579834,0.366211,0.122070,-0.061035
4368119416,0.00300598,0.00334167,-1.00547791,0.122070,0.061035,-0.122070
4373153208,0.00346375,0.00306702,-1.00611877,0.183105,0.061035,-0.122070
4378138000,0.00326538,0.00288391,-1.00689697,0.244141,-0.061035,-0.061035
4383156958,0.00262451,0.00292969,-1.00669861,0.305176,0.061035,-0.183105
4388121333,0.00205994,0.00312805,-1.00595093,0.427246,0.061035,-0.061035
4393137500,0.00189209,0.00305176,-1.00599670,0.366211,0.061035,-0.183105
4398115000,0.00186157,0.00265503,-1.00662231,0.366211,0.061035,-0.122070
4403161291,0.00164795,0.00239563,-1.00688171,0.305176,0.061035,0.000000
4408146750,0.00129700,0.00248718,-1.00639343,0.366211,-0.061035,0.000000
4413164791,0.00088501,0.00257874,-1.00587463,0.244141,0.000000,-0.061035
4418215958,0.00061035,0.00230408,-1.00595093,0.183105,0.000000,-0.183105
4423155250,0.00082397,0.00186157,-1.00588989,0.488281,0.000000,0.000000
4428161750,0.00131226,0.00190735,-1.00488281,0.366211,0.183105,-0.061035
4433176791,0.00157166,0.00247192,-1.00416565,0.244141,0.061035,-0.122070
4438156458,0.00170898,0.00270081,-1.00505066,0.305176,0.122070,-0.122070
4443153416,0.00189209,0.00254822,-1.00639343,0.366211,0.000000,-0.061035
4448125333,0.00209045,0.00282288,-1.00665283,0.366211,0.183105,0.061035
4453136250,0.00253296,0.00323486,-1.00619507,0.427246,0.122070,0.061035
4458157666,0.00283813,0.00296021,-1.00625610,0.427246,0.122070,-0.061035
4463150791,0.00259399,0.00225830,-1.00691223,0.305176,0.122070,-0.061035
4468161541,0.00236511,0.00186157,-1.00708008,0.366211,0.000000,0.000000
4473174500,0.00274658,0.00196838,-1.00614929,0.244141,0.061035,-0.183105
4478158125,0.00317383,0.00256348,-1.00521851,0.305176,0.000000,0.000000
4483177958,0.00321960,0.00317383,-1.00555420,0.366211,0.061035,-0.061035
4488146083,0.00326538,0.00325012,-1.00634766,0.366211,0.122070,0.061035
4493134583,0.00343323,0.00302124,-1.00599670,0.183105,0.183105,-0.061035
4498155833,0.00366211,0.00308228,-1.00495911,0.427246,0.061035,0.061035
4503141208,0.00350952,0.00367737,-1.00488281,0.427246,0.061035,0.000000
4508145541,0.00254822,0.00422668,-1.00569153,0.488281,0.122070,-0.061035
4513204541,0.00152588,0.00402832,-1.00588989,0.305176,0.000000,-0.122070
4518158791,0.00137329,0.00321960,-1.00535583,0.244141,0.122070,-0.061035
4523250250,0.00175476,0.00277710,-1.00532532,0.244141,-0.061035,-0.061035
4528164833,0.00199890,0.00289917,-1.00578308,0.244141,0.061035,-0.061035
4533163500,0.00187683,0.00271606,-1.00607300,0.305176,0.000000,-0.122070
4538207416,0.00140381,0.00221252,-1.00587463,0.183105,0.122070,-0.122070
4543185541,0.00093079,0.00213623,-1.00553894,0.244141,0.000000,0.000000
4548150416,0.00080872,0.00251770,-1.00578308,0.366211,0.122070,0.000000
4553199500,0.00076294,0.00271606,-1.00642395,0.427246,0.000000,-0.061035
4558193458,0.00094604,0.00270081,-1.00648499,0.305176,0.061035,-0.183105
4563175291,0.00152588,0.00279236,-1.00616455,0.305176,0.183105,0.000000
4568205625,0.00201416,0.00286865,-1.00634766,0.366211,0.122070,0.000000
4573214666,0.00224304,0.00277710,-1.00663757,0.366211,0.122070,-0.061035
4578186333,0.00236511,0.00286865,-1.00616455,0.427246,0.061035,-0.061035
4583178708,0.00239563,0.00320435,-1.00553894,0.305176,0.061035,-0.122070
4588212375,0.00242615,0.00344849,-1.00587463,0.183105,0.000000,0.000000
4593193708,0.00253296,0.00346375,-1.00674438,0.305176,0.122070,-0.122070
4598186666,0.00280762,0.00340271,-1.00674438,0.427246,0.122070,0.000000
4603170875,0.00296021,0.00325012,-1.00579834,0.305176,0.000000,-0.061035
4608197250,0.00271606,0.00289917,-1.00540161,0.244141,0.000000,0.061035
4613217583,0.00207520,0.00241089,-1.00604248,0.244141,-0.122070,-0.061035
4618171041,0.00137329,0.00233459,-1.00653076,0.305176,0.122070,0.000000
4623217208,0.00108337,0.00285339,-1.00617981,0.305176,0.122070,-0.061035
4628199625,0.00138855,0.00328064,-1.00547791,0.427246,0.061035,-0.061035
4633222833,0.00169373,0.00305176,-1.00561523,0.488281,-0.061035,-0.061035
4638200375,0.00177002,0.00253296,-1.00657654,0.366211,0.000000,-0.061035
4643203875,0.00196838,0.00222778,-1.00703430,0.183105,0.000000,0.000000
4648167875,0.00196838,0.00231934,-1.00657654,0.366211,0.061035,0.000000
4653218791,0.00173950,0.00262451,-1.00596619,0.366211,-0.061035,-0.061035
4658240625,0.00183105,0.00273132,-1.00569153,0.488281,0.000000,-0.061035
4663219458,0.00221252,0.00273132,-1.00529480,0.427246,0.000000,0.000000
4668225416,0.00231934,0.00265503,-1.00459290,0.366211,-0.061035,-0.061035
4673214125,0.00190735,0.00256348,-1.00466919,0.366211,0.000000,-0.122070
4678264708,0.00151062,0.00288391,-1.00587463,0.366211,0.000000,-0.122070
4683201541,0.00163269,0.00325012,-1.00679016,0.183105,0.122070,-0.122070
4688225083,0.00221252,0.00317383,-1.00680542,0.366211,0.000000,-0.061035
4693222541,0.00250244,0.00303650,-1.00666809,0.427246,0.061035,-0.122070
4698187166,0.00238037,0.00318909,-1.00663757,0.366211,0.122070,-0.061035
4703236250,0.00245667,0.00334167,-1.00578308,0.366211,0.061035,-0.122070
4708176083,0.00274658,0.00315857,-1.00437927,0.366211,0.122070,-0.061035
4713210291,0.00277710,0.00288391,-1.00427246,0.427246,0.061035,0.061035
4718196083,0.00262451,0.00280762,-1.00534058,0.305176,0.000000,-0.122070
4723220791,0.00268555,0.00286865,-1.00619507,0.244141,0.061035,0.000000
4728240041,0.00254822,0.00309753,-1.00660706,0.305176,0.000000,0.000000
4733200625,0.00193787,0.00326538,-1.00660706,0.366211,0.061035,-0.061035
4738219666,0.00143433,0.00303650,-1.00628662,0.366211,0.122070,-0.183105
4743222625,0.00144958,0.00254822,-1.00616455,0.244141,0.122070,-0.122070
4748187875,0.00189209,0.00216675,-1.00608826,0.305176,0.061035,-0.122070
4753217708,0.00216675,0.00216675,-1.00579834,0.244141,0.000000,-0.183105
4758188458,0.00187683,0.00234985,-1.00587463,0.305176,-0.061035,-0.122070
4763207541,0.00163269,0.00244141,-1.00636292,0.305176,0.061035,-0.122070
4768226791,0.00187683,0.00254822,-1.00608826,0.244141,0.061035,-0.061035
4773253625,0.00212097,0.00250244,-1.00540161,0.366211,0.061035,-0.061035
4778237333,0.00187683,0.00219727,-1.00555420,0.427246,0.000000,-0.061035
4783230583,0.00148010,0.00212097,-1.00625610,0.244141,0.061035,0.000000
4788239666,0.00175476,0.00241089,-1.00671387,0.305176,0.122070,0.000000
4793233541,0.00245667,0.00257874,-1.00642395,0.305176,0.061035,-0.061035
4798273625,0.00259399,0.00251770,-1.00567627,0.427246,0.061035,-0.122070
4803235541,0.00219727,0.00251770,-1.00553894,0.183105,0.000000,-0.122070
4808241208,0.00198364,0.00279236,-1.00604248,0.244141,0.061035,-0.122070
4813204458,0.00219727,0.00318909,-1.00616455,0.366211,0.000000,-0.061035
4818220333,0.00234985,0.00343323,-1.00585938,0.366211,0.122070,-0.183105
4823218041,0.00228882,0.00340271,-1.00607300,0.305176,0.061035,-0.122070
4828310583,0.00218201,0.00314331,-1.00650024,0.244141,-0.061035,-0.122070
4833308250,0.00193787,0.00277710,-1.00616455,0.305176,0.000000,-0.061035
4838208666,0.00166321,0.00248718,-1.00550842,0.244141,0.000000,-0.061035
4843233458,0.00167847,0.00234985,-1.00550842,0.366211,0.000000,-0.122070
4848242625,0.00184631,0.00219727,-1.00605774,0.305176,-0.061035,-0.122070
4853305125,0.00189209,0.00204468,-1.00628662,0.305176,0.061035,0.000000
4858342833,0.00201416,0.00204468,-1.00566101,0.183105,0.000000,-0.061035
4863346458,0.00192261,0.00189209,-1.00500488,0.244141,-0.061035,-0.061035
4868311666,0.00143433,0.00183105,-1.00531006,0.244141,0.061035,-0.122070
4873250250,0.00111389,0.00215149,-1.00648499,0.305176,-0.061035,-0.061035
4878233833,0.00131226,0.00247192,-1.00721741,0.305176,0.061035,-0.061035
4883278458,0.00177002,0.00260925,-1.00703430,0.366211,0.000000,-0.061035
4888262875,0.00210571,0.00265503,-1.00639343,0.366211,0.122070,-0.183105
4893240375,0.00219727,0.00286865,-1.00608826,0.366211,0.000000,0.000000
4898227166,0.00233459,0.00314331,-1.00617981,0.366211,-0.122070,0.000000
4903253166,0.00248718,0.00312805,-1.00598145,0.122070,0.000000,-0.061035
4908259250,0.00260925,0.00300598,-1.00617981,0.427246,0.000000,0.000000
4913256708,0.00254822,0.00314331,-1.00683594,0.305176,-0.061035,-0.244141
4918247041,0.00193787,0.00332642,-1.00642395,0.427246,0.183105,0.061035
4923272041,0.00119019,0.00318909,-1.00498962,0.305176,0.061035,0.000000
4928252625,0.00106812,0.00296021,-1.00453186,0.366211,0.122070,-0.061035
4933240916,0.00161743,0.00296021,-1.00532532,0.305176,0.122070,0.061035
4938276000,0.00231934,0.00326538,-1.00616455,0.305176,-0.122070,0.000000
4943230416,0.00279236,0.00347900,-1.00633240,0.305176,0.122070,0.122070
4948229666,0.00285339,0.00334167,-1.00592041,0.427246,0.061035,0.000000
4953272541,0.00238037,0.00305176,-1.00579834,0.305176,0.000000,-0.122070
4958281583,0.00180054,0.00306702,-1.00608826,0.305176,0.061035,-0.061035
4963290625,0.00192261,0.00314331,-1.00596619,0.305176,0.061035,0.000000
4968266375,0.00239563,0.00286865,-1.00541687,0.366211,0.061035,-0.061035
4973275916,0.00225830,0.00245667,-1.00553894,0.244141,0.000000,0.061035
4978274458,0.00198364,0.00215149,-1.00648499,0.244141,0.122070,0.000000
4983295750,0.00236511,0.00196838,-1.00698853,0.183105,0.061035,0.000000
4988329083,0.00291443,0.00193787,-1.00605774,0.366211,0.061035,0.000000
4993271708,0.00312805,0.00207520,-1.00442505,0.366211,0.061035,-0.061035
4998273000,0.00286865,0.00213623,-1.00379944,0.549316,0.000000,0.000000
5003304750,0.00228882,0.00224304,-1.00482178,0.244141,-0.061035,-0.061035
5008283125,0.00189209,0.00263977,-1.00567627,0.366211,0.122070,-0.122070
5013281916,0.00167847,0.00302124,-1.00500488,0.427246,0.000000,-0.061035
5018270250,0.00135803,0.00286865,-1.00462341,0.183105,0.061035,0.000000
5023292166,0.00120544,0.00271606,-1.00613403,0.183105,0.122070,-0.061035
5028276625,0.00161743,0.00315857,-1.00765991,0.183105,-0.061035,-0.122070
5033313833,0.00187683,0.00386047,-1.00701904,0.366211,0.000000,0.061035
5038285625,0.00149536,0.00407410,-1.00535583,0.305176,0.000000,-0.061035
5043245416,0.00103760,0.00363159,-1.00532532,0.183105,0.122070,0.061035
5048258875,0.00106812,0.00285339,-1.00662231,0.305176,0.122070,0.061035
5053294000,0.00135803,0.00236511,-1.00718689,0.305176,0.000000,-0.061035
5058320500,0.00151062,0.00231934,-1.00682068,0.122070,0.000000,-0.061035
5063283458,0.00146484,0.00250244,-1.00682068,0.305176,0.061035,0.000000
5068277000,0.00125122,0.00283813,-1.00738525,0.244141,0.000000,-0.122070
5073337833,0.00094604,0.00317383,-1.00733948,0.305176,0.000000,-0.061035
5078319916,0.00088501,0.00317383,-1.00636292,0.427246,0.000000,-0.061035
5083317541,0.00151062,0.00273132,-1.00559998,0.366211,0.000000,-0.122070
5088277250,0.00247192,0.00234985,-1.00587463,0.244141,0.122070,-0.061035
5093294958,0.00300598,0.00231934,-1.00639343,0.244141,0.122070,0.000000
5098270208,0.00299072,0.00245667,-1.00614929,0.366211,0.122070,-0.122070
5103284291,0.00257874,0.00256348,-1.00587463,0.366211,0.122070,-0.122070
5108261500,0.00209045,0.00239563,-1.00648499,0.122070,0.122070,-0.061035
5113316416,0.00187683,0.00210571,-1.00729370,0.244141,0.122070,-0.061035
5118285833,0.00190735,0.00216675,-1.00689697,0.305176,0.061035,-0.122070
5123356291,0.00207520,0.00251770,-1.00558472,0.488281,0.122070,0.000000
5128305833,0.00216675,0.00280762,-1.00502014,0.183105,0.061035,-0.061035
5133287916,0.00173950,0.00271606,-1.00561523,0.244141,0.122070,0.000000
5138347750,0.00099182,0.00253296,-1.00611877,0.183105,0.061035,0.000000
5143374791,0.00086975,0.00262451,-1.00564575,0.183105,0.000000,-0.122070
5148276208,0.00163269,0.00262451,-1.00527954,0.244141,0.061035,-0.183105
5153314875,0.00238037,0.00227356,-1.00599670,0.305176,0.122070,-0.061035
5158285791,0.00257874,0.00193787,-1.00659180,0.244141,0.122070,-0.122070
5163318083,0.00248718,0.00187683,-1.00601196,0.305176,-0.061035,-0.183105
5168305833,0.00230408,0.00205994,-1.00497437,0.366211,0.183105,-0.061035
5173296083,0.00196838,0.00233459,-1.00492859,0.305176,0.122070,-0.122070
5178322833,0.00173950,0.00248718,-1.00582886,0.183105,-0.061035,0.000000
5183328000,0.00183105,0.00263977,-1.00610352,0.427246,0.000000,0.000000
5188328083,0.00209045,0.00302124,-1.00547791,0.305176,0.000000,0.061035
5193324541,0.00230408,0.00337219,-1.00517273,0.305176,0.061035,0.000000
5198281125,0.00224304,0.00347900,-1.00576782,0.244141,0.000000,-0.122070
5203346500,0.00227356,0.00343323,-1.00660706,0.488281,0.000000,0.061035
5208330250,0.00259399,0.00331116,-1.00639343,0.427246,0.061035,-0.061035
5213349375,0.00244141,0.00306702,-1.00558472,0.305176,0.183105,0.000000
5218291458,0.00175476,0.00289917,-1.00566101,0.305176,0.000000,-0.183105
5223334500,0.00132751,0.00285339,-1.00621033,0.366211,-0.061035,-0.122070
5228320750,0.00146484,0.00268555,-1.00588989,0.305176,0.000000,-0.183105
5233308625,0.00198364,0.00230408,-1.00531006,0.244141,0.183105,-0.061035
5238330583,0.00236511,0.00210571,-1.00546265,0.427246,0.061035,-0.061035
5243328250,0.00225830,0.00222778,-1.00604248,0.183105,-0.061035,0.000000
5248350083,0.00187683,0.00224304,-1.00616455,0.244141,0.061035,-0.061035
5253339958,0.00141907,0.00204468,-1.00578308,0.488281,0.122070,0.061035
5258342875,0.00115967,0.00201416,-1.00570679,0.244141,0.000000,-0.061035
5263343041,0.00144958,0.00219727,-1.00639343,0.488281,0.061035,0.000000
5268347958,0.00207520,0.00254822,-1.00671387,0.305176,0.122070,-0.183105
5273367333,0.00245667,0.00276184,-1.00575256,0.366211,0.061035,0.000000
5278339041,0.00248718,0.00296021,-1.00476074,0.305176,0.122070,-0.122070
5283325375,0.00253296,0.00326538,-1.00520325,0.305176,0.061035,-0.122070
5288377333,0.00285339,0.00340271,-1.00642395,0.244141,0.000000,-0.122070
5293337333,0.00273132,0.00315857,-1.00686646,0.305176,0.061035,-0.061035
5298452291,0.00221252,0.00280762,-1.00642395,0.427246,0.061035,0.000000
5303357041,0.00215149,0.00283813,-1.00610352,0.366211,0.244141,0.000000
5308309916,0.00253296,0.00317383,-1.00608826,0.305176,0.061035,-0.122070
5313352500,0.00265503,0.00315857,-1.00590515,0.366211,0.183105,-0.061035
5318323708,0.00250244,0.00285339,-1.00546265,0.366211,0.122070,0.000000
5323359833,0.00239563,0.00288391,-1.00512695,0.305176,0.061035,0.000000
5328324500,0.00218201,0.00303650,-1.00552368,0.366211,0.000000,0.000000
5333366458,0.00163269,0.00309753,-1.00614929,0.183105,0.122070,-0.061035
5338349291,0.00126648,0.00317383,-1.00569153,0.244141,0.122070,0.000000
5343311125,0.00134277,0.00299072,-1.00489807,0.244141,0.122070,-0.122070
5348349500,0.00146484,0.00263977,-1.00502014,0.366211,0.061035,-0.061035
5353369791,0.00126648,0.00250244,-1.00584412,0.305176,0.000000,-0.183105
5358377250,0.00091553,0.00231934,-1.00613403,0.305176,0.000000,-0.183105
5363308541,0.00099182,0.00204468,-1.00558472,0.244141,0.061035,0.061035
5368347458,0.00154114,0.00202942,-1.00538635,0.244141,0.000000,-0.061035
5373351583,0.00196838,0.00228882,-1.00604248,0.244141,0.061035,-0.244141
5378327791,0.00189209,0.00247192,-1.00633240,0.366211,0.000000,0.000000
5383348416,0.00155640,0.00259399,-1.00581360,0.366211,0.000000,-0.061035
5388367000,0.00122070,0.00296021,-1.00535583,0.366211,0.061035,0.000000
5393343708,0.00114441,0.00340271,-1.00556946,0.305176,0.061035,-0.122070
5398336000,0.00151062,0.00366211,-1.00607300,0.427246,0.122070,-0.122070
5403431000,0.00190735,0.00354004,-1.00601196,0.305176,0.000000,-0.061035
5408387791,0.00204468,0.00317383,-1.00543213,0.427246,0.061035,-0.061035
5413368125,0.00222778,0.00309753,-1.00517273,0.366211,0.122070,0.000000
5418353958,0.00277710,0.00344849,-1.00527954,0.305176,0.061035,0.000000
5423381041,0.00314331,0.00354004,-1.00532532,0.244141,0.000000,-0.061035
5428355625,0.00283813,0.00303650,-1.00524902,0.183105,0.000000,-0.061035
5433395666,0.00262451,0.00253296,-1.00555420,0.366211,0.061035,-0.122070
5438388541,0.00274658,0.00257874,-1.00617981,0.366211,0.061035,-0.061035
5443371666,0.00251770,0.00296021,-1.00651550,0.366211,-0.061035,-0.122070
5448336458,0.00175476,0.00282288,-1.00622559,0.366211,-0.061035,0.061035
5453407958,0.00106812,0.00224304,-1.00575256,0.366211,0.000000,-0.061035
5458395708,0.00083923,0.00201416,-1.00559998,0.366211,-0.061035,0.061035
5463385041,0.00083923,0.00244141,-1.00564575,0.305176,0.122070,-0.061035
5468358833,0.00105286,0.00305176,-1.00564575,0.305176,0.000000,-0.061035
5473363500,0.00152588,0.00321960,-1.00576782,0.305176,0.000000,-0.183105
5478393958,0.00172424,0.00303650,-1.00593567,0.183105,0.061035,-0.183105
5483395541,0.00180054,0.00302124,-1.00611877,0.305176,0.061035,-0.061035
5488393750,0.00241089,0.00309753,-1.00605774,0.488281,0.000000,-0.122070
5493402791,0.00305176,0.00285339,-1.00552368,0.305176,0.061035,-0.061035
5498352708,0.00262451,0.00250244,-1.00515747,0.244141,0.061035,-0.061035
5503346666,0.00180054,0.00245667,-1.00541687,0.366211,0.061035,-0.122070
5508347708,0.00172424,0.00282288,-1.00592041,0.549316,0.183105,0.061035
5513362958,0.00228882,0.00326538,-1.00621033,0.244141,-0.061035,-0.183105
5518380708,0.00260925,0.00346375,-1.00614929,0.244141,0.122070,0.061035
5523373750,0.00253296,0.00335693,-1.00630188,0.305176,0.000000,-0.122070
5528420375,0.00238037,0.00311279,-1.00682068,0.183105,0.061035,-0.061035
5533402666,0.00199890,0.00308228,-1.00666809,0.427246,0.061035,-0.122070
5538409041,0.00143433,0.00314331,-1.00570679,0.244141,0.061035,-0.061035
5543415666,0.00187683,0.00276184,-1.00534058,0.366211,0.061035,-0.061035
5548354875,0.00308228,0.00216675,-1.00610352,0.305176,0.122070,0.000000
5553399583,0.00331116,0.00199890,-1.00677490,0.366211,0.122070,-0.061035
5558464166,0.00236511,0.00219727,-1.00631714,0.244141,0.061035,-0.061035
5563549416,0.00149536,0.00219727,-1.00563049,0.183105,0.061035,0.000000
5568430083,0.00141907,0.00202942,-1.00546265,0.244141,-0.061035,0.061035
5573376500,0.00177002,0.00210571,-1.00540161,0.427246,0.000000,0.000000
5578401625,0.00186157,0.00230408,-1.00517273,0.244141,0.061035,-0.183105
5583393291,0.00152588,0.00222778,-1.00514221,0.244141,0.061035,-0.061035
5588414166,0.00122070,0.00213623,-1.00567627,0.244141,0.000000,-0.061035
5593372083,0.00149536,0.00228882,-1.00625610,0.305176,-0.122070,-0.122070
5598481041,0.00192261,0.00259399,-1.00613403,0.183105,0.000000,-0.122070
5603379083,0.00183105,0.00317383,-1.00588989,0.244141,-0.061035,0.000000
5608425375,0.00141907,0.00354004,-1.00630188,0.427246,-0.122070,-0.061035
5613408375,0.00106812,0.00329590,-1.00711060,0.305176,0.061035,0.000000
5618393250,0.00103760,0.00288391,-1.00724792,0.305176,-0.122070,-0.122070
5623398666,0.00143433,0.00277710,-1.00682068,0.305176,0.000000,-0.061035
5628408166,0.00164795,0.00276184,-1.00682068,0.488281,0.000000,0.000000
5633424875,0.00140381,0.00277710,-1.00711060,0.305176,-0.061035,-0.183105
5638407916,0.00149536,0.00289917,-1.00691223,0.305176,0.061035,0.000000
5643414375,0.00225830,0.00297546,-1.00630188,0.366211,0.000000,-0.061035
5648381375,0.00279236,0.00291443,-1.00593567,0.244141,0.000000,-0.183105
5653433916,0.00268555,0.00265503,-1.00622559,0.183105,0.061035,-0.183105
5658431250,0.00244141,0.00221252,-1.00651550,0.122070,0.061035,-0.061035
5663426208,0.00247192,0.00207520,-1.00601196,0.305176,-0.122070,0.061035
5668448000,0.00274658,0.00257874,-1.00552368,0.305176,-0.122070,0.061035
5673403083,0.00285339,0.00300598,-1.00637817,0.244141,-0.061035,0.000000
5678395458,0.00263977,0.00286865,-1.00733948,0.366211,0.000000,0.061035
5683440083,0.00242615,0.00273132,-1.00671387,0.366211,0.061035,0.061035
5688451791,0.00238037,0.00263977,-1.00550842,0.244141,0.244141,0.000000
5693427833,0.00231934,0.00234985,-1.00529480,0.305176,0.000000,0.000000
5698411333,0.00205994,0.00199890,-1.00566101,0.244141,0.061035,0.000000
5703458500,0.00166321,0.00209045,-1.00605774,0.305176,0.000000,0.061035
5708433041,0.00129700,0.00268555,-1.00625610,0.305176,0.183105,0.000000
5713497750,0.00122070,0.00328064,-1.00595093,0.305176,0.061035,-0.061035
5718422666,0.00151062,0.00347900,-1.00534058,0.244141,-0.061035,-0.183105
5723420333,0.00144958,0.00320435,-1.00457764,0.183105,0.061035,-0.061035
5728444375,0.00106812,0.00259399,-1.00399780,0.183105,0.000000,-0.061035
5733441458,0.00129700,0.00195312,-1.00465393,0.183105,0.061035,0.000000
5738438041,0.00187683,0.00190735,-1.00611877,0.427246,0.061035,-0.061035
5743443750,0.00234985,0.00262451,-1.00694275,0.183105,0.000000,0.061035
5748408958,0.00285339,0.00315857,-1.00679016,0.122070,-0.061035,-0.122070
5753426041,0.00302124,0.00292969,-1.00642395,0.244141,0.061035,0.000000
5758444666,0.00262451,0.00253296,-1.00628662,0.244141,0.122070,-0.183105
5763450875,0.00248718,0.00239563,-1.00614929,0.183105,0.000000,-0.122070
5768415000,0.00292969,0.00209045,-1.00572205,0.244141,0.122070,-0.061035
5773427750,0.00321960,0.00189209,-1.00529480,0.244141,0.061035,-0.061035
5778418500,0.00294495,0.00247192,-1.00558472,0.366211,0.061035,0.000000
5783428458,0.00218201,0.00303650,-1.00662231,0.305176,0.000000,0.000000
5788463166,0.00152588,0.00286865,-1.00703430,0.305176,0.122070,0.000000
5793458708,0.00170898,0.00265503,-1.00642395,0.183105,0.000000,0.000000
5798409750,0.00219727,0.00296021,-1.00564575,0.244141,-0.061035,-0.183105
5803426583,0.00184631,0.00320435,-1.00556946,0.244141,0.000000,-0.122070
5808422041,0.00097656,0.00323486,-1.00617981,0.305176,0.061035,-0.122070
5813449458,0.00080872,0.00338745,-1.00645447,0.488281,0.122070,0.061035
5818552333,0.00119019,0.00344849,-1.00599670,0.366211,0.061035,0.000000
5823446875,0.00119019,0.00305176,-1.00599670,0.305176,-0.061035,-0.122070
5828424500,0.00082397,0.00251770,-1.00697327,0.366211,0.061035,0.000000
5833433166,0.00102234,0.00213623,-1.00737000,0.366211,0.061035,-0.183105
5838444833,0.00158691,0.00195312,-1.00599670,0.305176,0.122070,-0.061035
5843425083,0.00155640,0.00190735,-1.00442505,0.305176,0.000000,0.000000
5848428958,0.00106812,0.00193787,-1.00460815,0.427246,0.061035,-0.061035
5853497291,0.00083923,0.00195312,-1.00572205,0.244141,0.000000,-0.122070
5858458041,0.00090027,0.00195312,-1.00604248,0.305176,0.000000,0.000000
5863495041,0.00108337,0.00196838,-1.00576782,0.183105,-0.061035,-0.061035
5868459708,0.00154114,0.00224304,-1.00613403,0.244141,-0.061035,0.061035
5873498291,0.00228882,0.00274658,-1.00709534,0.366211,0.000000,0.122070
5878444000,0.00271606,0.00311279,-1.00709534,0.305176,0.000000,0.000000
5883523375,0.00260925,0.00292969,-1.00566101,0.366211,0.061035,0.000000
5888510208,0.00233459,0.00254822,-1.00433350,0.244141,0.061035,-0.061035
5893463208,0.00212097,0.00250244,-1.00469971,0.244141,0.122070,-0.061035
5898530958,0.00218201,0.00245667,-1.00607300,0.244141,0.061035,0.000000
5903550375,0.00228882,0.00209045,-1.00651550,0.305176,0.061035,-0.122070
5908499416,0.00205994,0.00192261,-1.00584412,0.305176,0.000000,-0.061035
5913507041,0.00175476,0.00242615,-1.00593567,0.305176,0.000000,-0.122070
5918484791,0.00163269,0.00312805,-1.00691223,0.305176,-0.061035,-0.122070
5923488000,0.00154114,0.00331116,-1.00679016,0.244141,-0.061035,0.000000
5928510791,0.00144958,0.00286865,-1.00549316,0.427246,0.000000,-0.122070
5933512333,0.00134277,0.00260925,-1.00514221,0.305176,0.000000,-0.061035
5938502375,0.00114441,0.00277710,-1.00592041,0.366211,-0.061035,-0.122070
5943508791,0.00119019,0.00306702,-1.00587463,0.366211,0.061035,0.000000
5948584166,0.00166321,0.00311279,-1.00489807,0.366211,0.061035,-0.061035
5953487541,0.00239563,0.00245667,-1.00485229,0.305176,0.061035,-0.061035
5958473458,0.00283813,0.00170898,-1.00593567,0.366211,0.122070,-0.122070
5963480791,0.00257874,0.00167847,-1.00675964,0.305176,0.061035,-0.061035
5968490291,0.00193787,0.00224304,-1.00651550,0.427246,0.061035,-0.061035
5973575458,0.00186157,0.00288391,-1.00581360,0.244141,0.061035,-0.122070
5978456541,0.00257874,0.00331116,-1.00578308,0.244141,0.061035,-0.122070
5983495083,0.00320435,0.00318909,-1.00654602,0.305176,0.061035,0.000000
5988560958,0.00312805,0.00254822,-1.00674438,0.305176,0.000000,0.000000
5993503250,0.00297546,0.00195312,-1.00566101,0.244141,0.061035,-0.061035
5998584500,0.00308228,0.00180054,-1.00480652,0.427246,0.122070,-0.061035
6003612875,0.00289917,0.00227356,-1.00575256,0.183105,0.122070,0.000000
6008497625,0.00253296,0.00309753,-1.00711060,0.244141,0.061035,-0.061035
6013497666,0.00244141,0.00325012,-1.00703430,0.488281,0.000000,-0.061035
6018522208,0.00260925,0.00273132,-1.00604248,0.366211,0.061035,0.000000
6023526750,0.00247192,0.00250244,-1.00559998,0.183105,0.183105,0.061035
6028500625,0.00209045,0.00292969,-1.00599670,0.427246,0.000000,0.000000
6033513500,0.00183105,0.00357056,-1.00639343,0.366211,0.061035,-0.122070
6038553958,0.00157166,0.00370789,-1.00617981,0.244141,0.061035,-0.122070
6043502416,0.00111389,0.00323486,-1.00630188,0.183105,0.122070,-0.061035
6048582625,0.00065613,0.00265503,-1.00718689,0.244141,-0.061035,-0.183105
6053565958,0.00065613,0.00256348,-1.00723267,0.427246,-0.061035,-0.122070
6058508333,0.00112915,0.00309753,-1.00595093,0.183105,-0.122070,-0.122070
6063502875,0.00163269,0.00350952,-1.00466919,0.305176,0.122070,-0.122070
6068531958,0.00189209,0.00291443,-1.00445557,0.366211,0.000000,0.000000
6073504833,0.00167847,0.00195312,-1.00491333,0.244141,0.000000,-0.122070
6078508833,0.00103760,0.00198364,-1.00517273,0.305176,-0.122070,0.000000
6083522166,0.00091553,0.00283813,-1.00540161,0.305176,0.061035,-0.183105
6088525541,0.00190735,0.00335693,-1.00587463,0.366211,0.061035,-0.122070
6093500666,0.00308228,0.00299072,-1.00633240,0.244141,-0.122070,-0.122070
6098525541,0.00297546,0.00230408,-1.00663757,0.183105,0.061035,-0.122070
6103524208,0.00213623,0.00202942,-1.00706482,0.366211,0.061035,0.000000
6108712875,0.00215149,0.00224304,-1.00762939,0.244141,0.061035,0.000000
6113495416,0.00302124,0.00245667,-1.00793457,0.366211,0.061035,-0.061035
6118543583,0.00341797,0.00250244,-1.00729370,0.305176,0.061035,0.000000
6123560666,0.00285339,0.00263977,-1.00595093,0.305176,-0.061035,-0.061035
6128570833,0.00224304,0.00291443,-1.00511169,0.366211,0.122070,-0.061035
6133553791,0.00230408,0.00321960,-1.00544739,0.427246,0.122070,-0.122070
6138539958,0.00248718,0.00338745,-1.00619507,0.366211,0.000000,-0.122070
6143524500,0.00215149,0.00325012,-1.00640869,0.183105,0.122070,0.000000
6148510250,0.00163269,0.00292969,-1.00610352,0.366211,0.061035,0.000000
6153555625,0.00148010,0.00254822,-1.00584412,0.305176,0.000000,0.000000
6158519666,0.00151062,0.00221252,-1.00587463,0.366211,0.000000,0.000000
6163503250,0.00146484,0.00227356,-1.00636292,0.305176,0.000000,-0.061035
6168614375,0.00128174,0.00267029,-1.00704956,0.183105,0.000000,-0.061035
6173533458,0.00122070,0.00277710,-1.00709534,0.183105,0.061035,0.061035
6178547208,0.00141907,0.00233459,-1.00640869,0.366211,0.000000,-0.061035
6183549583,0.00187683,0.00207520,-1.00584412,0.305176,0.000000,-0.061035
6188547083,0.00216675,0.00244141,-1.00584412,0.305176,0.061035,-0.061035
6193547083,0.00189209,0.00289917,-1.00621033,0.244141,0.061035,0.000000
6198543666,0.00148010,0.00302124,-1.00648499,0.305176,0.061035,0.000000
6203520541,0.00160217,0.00294495,-1.00634766,0.305176,0.000000,-0.183105
6208566125,0.00212097,0.00289917,-1.00578308,0.427246,0.000000,-0.061035
6213521083,0.00236511,0.00291443,-1.00540161,0.366211,0.061035,-0.122070
6218583208,0.00213623,0.00296021,-1.00567627,0.305176,0.061035,-0.061035
6223550583,0.00189209,0.00299072,-1.00616455,0.366211,0.061035,0.000000
6228529291,0.00169373,0.00276184,-1.00616455,0.305176,0.122070,-0.122070
6233564500,0.00177002,0.00274658,-1.00593567,0.366211,0.061035,-0.061035
6238563250,0.00202942,0.00343323,-1.00581360,0.244141,0.122070,0.061035
6243566500,0.00184631,0.00416565,-1.00570679,0.183105,0.061035,0.000000
6248652416,0.00148010,0.00402832,-1.00552368,0.244141,0.000000,-0.061035
6253544458,0.00175476,0.00332642,-1.00556946,0.366211,0.061035,0.000000
6258531041,0.00228882,0.00302124,-1.00590515,0.366211,0.000000,0.061035
6263552416,0.00247192,0.00286865,-1.00607300,0.244141,-0.122070,-0.122070
6268529083,0.00230408,0.00224304,-1.00590515,0.366211,0.061035,0.000000
6273541875,0.00202942,0.00172424,-1.00570679,0.366211,0.000000,-0.122070
6278542083,0.00190735,0.00189209,-1.00573730,0.183105,-0.061035,-0.122070
6283610291,0.00177002,0.00216675,-1.00610352,0.305176,0.122070,-0.061035
6288642666,0.00135803,0.00207520,-1.00631714,0.305176,0.061035,-0.061035
6293551583,0.00114441,0.00227356,-1.00607300,0.244141,0.061035,-0.061035
6298535750,0.00154114,0.00265503,-1.00613403,0.366211,0.061035,-0.122070
6303549541,0.00230408,0.00267029,-1.00675964,0.122070,0.000000,-0.122070
6308535583,0.00276184,0.00254822,-1.00671387,0.183105,0.061035,-0.061035
6313546625,0.00250244,0.00288391,-1.00567627,0.244141,0.061035,-0.122070
6318549958,0.00201416,0.00372314,-1.00508118,0.366211,0.061035,-0.061035
6323536833,0.00175476,0.00433350,-1.00576782,0.244141,-0.061035,-0.061035
6328524958,0.00160217,0.00407410,-1.00685120,0.183105,0.000000,-0.183105
6333536083,0.00173950,0.00338745,-1.00682068,0.427246,0.122070,-0.122070
6338547166,0.00205994,0.00315857,-1.00605774,0.244141,0.061035,-0.061035
6343552541,0.00196838,0.00337219,-1.00633240,0.305176,0.122070,-0.061035
6348537666,0.00183105,0.00340271,-1.00755310,0.305176,0.061035,-0.122070
6353580000,0.00238037,0.00277710,-1.00788879,0.305176,0.061035,-0.061035
6358558250,0.00306702,0.00205994,-1.00689697,0.366211,0.000000,0.000000
6363531458,0.00288391,0.00199890,-1.00611877,0.305176,0.122070,0.000000
6368566166,0.00245667,0.00241089,-1.00642395,0.244141,0.244141,-0.061035
6373564458,0.00273132,0.00242615,-1.00700378,0.366211,0.122070,-0.061035
6378534500,0.00291443,0.00207520,-1.00634766,0.366211,0.122070,0.000000
6383581458,0.00239563,0.00193787,-1.00512695,0.305176,0.061035,0.000000
6388634291,0.00178528,0.00215149,-1.00521851,0.244141,0.061035,0.061035
6393579041,0.00164795,0.00242615,-1.00613403,0.366211,-0.061035,-0.183105
6398570458,0.00149536,0.00263977,-1.00605774,0.183105,0.061035,-0.061035
6403591250,0.00115967,0.00292969,-1.00506592,0.244141,0.000000,-0.061035
6408586125,0.00111389,0.00326538,-1.00480652,0.305176,0.000000,0.061035
6413569750,0.00131226,0.00344849,-1.00588989,0.366211,0.061035,0.061035
6418570333,0.00120544,0.00340271,-1.00662231,0.305176,0.000000,-0.122070
6423574708,0.00085449,0.00314331,-1.00625610,0.366211,0.122070,-0.061035
6428538083,0.00103760,0.00297546,-1.00590515,0.183105,0.000000,-0.061035
6433566291,0.00160217,0.00315857,-1.00648499,0.305176,0.000000,-0.061035
6438568041,0.00166321,0.00358582,-1.00708008,0.366211,0.000000,-0.122070
6443572208,0.00157166,0.00389099,-1.00679016,0.244141,0.000000,-0.122070
6448546166,0.00190735,0.00401306,-1.00596619,0.244141,0.000000,-0.183105
6453591375,0.00204468,0.00407410,-1.00559998,0.366211,0.122070,-0.061035
6458577333,0.00196838,0.00370789,-1.00564575,0.122070,0.061035,-0.122070
6463555916,0.00204468,0.00254822,-1.00576782,0.427246,-0.061035,-0.122070
6468608625,0.00180054,0.00125122,-1.00590515,0.366211,0.061035,-0.122070
6473567125,0.00134277,0.00067139,-1.00631714,0.366211,0.183105,-0.122070
6478575291,0.00144958,0.00090027,-1.00715637,0.427246,0.000000,-0.061035
6483611916,0.00207520,0.00134277,-1.00750732,0.366211,0.000000,-0.061035
6488578083,0.00271606,0.00148010,-1.00656128,0.305176,-0.061035,0.000000
6493623458,0.00285339,0.00148010,-1.00541687,0.183105,-0.061035,-0.061035
6498593000,0.00257874,0.00193787,-1.00559998,0.305176,0.061035,0.061035
6503622958,0.00213623,0.00285339,-1.00627136,0.427246,0.122070,0.061035
6508580500,0.00154114,0.00363159,-1.00592041,0.305176,0.000000,-0.183105
6513590708,0.00117493,0.00375366,-1.00512695,0.244141,0.000000,-0.061035
6518611541,0.00158691,0.00349426,-1.00512695,0.244141,0.061035,-0.183105
6523580416,0.00227356,0.00331116,-1.00596619,0.244141,0.122070,-0.061035
6528591750,0.00210571,0.00311279,-1.00637817,0.305176,0.061035,-0.061035
6533627458,0.00144958,0.00294495,-1.00570679,0.366211,0.000000,-0.122070
6538598875,0.00137329,0.00297546,-1.00524902,0.305176,0.061035,-0.061035
6543601208,0.00181580,0.00312805,-1.00633240,0.427246,0.061035,0.000000
6548607791,0.00227356,0.00300598,-1.00761414,0.305176,0.000000,0.061035
6553591583,0.00238037,0.00288391,-1.00723267,0.427246,0.000000,-0.122070
6558597333,0.00215149,0.00309753,-1.00601196,0.427246,0.122070,-0.061035
6563610541,0.00195312,0.00326538,-1.00576782,0.244141,-0.061035,-0.061035
6568622791,0.00209045,0.00283813,-1.00640869,0.366211,0.000000,-0.061035
6573600458,0.00222778,0.00205994,-1.00663757,0.244141,-0.061035,0.000000
6578620041,0.00212097,0.00177002,-1.00604248,0.427246,0.061035,0.000000
6583609708,0.00218201,0.00228882,-1.00587463,0.366211,0.000000,-0.061035
6588625125,0.00239563,0.00268555,-1.00672913,0.366211,0.122070,-0.183105
6593603083,0.00215149,0.00225830,-1.00717163,0.305176,0.061035,-0.122070
6598616541,0.00172424,0.00161743,-1.00614929,0.366211,0.000000,-0.061035
6603626291,0.00187683,0.00164795,-1.00492859,0.427246,0.000000,0.000000
6608592583,0.00254822,0.00244141,-1.00524902,0.244141,0.122070,-0.122070
6613596791,0.00296021,0.00315857,-1.00656128,0.244141,0.000000,-0.183105
6618601083,0.00283813,0.00315857,-1.00680542,0.244141,0.000000,0.000000
6623657833,0.00254822,0.00300598,-1.00587463,0.244141,0.061035,-0.244141
6628629916,0.00228882,0.00338745,-1.00575256,0.305176,0.000000,-0.122070
6633616333,0.00222778,0.00387573,-1.00694275,0.183105,-0.122070,-0.122070
6638620958,0.00247192,0.00399780,-1.00727844,0.244141,0.122070,0.000000
6643627458,0.00234985,0.00379944,-1.00614929,0.305176,0.000000,-0.061035
6648677875,0.00181580,0.00321960,-1.00563049,0.183105,0.000000,-0.061035
6653617000,0.00170898,0.00265503,-1.00695801,0.244141,0.122070,-0.061035
6658609750,0.00221252,0.00253296,-1.00822449,0.244141,0.122070,-0.061035
6663642208,0.00254822,0.00247192,-1.00727844,0.427246,0.061035,0.061035
6668629041,0.00233459,0.00257874,-1.00550842,0.305176,0.000000,0.000000
6673639000,0.00228882,0.00300598,-1.00543213,0.366211,0.122070,0.000000
6678628916,0.00265503,0.00299072,-1.00656128,0.305176,0.000000,0.000000
6683637083,0.00280762,0.00253296,-1.00689697,0.244141,-0.061035,-0.122070
6688643000,0.00227356,0.00256348,-1.00584412,0.366211,0.061035,-0.183105
6693652125,0.00170898,0.00273132,-1.00511169,0.183105,0.061035,-0.061035
6698610541,0.00173950,0.00244141,-1.00587463,0.427246,0.122070,-0.122070
6703662916,0.00216675,0.00227356,-1.00657654,0.244141,0.061035,-0.122070
6708633583,0.00280762,0.00257874,-1.00616455,0.427246,0.122070,-0.061035
6713653083,0.00335693,0.00289917,-1.00570679,0.366211,-0.061035,-0.122070
6718646583,0.00312805,0.00279236,-1.00604248,0.122070,0.000000,-0.061035
6723625458,0.00215149,0.00251770,-1.00628662,0.427246,0.061035,0.000000
6728633500,0.00154114,0.00250244,-1.00590515,0.488281,0.000000,-0.183105
6733647166,0.00161743,0.00257874,-1.00582886,0.122070,0.122070,-0.061035
6738655916,0.00152588,0.00231934,-1.00653076,0.183105,0.061035,0.061035
6743640458,0.00097656,0.00209045,-1.00720215,0.244141,0.122070,0.061035
6748623583,0.00085449,0.00245667,-1.00701904,0.305176,0.122070,-0.061035
6753751541,0.00138855,0.00320435,-1.00595093,0.305176,0.122070,-0.122070
6758684333,0.00169373,0.00381470,-1.00502014,0.366211,0.000000,-0.061035
6763649708,0.00135803,0.00399780,-1.00514221,0.427246,-0.061035,0.000000
6768705416,0.00083923,0.00393677,-1.00527954,0.305176,0.000000,0.122070
6773676416,0.00085449,0.00370789,-1.00479126,0.183105,0.061035,0.061035
6778641750,0.00158691,0.00321960,-1.00456238,0.305176,0.000000,-0.122070
6783682833,0.00234985,0.00292969,-1.00505066,0.183105,0.061035,0.000000
6788667833,0.00274658,0.00292969,-1.00573730,0.488281,0.122070,0.000000
6793654333,0.00277710,0.00273132,-1.00584412,0.305176,0.122070,-0.061035
6798720458,0.00256348,0.00245667,-1.00564575,0.427246,0.000000,0.000000
6803639833,0.00241089,0.00241089,-1.00596619,0.305176,0.000000,0.000000
6808674875,0.00248718,0.00250244,-1.00657654,0.305176,-0.061035,-0.061035
6813662208,0.00274658,0.00233459,-1.00668335,0.305176,0.122070,0.061035
6818665875,0.00289917,0.00207520,-1.00628662,0.183105,-0.061035,-0.061035
6823669458,0.00253296,0.00234985,-1.00616455,0.305176,0.000000,-0.122070
6828680166,0.00167847,0.00300598,-1.00650024,0.244141,-0.122070,-0.122070
6833665166,0.00131226,0.00320435,-1.00657654,0.366211,0.061035,-0.061035
6838669000,0.00193787,0.00267029,-1.00616455,0.427246,0.122070,0.061035
6843674500,0.00254822,0.00209045,-1.00584412,0.244141,0.000000,0.122070
6848659125,0.00250244,0.00209045,-1.00579834,0.244141,0.122070,0.061035
6853691416,0.00198364,0.00239563,-1.00585938,0.427246,-0.122070,0.000000
6858639666,0.00151062,0.00277710,-1.00588989,0.305176,0.122070,-0.061035
6863639875,0.00137329,0.00321960,-1.00585938,0.183105,0.000000,0.061035
6868691791,0.00148010,0.00337219,-1.00592041,0.427246,0.061035,0.000000
6873677500,0.00172424,0.00318909,-1.00625610,0.305176,0.061035,-0.183105
6878690833,0.00193787,0.00321960,-1.00617981,0.305176,0.000000,-0.122070
6883668041,0.00198364,0.00338745,-1.00575256,0.244141,-0.061035,-0.122070
6888705458,0.00192261,0.00332642,-1.00608826,0.427246,0.061035,-0.122070
6893709541,0.00201416,0.00308228,-1.00683594,0.244141,0.000000,-0.244141
6898675208,0.00221252,0.00321960,-1.00688171,0.305176,0.122070,0.000000
6903650791,0.00230408,0.00384521,-1.00648499,0.427246,0.000000,-0.061035
6908719708,0.00262451,0.00405884,-1.00627136,0.427246,0.061035,0.000000
6913694875,0.00286865,0.00360107,-1.00611877,0.244141,0.122070,-0.061035
6918726000,0.00257874,0.00302124,-1.00575256,0.244141,0.061035,-0.122070
6923697875,0.00245667,0.00256348,-1.00561523,0.183105,0.000000,-0.183105
6928707291,0.00277710,0.00202942,-1.00588989,0.305176,-0.061035,-0.122070
6933675625,0.00297546,0.00163269,-1.00579834,0.305176,0.122070,-0.061035
6938700333,0.00268555,0.00169373,-1.00520325,0.305176,0.122070,0.000000
6943670666,0.00215149,0.00178528,-1.00535583,0.244141,0.183105,0.061035
6948689750,0.00172424,0.00151062,-1.00628662,0.122070,0.122070,0.061035
6953710500,0.00152588,0.00152588,-1.00654602,0.305176,0.000000,0.000000
6958703125,0.00161743,0.00228882,-1.00573730,0.366211,0.061035,-0.122070
6963710541,0.00187683,0.00302124,-1.00498962,0.305176,0.000000,-0.061035
6968713875,0.00198364,0.00343323,-1.00520325,0.183105,0.000000,-0.183105
6973709708,0.00187683,0.00369263,-1.00593567,0.366211,0.122070,0.000000
6978701500,0.00152588,0.00378418,-1.00608826,0.366211,-0.061035,-0.122070
6983715458,0.00131226,0.00364685,-1.00553894,0.183105,0.061035,-0.122070
6988723291,0.00141907,0.00326538,-1.00514221,0.427246,0.061035,-0.061035
6993701000,0.00172424,0.00303650,-1.00575256,0.366211,0.061035,0.000000
6998692750,0.00195312,0.00320435,-1.00679016,0.366211,0.061035,-0.183105
7003716416,0.00204468,0.00358582,-1.00688171,0.305176,0.061035,-0.061035
7008684666,0.00227356,0.00372314,-1.00581360,0.183105,0.061035,-0.122070
7013695375,0.00283813,0.00354004,-1.00515747,0.305176,0.000000,-0.061035
7018704041,0.00366211,0.00354004,-1.00593567,0.427246,0.000000,-0.061035
7023697791,0.00410461,0.00367737,-1.00691223,0.366211,-0.061035,-0.061035
7028672208,0.00357056,0.00338745,-1.00643921,0.366211,0.061035,-0.061035
7033705333,0.00286865,0.00270081,-1.00503540,0.305176,0.122070,-0.122070
7038683791,0.00318909,0.00207520,-1.00460815,0.366211,0.061035,0.000000
7043685375,0.00382996,0.00178528,-1.00579834,0.488281,0.061035,-0.183105
7048697541,0.00367737,0.00166321,-1.00639343,0.122070,0.000000,-0.183105
7053742583,0.00286865,0.00187683,-1.00561523,0.244141,0.000000,-0.122070
7058732458,0.00202942,0.00250244,-1.00508118,0.305176,0.183105,0.061035
7063728541,0.00137329,0.00306702,-1.00543213,0.244141,0.000000,-0.061035
7068743041,0.00109863,0.00335693,-1.00599670,0.244141,0.061035,-0.061035
7073712750,0.00135803,0.00343323,-1.00650024,0.244141,0.061035,-0.061035
7078689166,0.00183105,0.00337219,-1.00669861,0.183105,0.000000,-0.183105
7083785000,0.00192261,0.00315857,-1.00654602,0.305176,-0.122070,-0.122070
7088798250,0.00164795,0.00318909,-1.00628662,0.305176,0.000000,-0.061035
7093724750,0.00166321,0.00375366,-1.00579834,0.305176,0.000000,-0.061035
7098713291,0.00199890,0.00404358,-1.00518799,0.305176,0.000000,-0.061035
7103721291,0.00201416,0.00349426,-1.00544739,0.183105,-0.061035,-0.122070
7108829125,0.00166321,0.00265503,-1.00631714,0.244141,-0.061035,0.000000
7113817166,0.00146484,0.00202942,-1.00624084,0.244141,0.122070,-0.061035
7118730833,0.00172424,0.00158691,-1.00520325,0.244141,0.183105,0.000000
7123735250,0.00230408,0.00149536,-1.00505066,0.305176,0.183105,-0.183105
7128736375,0.00262451,0.00178528,-1.00601196,0.305176,0.000000,-0.244141
7133726875,0.00257874,0.00222778,-1.00619507,0.549316,0.061035,-0.061035
7138716375,0.00265503,0.00247192,-1.00520325,0.305176,0.061035,-0.061035
7143737333,0.00273132,0.00248718,-1.00465393,0.244141,0.000000,0.000000
7148741125,0.00228882,0.00234985,-1.00527954,0.366211,0.061035,-0.061035
7153767250,0.00169373,0.00221252,-1.00611877,0.305176,0.183105,-0.183105
7158756083,0.00189209,0.00245667,-1.00607300,0.305176,0.061035,-0.061035
7163715916,0.00279236,0.00282288,-1.00537109,0.244141,0.061035,-0.061035
7168748791,0.00312805,0.00285339,-1.00521851,0.366211,0.000000,-0.061035
7173753083,0.00245667,0.00257874,-1.00578308,0.244141,0.061035,-0.183105
7178754750,0.00189209,0.00230408,-1.00585938,0.366211,0.061035,-0.061035
7183767666,0.00195312,0.00207520,-1.00538635,0.305176,0.000000,-0.061035
7188764500,0.00169373,0.00215149,-1.00552368,0.305176,0.061035,-0.122070
7193751750,0.00119019,0.00276184,-1.00622559,0.305176,0.000000,-0.061035
7198773875,0.00132751,0.00325012,-1.00645447,0.244141,0.061035,0.000000
7203748250,0.00184631,0.00296021,-1.00588989,0.244141,-0.061035,-0.122070
7208737541,0.00216675,0.00242615,-1.00534058,0.366211,-0.061035,-0.061035
7213751458,0.00215149,0.00253296,-1.00552368,0.183105,0.061035,-0.061035
7218810791,0.00183105,0.00312805,-1.00604248,0.244141,-0.061035,-0.061035
7223748208,0.00164795,0.00340271,-1.00614929,0.244141,-0.061035,-0.122070
7228768208,0.00195312,0.00315857,-1.00584412,0.305176,0.061035,0.000000
7233740916,0.00262451,0.00285339,-1.00564575,0.244141,0.122070,-0.061035
7238762250,0.00323486,0.00259399,-1.00590515,0.183105,0.061035,-0.122070
7243773083,0.00331116,0.00242615,-1.00593567,0.305176,-0.061035,-0.122070
7248758541,0.00300598,0.00239563,-1.00534058,0.305176,-0.061035,-0.122070
7253783708,0.00256348,0.00242615,-1.00473022,0.427246,0.061035,-0.183105
7258780416,0.00199890,0.00244141,-1.00503540,0.244141,0.122070,-0.061035
7263773541,0.00175476,0.00244141,-1.00624084,0.366211,0.000000,0.000000
7268756708,0.00205994,0.00242615,-1.00663757,0.244141,0.122070,-0.122070
7273783041,0.00231934,0.00244141,-1.00576782,0.183105,0.061035,0.000000
7278776791,0.00201416,0.00251770,-1.00521851,0.366211,0.061035,0.000000
7283777333,0.00143433,0.00276184,-1.00573730,0.305176,-0.122070,-0.061035
7288783208,0.00143433,0.00288391,-1.00634766,0.427246,-0.122070,-0.122070
7293790458,0.00199890,0.00259399,-1.00614929,0.305176,0.000000,0.000000
7298757291,0.00204468,0.00204468,-1.00531006,0.244141,0.122070,-0.122070
7303778083,0.00151062,0.00170898,-1.00502014,0.305176,0.061035,-0.122070
7308773541,0.00129700,0.00193787,-1.00538635,0.427246,0.000000,0.061035
7313793666,0.00161743,0.00236511,-1.00518799,0.427246,0.122070,0.061035
7318779541,0.00184631,0.00239563,-1.00463867,0.366211,0.000000,-0.061035
7323790666,0.00149536,0.00192261,-1.00505066,0.366211,0.061035,0.000000
7328770250,0.00083923,0.00137329,-1.00617981,0.305176,0.122070,-0.122070
7333756166,0.00076294,0.00140381,-1.00665283,0.427246,0.122070,-0.061035
7338776833,0.00140381,0.00205994,-1.00634766,0.305176,0.183105,0.000000
7343791875,0.00198364,0.00274658,-1.00633240,0.305176,0.122070,-0.122070
7348749958,0.00207520,0.00303650,-1.00685120,0.183105,-0.061035,-0.061035
7353808541,0.00196838,0.00318909,-1.00688171,0.305176,0.061035,0.000000
7358799833,0.00192261,0.00326538,-1.00588989,0.366211,0.122070,-0.183105
7363756458,0.00198364,0.00288391,-1.00506592,0.183105,0.122070,-0.122070
7368789083,0.00227356,0.00228882,-1.00521851,0.244141,0.183105,0.000000
7373853500,0.00254822,0.00256348,-1.00575256,0.305176,0.000000,0.000000
7378778041,0.00256348,0.00364685,-1.00592041,0.427246,-0.061035,-0.061035
7383783166,0.00256348,0.00410461,-1.00570679,0.305176,0.000000,-0.061035
7388812916,0.00251770,0.00341797,-1.00592041,0.305176,-0.061035,-0.061035
7393802041,0.00199890,0.00239563,-1.00689697,0.305176,0.000000,-0.061035
7398784750,0.00119019,0.00198364,-1.00735474,0.366211,0.000000,0.000000
7403815916,0.00088501,0.00225830,-1.00646973,0.305176,0.061035,0.061035
7408799208,0.00117493,0.00265503,-1.00558472,0.244141,0.061035,-0.061035
7413796583,0.00143433,0.00245667,-1.00639343,0.244141,0.122070,-0.122070
7418799541,0.00149536,0.00184631,-1.00761414,0.305176,0.000000,-0.122070
7423810041,0.00167847,0.00169373,-1.00715637,0.366211,0.183105,0.000000
7428822541,0.00207520,0.00209045,-1.00579834,0.366211,0.122070,-0.183105
7433810291,0.00228882,0.00239563,-1.00561523,0.305176,0.122070,0.000000
7438816083,0.00221252,0.00225830,-1.00639343,0.427246,0.061035,-0.061035
7443817083,0.00233459,0.00205994,-1.00648499,0.366211,0.061035,-0.122070
7448812791,0.00259399,0.00215149,-1.00553894,0.244141,0.061035,-0.061035
7453830291,0.00257874,0.00222778,-1.00518799,0.244141,0.000000,-0.061035
7458808875,0.00245667,0.00244141,-1.00607300,0.244141,0.061035,-0.183105
7463744041,0.00239563,0.00286865,-1.00663757,0.305176,0.000000,-0.061035
7468860000,0.00227356,0.00297546,-1.00590515,0.305176,-0.061035,0.000000
7473827708,0.00204468,0.00297546,-1.00509644,0.366211,0.000000,-0.122070
7478828833,0.00190735,0.00347900,-1.00552368,0.244141,0.000000,-0.122070
7483804333,0.00190735,0.00386047,-1.00665283,0.305176,0.000000,-0.183105
7488804708,0.00192261,0.00363159,-1.00677490,0.244141,0.061035,0.000000
7493813708,0.00181580,0.00321960,-1.00593567,0.427246,0.061035,0.000000
7498802583,0.00166321,0.00308228,-1.00584412,0.366211,0.122070,0.061035
7503783041,0.00186157,0.00297546,-1.00656128,0.366211,0.000000,-0.122070
7508791291,0.00207520,0.00254822,-1.00651550,0.244141,0.000000,-0.122070
7513809541,0.00189209,0.00244141,-1.00541687,0.427246,0.000000,-0.122070
7518853458,0.00172424,0.00291443,-1.00476074,0.244141,0.061035,-0.061035
7523816000,0.00187683,0.00303650,-1.00550842,0.366211,0.061035,-0.061035
7528798791,0.00225830,0.00245667,-1.00624084,0.305176,0.000000,-0.122070
7533823250,0.00256348,0.00209045,-1.00566101,0.366211,0.000000,-0.122070
7538818541,0.00241089,0.00216675,-1.00485229,0.366211,0.183105,0.122070
7543824541,0.00177002,0.00233459,-1.00518799,0.488281,0.122070,0.000000
7548810500,0.00131226,0.00238037,-1.00599670,0.366211,0.061035,-0.122070
7553836791,0.00122070,0.00239563,-1.00581360,0.305176,0.000000,0.000000
7558818500,0.00129700,0.00274658,-1.00495911,0.305176,0.061035,-0.061035
7563786458,0.00189209,0.00321960,-1.00485229,0.244141,0.061035,-0.122070
7568822875,0.00273132,0.00323486,-1.00567627,0.305176,0.061035,-0.061035
7573809083,0.00320435,0.00299072,-1.00592041,0.366211,0.000000,0.000000
7578791000,0.00344849,0.00288391,-1.00508118,0.305176,0.000000,-0.122070
7583841458,0.00349426,0.00305176,-1.00477600,0.305176,-0.061035,-0.061035
7588846416,0.00312805,0.00347900,-1.00576782,0.244141,0.061035,0.000000
7593820208,0.00244141,0.00386047,-1.00645447,0.366211,0.000000,0.000000
7598841125,0.00201416,0.00379944,-1.00592041,0.366211,-0.061035,-0.061035
7603801666,0.00213623,0.00344849,-1.00524902,0.305176,0.000000,-0.061035
7608805083,0.00221252,0.00314331,-1.00529480,0.427246,0.122070,-0.122070
7613816833,0.00205994,0.00314331,-1.00579834,0.305176,-0.061035,-0.061035
7618841416,0.00199890,0.00320435,-1.00587463,0.366211,0.183105,0.000000
7623868375,0.00205994,0.00296021,-1.00544739,0.122070,0.000000,-0.122070
7628823166,0.00189209,0.00245667,-1.00518799,0.305176,0.061035,0.061035
7633934916,0.00184631,0.00213623,-1.00567627,0.366211,0.000000,0.000000
7638881041,0.00241089,0.00219727,-1.00596619,0.183105,0.000000,-0.061035
7643879375,0.00289917,0.00216675,-1.00531006,0.183105,0.061035,-0.061035
7648868541,0.00256348,0.00201416,-1.00514221,0.244141,0.122070,-0.122070
7653880083,0.00184631,0.00196838,-1.00648499,0.305176,0.000000,0.000000
7658855083,0.00125122,0.00198364,-1.00741577,0.244141,-0.061035,-0.061035
7663829666,0.00105286,0.00207520,-1.00675964,0.122070,0.061035,-0.122070
7668826666,0.00143433,0.00222778,-1.00602722,0.305176,0.000000,-0.122070
7673862958,0.00186157,0.00254822,-1.00595093,0.427246,0.000000,0.000000
7678863083,0.00180054,0.00317383,-1.00598145,0.427246,0.000000,-0.122070
7683866041,0.00126648,0.00373840,-1.00593567,0.366211,0.122070,-0.122070
7688903250,0.00088501,0.00379944,-1.00605774,0.427246,0.183105,0.000000
7693858500,0.00137329,0.00366211,-1.00639343,0.244141,0.122070,-0.122070
7698837833,0.00210571,0.00363159,-1.00636292,0.244141,0.061035,-0.061035
7703882291,0.00205994,0.00338745,-1.00608826,0.244141,-0.061035,0.000000
7708823541,0.00167847,0.00289917,-1.00592041,0.244141,-0.061035,-0.122070
7713875458,0.00169373,0.00277710,-1.00596619,0.305176,0.061035,-0.061035
7718848166,0.00192261,0.00305176,-1.00610352,0.366211,0.183105,0.000000
7723862833,0.00228882,0.00317383,-1.00604248,0.305176,0.061035,-0.061035
7728868458,0.00306702,0.00321960,-1.00590515,0.427246,0.122070,0.000000
7733881791,0.00361633,0.00318909,-1.00585938,0.305176,0.000000,-0.122070
7738932000,0.00334167,0.00277710,-1.00599670,0.183105,-0.061035,-0.244141
7743879833,0.00270081,0.00205994,-1.00637817,0.366211,0.183105,-0.061035
7748836541,0.00238037,0.00151062,-1.00648499,0.488281,0.061035,-0.122070
7753890375,0.00260925,0.00151062,-1.00596619,0.183105,0.122070,-0.061035
7758885083,0.00282288,0.00198364,-1.00547791,0.183105,0.000000,-0.061035
7763841250,0.00241089,0.00227356,-1.00559998,0.427246,0.000000,0.000000
7768888166,0.00199890,0.00213623,-1.00595093,0.366211,0.000000,0.000000
7773881666,0.00195312,0.00204468,-1.00601196,0.244141,0.122070,-0.122070
7778895333,0.00210571,0.00251770,-1.00604248,0.366211,0.122070,0.000000
7783894416,0.00219727,0.00340271,-1.00617981,0.244141,0.000000,-0.061035
7788888750,0.00190735,0.00381470,-1.00611877,0.305176,0.061035,-0.061035
7793886000,0.00178528,0.00354004,-1.00610352,0.366211,0.061035,0.000000
7798874666,0.00205994,0.00328064,-1.00642395,0.305176,0.061035,-0.061035
7803891041,0.00202942,0.00332642,-1.00677490,0.244141,-0.061035,-0.061035
7808892583,0.00148010,0.00341797,-1.00671387,0.122070,0.061035,-0.122070
7813872125,0.00119019,0.00355530,-1.00640869,0.305176,0.183105,0.000000
7818918083,0.00151062,0.00390625,-1.00634766,0.183105,-0.122070,-0.122070
7823938500,0.00199890,0.00407410,-1.00662231,0.427246,0.061035,-0.061035
7828854333,0.00215149,0.00367737,-1.00683594,0.305176,-0.061035,0.000000
7833875291,0.00202942,0.00306702,-1.00648499,0.305176,0.000000,-0.122070
7838910208,0.00195312,0.00254822,-1.00592041,0.305176,-0.061035,-0.183105
7843885791,0.00212097,0.00183105,-1.00588989,0.305176,0.061035,-0.122070
7848883375,0.00238037,0.00143433,-1.00593567,0.305176,0.061035,-0.122070
7853917958,0.00253296,0.00183105,-1.00553894,0.183105,0.061035,0.000000
7858861875,0.00259399,0.00221252,-1.00509644,0.244141,0.061035,-0.183105
7863807791,0.00238037,0.00215149,-1.00527954,0.244141,0.061035,0.000000
7868887458,0.00215149,0.00202942,-1.00608826,0.366211,0.061035,0.000000
7873900958,0.00202942,0.00213623,-1.00672913,0.305176,-0.061035,-0.061035
7878898666,0.00177002,0.00231934,-1.00682068,0.366211,0.000000,-0.122070
7883882375,0.00163269,0.00225830,-1.00672913,0.366211,0.061035,-0.122070
7888932083,0.00141907,0.00224304,-1.00656128,0.305176,0.061035,0.000000
7893931375,0.00123596,0.00236511,-1.00627136,0.305176,0.061035,-0.061035
7898892541,0.00146484,0.00245667,-1.00579834,0.183105,-0.061035,-0.061035
7903868166,0.00170898,0.00251770,-1.00541687,0.366211,0.061035,-0.061035
7908867458,0.00173950,0.00280762,-1.00549316,0.183105,0.122070,-0.061035
7913903083,0.00152588,0.00317383,-1.00611877,0.305176,0.000000,-0.061035
7918884916,0.00117493,0.00346375,-1.00646973,0.366211,0.061035,-0.061035
7923929541,0.00115967,0.00364685,-1.00624084,0.244141,-0.061035,-0.122070
7928928916,0.00155640,0.00344849,-1.00634766,0.305176,0.122070,0.000000
7933884666,0.00205994,0.00297546,-1.00686646,0.366211,0.122070,0.061035
7938905125,0.00231934,0.00273132,-1.00677490,0.366211,0.000000,-0.061035
7943878166,0.00238037,0.00270081,-1.00595093,0.305176,-0.061035,-0.061035
7948887666,0.00274658,0.00221252,-1.00544739,0.244141,0.061035,0.000000
7953929000,0.00325012,0.00129700,-1.00595093,0.122070,-0.061035,-0.122070
7958927208,0.00329590,0.00093079,-1.00662231,0.427246,0.000000,-0.061035
7963853458,0.00303650,0.00131226,-1.00653076,0.305176,-0.122070,0.061035
7968929541,0.00286865,0.00181580,-1.00611877,0.305176,0.000000,-0.061035
7973918458,0.00280762,0.00212097,-1.00610352,0.305176,0.000000,0.000000
7978911916,0.00245667,0.00238037,-1.00625610,0.366211,-0.061035,-0.061035
7983916833,0.00186157,0.00268555,-1.00588989,0.366211,0.061035,0.122070
7988941750,0.00166321,0.00268555,-1.00512695,0.305176,0.061035,0.000000
7993914333,0.00183105,0.00233459,-1.00506592,0.305176,0.122070,0.000000
7998938750,0.00187683,0.00234985,-1.00605774,0.183105,0.000000,-0.061035
8003935541,0.00164795,0.00280762,-1.00660706,0.244141,0.061035,-0.122070
8008928750,0.00144958,0.00309753,-1.00564575,0.305176,0.000000,-0.122070
8013928416,0.00146484,0.00312805,-1.00477600,0.244141,0.000000,0.000000
8018900625,0.00170898,0.00338745,-1.00547791,0.427246,0.122070,-0.061035
8023891583,0.00193787,0.00376892,-1.00651550,0.366211,0.122070,-0.122070
8028935541,0.00199890,0.00384521,-1.00604248,0.305176,0.122070,-0.122070
8033939083,0.00195312,0.00332642,-1.00457764,0.183105,0.061035,-0.122070
8038933750,0.00195312,0.00262451,-1.00422668,0.183105,0.061035,0.000000
8043909875,0.00207520,0.00228882,-1.00531006,0.366211,0.061035,0.000000
8048901583,0.00222778,0.00218201,-1.00593567,0.244141,0.061035,-0.183105
8053951041,0.00202942,0.00219727,-1.00550842,0.427246,0.061035,-0.122070
8058944791,0.00183105,0.00234985,-1.00540161,0.305176,-0.061035,-0.061035
8063937583,0.00207520,0.00239563,-1.00631714,0.183105,0.061035,0.000000
8068908875,0.00231934,0.00230408,-1.00689697,0.366211,0.183105,-0.061035
8073961333,0.00218201,0.00254822,-1.00639343,0.305176,0.061035,-0.122070
8078955541,0.00195312,0.00323486,-1.00578308,0.427246,0.183105,-0.061035
8083947625,0.00189209,0.00350952,-1.00590515,0.305176,0.061035,-0.061035
8088949791,0.00193787,0.00311279,-1.00619507,0.366211,0.000000,-0.122070
8093951750,0.00215149,0.00263977,-1.00585938,0.366211,-0.061035,-0.061035
8098939583,0.00263977,0.00254822,-1.00497437,0.366211,0.061035,-0.061035
8103941916,0.00288391,0.00260925,-1.00465393,0.244141,0.061035,-0.061035
8108954208,0.00274658,0.00256348,-1.00535583,0.366211,0.061035,-0.122070
8113981500,0.00251770,0.00248718,-1.00602722,0.366211,0.000000,-0.122070
8118957458,0.00231934,0.00244141,-1.00569153,0.305176,0.183105,0.000000
8123972000,0.00181580,0.00256348,-1.00524902,0.305176,0.061035,-0.061035
8128951375,0.00129700,0.00271606,-1.00552368,0.366211,0.000000,-0.061035
8133950416,0.00137329,0.00263977,-1.00602722,0.244141,-0.122070,0.000000
8138939500,0.00175476,0.00265503,-1.00608826,0.366211,0.122070,-0.061035
8143962291,0.00201416,0.00303650,-1.00582886,0.305176,0.183105,0.000000
8148959875,0.00222778,0.00331116,-1.00617981,0.366211,-0.061035,-0.183105
8154004541,0.00241089,0.00315857,-1.00695801,0.305176,0.122070,-0.061035
8158926583,0.00238037,0.00286865,-1.00680542,0.244141,0.183105,0.000000
8163936208,0.00212097,0.00260925,-1.00561523,0.305176,0.061035,-0.122070
8168994250,0.00187683,0.00254822,-1.00474548,0.244141,0.000000,-0.061035
8173970958,0.00164795,0.00294495,-1.00506592,0.305176,0.061035,-0.061035
8178924000,0.00166321,0.00350952,-1.00567627,0.244141,0.000000,-0.061035
8183970625,0.00205994,0.00386047,-1.00546265,0.366211,0.000000,-0.061035
8188985291,0.00244141,0.00392151,-1.00480652,0.366211,0.000000,0.000000
