timestamp_ns,accel_x,accel_y,accel_z,gyro_x,gyro_y,gyro_z
63528541,-0.00138855,0.00476074,-1.00602722,0.427246,0.061035,-0.183105
70870416,-0.00219727,0.00466919,-1.00454712,0.244141,0.061035,-0.061035
73447708,-0.00302124,0.00483704,-1.00396729,0.122070,0.000000,-0.061035
78406666,-0.00392151,0.00485229,-1.00559998,0.244141,0.000000,-0.183105
83700416,-0.00421143,0.00437927,-1.00636292,0.183105,0.061035,-0.061035
88771208,-0.00328064,0.00350952,-1.00497437,0.244141,0.122070,-0.122070
94313083,-0.00148010,0.00256348,-1.00427246,0.244141,0.061035,-0.122070
98412166,0.00003052,0.00170898,-1.00512695,0.183105,0.122070,0.000000
103403666,0.00112915,0.00131226,-1.00561523,0.366211,0.061035,-0.061035
109802833,0.00238037,0.00180054,-1.00569153,0.244141,0.061035,-0.183105
120851708,0.00416565,0.00257874,-1.00587463,0.183105,0.061035,-0.183105
120858708,0.00602722,0.00285339,-1.00598145,0.122070,0.122070,-0.122070
126005666,0.00677490,0.00311279,-1.00636292,0.366211,0.122070,-0.122070
128414250,0.00637817,0.00378418,-1.00634766,0.244141,0.061035,-0.122070
134272000,0.00607300,0.00457764,-1.00576782,0.305176,0.000000,0.061035
138397000,0.00596619,0.00489807,-1.00625610,0.183105,0.061035,-0.061035
144044416,0.00540161,0.00448608,-1.00697327,0.366211,0.061035,-0.122070
148454500,0.00451660,0.00354004,-1.00622559,0.244141,-0.061035,-0.122070
153997666,0.00334167,0.00253296,-1.00466919,0.366211,0.061035,0.000000
158862750,0.00180054,0.00202942,-1.00404358,0.366211,0.061035,-0.183105
163741583,0.00006104,0.00213623,-1.00527954,0.366211,0.122070,0.000000
169031416,-0.00158691,0.00233459,-1.00691223,0.427246,0.061035,0.000000
173390291,-0.00300598,0.00257874,-1.00671387,0.305176,0.061035,0.000000
178381541,-0.00386047,0.00326538,-1.00535583,0.183105,0.061035,-0.122070
183393875,-0.00392151,0.00422668,-1.00518799,0.305176,0.000000,0.000000
188399333,-0.00320435,0.00482178,-1.00651550,0.244141,0.000000,-0.061035
193397208,-0.00204468,0.00465393,-1.00689697,0.366211,-0.061035,-0.122070
198395208,-0.00105286,0.00419617,-1.00559998,0.183105,0.061035,-0.122070
203404291,-0.00022888,0.00413513,-1.00463867,0.366211,-0.061035,-0.061035
208400458,0.00106812,0.00421143,-1.00547791,0.366211,-0.061035,-0.061035
213441291,0.00292969,0.00375366,-1.00704956,0.183105,0.000000,0.000000
218444791,0.00459290,0.00268555,-1.00697327,0.244141,0.000000,0.061035
223487208,0.00553894,0.00148010,-1.00553894,0.183105,0.000000,-0.061035
228439791,0.00604248,0.00085449,-1.00532532,0.427246,0.061035,0.061035
233412333,0.00613403,0.00094604,-1.00645447,0.305176,0.000000,-0.122070
238440250,0.00579834,0.00160217,-1.00691223,0.244141,0.061035,-0.061035
243415250,0.00523376,0.00257874,-1.00634766,0.305176,-0.061035,-0.061035
248427958,0.00451660,0.00357056,-1.00592041,0.427246,0.061035,-0.061035
253439333,0.00393677,0.00442505,-1.00608826,0.183105,0.000000,-0.183105
258808041,0.00357056,0.00512695,-1.00645447,0.183105,-0.061035,-0.122070
263542583,0.00286865,0.00543213,-1.00602722,0.427246,0.122070,-0.122070
268406500,0.00135803,0.00538635,-1.00535583,0.122070,0.122070,-0.061035
273406708,-0.00064087,0.00531006,-1.00587463,0.427246,0.061035,-0.061035
278435000,-0.00210571,0.00532532,-1.00671387,0.183105,-0.122070,-0.061035
283428875,-0.00283813,0.00517273,-1.00688171,0.244141,0.061035,-0.061035
288447708,-0.00328064,0.00428772,-1.00584412,0.366211,0.000000,0.000000
293419666,-0.00340271,0.00300598,-1.00439453,0.244141,-0.061035,-0.061035
298421791,-0.00297546,0.00244141,-1.00489807,0.366211,0.061035,-0.122070
303415458,-0.00204468,0.00244141,-1.00639343,0.305176,0.061035,-0.122070
308452875,-0.00074768,0.00219727,-1.00660706,0.305176,0.061035,-0.122070
313441791,0.00080872,0.00201416,-1.00596619,0.183105,-0.061035,-0.061035
318447416,0.00260925,0.00254822,-1.00570679,0.305176,0.061035,-0.122070
323433291,0.00451660,0.00328064,-1.00550842,0.366211,0.000000,-0.183105
328505291,0.00614929,0.00344849,-1.00497437,0.488281,0.061035,-0.183105
333436416,0.00692749,0.00296021,-1.00453186,0.427246,-0.061035,-0.183105
338420958,0.00677490,0.00224304,-1.00505066,0.305176,0.183105,-0.122070
343422916,0.00595093,0.00187683,-1.00669861,0.244141,0.061035,-0.122070
348434500,0.00515747,0.00201416,-1.00740051,0.122070,0.000000,-0.061035
353444125,0.00468445,0.00262451,-1.00596619,0.427246,0.061035,-0.122070
358981250,0.00386047,0.00320435,-1.00486755,0.244141,0.000000,-0.061035
363583333,0.00265503,0.00325012,-1.00587463,0.244141,0.061035,0.000000
368446833,0.00141907,0.00309753,-1.00723267,0.366211,0.061035,0.000000
373421833,0.00021362,0.00340271,-1.00703430,0.305176,0.122070,0.061035
378469208,-0.00080872,0.00418091,-1.00564575,0.244141,-0.061035,-0.122070
383533458,-0.00137329,0.00483704,-1.00492859,0.183105,0.000000,0.000000
388421291,-0.00129700,0.00498962,-1.00552368,0.244141,0.061035,-0.183105
393486166,-0.00102234,0.00486755,-1.00599670,0.244141,0.244141,0.000000
398469416,-0.00085449,0.00454712,-1.00558472,0.366211,0.061035,-0.061035
403492041,-0.00051880,0.00384521,-1.00553894,0.183105,0.000000,0.000000
408458833,0.00039673,0.00247192,-1.00659180,0.305176,0.000000,-0.122070
413502250,0.00166321,0.00102234,-1.00729370,0.366211,0.183105,0.000000
418432583,0.00231934,0.00050354,-1.00689697,0.305176,0.061035,-0.122070
423446583,0.00233459,0.00074768,-1.00634766,0.305176,0.061035,-0.061035
428422041,0.00270081,0.00100708,-1.00630188,0.305176,0.000000,-0.122070
433454875,0.00357056,0.00114441,-1.00663757,0.366211,0.000000,-0.061035
438482125,0.00448608,0.00152588,-1.00645447,0.244141,0.000000,-0.122070
443473250,0.00503540,0.00221252,-1.00544739,0.305176,0.122070,0.000000
448449083,0.00526428,0.00311279,-1.00532532,0.244141,0.000000,-0.122070
453483958,0.00491333,0.00408936,-1.00680542,0.427246,0.122070,0.000000
459134916,0.00386047,0.00506592,-1.00758362,0.366211,0.061035,0.000000
463570875,0.00276184,0.00563049,-1.00639343,0.427246,-0.061035,-0.122070
468488083,0.00193787,0.00540161,-1.00511169,0.427246,-0.061035,-0.061035
473443041,0.00096130,0.00469971,-1.00526428,0.305176,0.061035,-0.122070
478431541,-0.00045776,0.00387573,-1.00599670,0.183105,0.122070,-0.061035
483537500,-0.00154114,0.00309753,-1.00613403,0.305176,0.000000,-0.183105
488474500,-0.00155640,0.00233459,-1.00596619,0.305176,0.000000,0.000000
493490208,-0.00126648,0.00169373,-1.00616455,0.305176,0.183105,-0.061035
498455541,-0.00126648,0.00175476,-1.00674438,0.366211,0.061035,-0.061035
503491666,-0.00112915,0.00245667,-1.00657654,0.305176,-0.122070,-0.061035
508431666,-0.00047302,0.00292969,-1.00559998,0.366211,0.061035,0.000000
513519833,0.00033569,0.00268555,-1.00546265,0.244141,0.061035,-0.122070
518490458,0.00122070,0.00216675,-1.00668335,0.183105,0.122070,-0.122070
523427458,0.00241089,0.00218201,-1.00733948,0.427246,0.061035,-0.061035
528441791,0.00373840,0.00285339,-1.00621033,0.366211,0.061035,-0.061035
533424625,0.00469971,0.00338745,-1.00480652,0.305176,0.000000,-0.061035
538442208,0.00506592,0.00302124,-1.00526428,0.244141,0.061035,-0.122070
543419416,0.00508118,0.00224304,-1.00657654,0.366211,0.061035,0.000000
548465458,0.00451660,0.00201416,-1.00663757,0.366211,0.061035,-0.061035
553471958,0.00354004,0.00227356,-1.00610352,0.305176,0.000000,0.000000
558759958,0.00321960,0.00254822,-1.00643921,0.244141,-0.061035,-0.183105
563629666,0.00355530,0.00303650,-1.00688171,0.366211,0.183105,0.061035
568494958,0.00347900,0.00387573,-1.00636292,0.366211,0.122070,-0.122070
573436875,0.00257874,0.00431824,-1.00582886,0.244141,0.061035,-0.061035
578490958,0.00126648,0.00427246,-1.00622559,0.183105,0.000000,-0.122070
583483708,0.00012207,0.00424194,-1.00679016,0.366211,0.000000,-0.183105
588549375,-0.00053406,0.00402832,-1.00671387,0.244141,0.122070,-0.061035
593475791,-0.00094604,0.00335693,-1.00601196,0.305176,0.061035,0.000000
598458458,-0.00123596,0.00253296,-1.00567627,0.305176,0.244141,-0.122070
603490375,-0.00093079,0.00189209,-1.00634766,0.488281,0.000000,-0.061035
608443708,-0.00012207,0.00140381,-1.00721741,0.244141,0.183105,0.061035
613485333,0.00042725,0.00102234,-1.00691223,0.366211,0.000000,0.061035
618458583,0.00047302,0.00106812,-1.00572205,0.305176,0.122070,0.000000
623450666,0.00086975,0.00172424,-1.00520325,0.305176,0.122070,-0.061035
628490375,0.00204468,0.00273132,-1.00592041,0.244141,0.000000,-0.122070
633490791,0.00331116,0.00372314,-1.00660706,0.183105,0.061035,-0.122070
638486791,0.00399780,0.00468445,-1.00622559,0.305176,0.000000,-0.122070
643463333,0.00425720,0.00570679,-1.00556946,0.305176,-0.061035,-0.122070
648489166,0.00454712,0.00643921,-1.00588989,0.366211,-0.061035,-0.122070
653494583,0.00477600,0.00685120,-1.00627136,0.366211,0.000000,-0.183105
658837000,0.00450134,0.00683594,-1.00585938,0.183105,0.122070,-0.122070
663608958,0.00390625,0.00595093,-1.00566101,0.183105,0.061035,-0.061035
668480333,0.00373840,0.00477600,-1.00622559,0.366211,0.061035,0.000000
673433291,0.00376892,0.00425720,-1.00648499,0.427246,0.183105,-0.061035
678464833,0.00321960,0.00405884,-1.00588989,0.366211,-0.061035,-0.061035
683495583,0.00213623,0.00331116,-1.00543213,0.244141,0.000000,-0.122070
688496291,0.00090027,0.00202942,-1.00566101,0.427246,0.061035,0.000000
693540000,-0.00010681,0.00105286,-1.00576782,0.305176,0.000000,-0.061035
698457625,-0.00073242,0.00099182,-1.00555420,0.244141,0.122070,-0.061035
703471500,-0.00030518,0.00167847,-1.00570679,0.366211,0.000000,-0.061035
708476666,0.00097656,0.00224304,-1.00645447,0.366211,0.000000,-0.122070
713499250,0.00180054,0.00198364,-1.00671387,0.366211,0.122070,-0.122070
718463791,0.00149536,0.00129700,-1.00584412,0.366211,0.000000,-0.061035
723469666,0.00122070,0.00103760,-1.00520325,0.244141,0.122070,-0.183105
728502125,0.00204468,0.00141907,-1.00593567,0.488281,0.183105,-0.061035
733468750,0.00289917,0.00192261,-1.00662231,0.183105,0.000000,-0.122070
738471375,0.00288391,0.00202942,-1.00599670,0.305176,0.061035,0.000000
743596000,0.00271606,0.00173950,-1.00535583,0.427246,0.000000,0.000000
748502041,0.00308228,0.00157166,-1.00588989,0.305176,0.000000,-0.061035
753487416,0.00376892,0.00210571,-1.00679016,0.305176,0.000000,-0.061035
758507958,0.00408936,0.00338745,-1.00642395,0.427246,0.000000,0.000000
763607666,0.00364685,0.00483704,-1.00506592,0.549316,0.122070,-0.122070
768486333,0.00317383,0.00587463,-1.00466919,0.610352,0.000000,-0.061035
773473125,0.00296021,0.00646973,-1.00509644,0.488281,0.122070,-0.122070
778503375,0.00248718,0.00665283,-1.00512695,0.549316,0.183105,-0.061035
783475958,0.00201416,0.00672913,-1.00552368,0.366211,0.061035,-0.061035
788501291,0.00173950,0.00642395,-1.00669861,0.244141,0.061035,-0.183105
793489291,0.00137329,0.00523376,-1.00770569,0.244141,0.000000,-0.244141
798471625,0.00073242,0.00387573,-1.00785828,0.366211,0.061035,-0.122070
803503166,-0.00009155,0.00291443,-1.00706482,0.244141,0.061035,-0.183105
808491041,-0.00071716,0.00224304,-1.00581360,0.122070,0.061035,-0.061035
813518916,-0.00059509,0.00158691,-1.00567627,0.244141,0.122070,0.122070
818531416,0.00004578,0.00057983,-1.00679016,0.366211,0.061035,-0.122070
823539750,0.00041199,-0.00010681,-1.00721741,0.305176,0.122070,-0.061035
828520500,0.00068665,0.00015259,-1.00625610,0.305176,0.122070,-0.061035
833498708,0.00155640,0.00071716,-1.00527954,0.366211,0.000000,0.000000
838485833,0.00273132,0.00088501,-1.00543213,0.305176,0.000000,-0.122070
843571166,0.00344849,0.00117493,-1.00610352,0.244141,0.000000,-0.122070
848572416,0.00364685,0.00193787,-1.00619507,0.366211,0.000000,0.000000
853506416,0.00386047,0.00280762,-1.00579834,0.305176,0.061035,-0.061035
858527583,0.00418091,0.00309753,-1.00598145,0.366211,-0.122070,-0.122070
863540000,0.00405884,0.00268555,-1.00695801,0.366211,0.122070,-0.061035
868514000,0.00323486,0.00251770,-1.00723267,0.305176,0.122070,-0.122070
873570166,0.00213623,0.00337219,-1.00627136,0.305176,0.061035,-0.061035
878511333,0.00111389,0.00453186,-1.00575256,0.183105,-0.061035,0.000000
883492250,0.00047302,0.00505066,-1.00643921,0.488281,0.183105,-0.061035
888546875,0.00024414,0.00515747,-1.00686646,0.671387,0.183105,-0.061035
893529791,0.00025940,0.00541687,-1.00578308,0.610352,0.061035,-0.122070
898645833,0.00041199,0.00550842,-1.00463867,0.427246,0.122070,-0.183105
903542750,0.00050354,0.00524902,-1.00599670,0.427246,0.122070,-0.061035
908531416,0.00056458,0.00498962,-1.00874329,0.427246,0.122070,0.000000
913550916,0.00077820,0.00430298,-1.00866699,0.366211,0.122070,-0.122070
918528500,0.00114441,0.00311279,-1.00599670,0.427246,0.122070,-0.122070
923540916,0.00143433,0.00189209,-1.00491333,0.366211,0.000000,-0.061035
928518208,0.00137329,0.00091553,-1.00590515,0.244141,0.000000,-0.122070
933572333,0.00115967,0.00019836,-1.00656128,0.122070,0.000000,-0.122070
938574500,0.00132751,-0.00028992,-1.00686646,0.305176,-0.061035,-0.122070
943551791,0.00184631,-0.00038147,-1.00723267,0.244141,0.000000,-0.122070
948591500,0.00239563,-0.00004578,-1.00753784,0.427246,-0.122070,-0.061035
953586791,0.00294495,0.00051880,-1.00726318,0.244141,0.122070,-0.122070
958546875,0.00338745,0.00131226,-1.00541687,0.244141,0.000000,-0.061035
963641958,0.00376892,0.00253296,-1.00344849,0.305176,0.061035,-0.183105
968570916,0.00399780,0.00386047,-1.00421143,0.305176,0.183105,-0.244141
973592083,0.00366211,0.00451660,-1.00650024,0.183105,0.122070,-0.122070
978604166,0.00302124,0.00460815,-1.00656128,0.305176,0.122070,-0.061035
983594541,0.00279236,0.00492859,-1.00492859,0.366211,0.122070,-0.183105
988574875,0.00267029,0.00570679,-1.00491333,0.305176,0.244141,-0.122070
993578541,0.00187683,0.00607300,-1.00633240,0.305176,0.122070,0.000000
998548625,0.00085449,0.00567627,-1.00656128,0.244141,0.183105,0.000000
1003595166,0.00027466,0.00497437,-1.00500488,0.305176,0.244141,-0.061035
1008570750,-0.00019836,0.00407410,-1.00421143,0.366211,0.061035,-0.061035
1013608916,-0.00064087,0.00325012,-1.00631714,0.244141,0.000000,0.061035
1018557083,-0.00051880,0.00271606,-1.00949097,0.183105,0.061035,-0.122070
1023591000,-0.00009155,0.00221252,-1.00956726,0.305176,0.122070,0.000000
1028595958,0.00027466,0.00164795,-1.00686646,0.244141,0.061035,-0.061035
1033615333,0.00054932,0.00137329,-1.00549316,0.244141,0.000000,-0.122070
1038585916,0.00038147,0.00138855,-1.00599670,0.305176,0.061035,0.000000
1043612583,0.00015259,0.00144958,-1.00588989,0.366211,0.061035,-0.061035
1048619166,0.00056458,0.00146484,-1.00485229,0.183105,0.061035,0.000000
1053665708,0.00148010,0.00140381,-1.00476074,0.305176,0.061035,-0.061035
1058592791,0.00238037,0.00119019,-1.00614929,0.183105,0.000000,-0.183105
1063593541,0.00302124,0.00109863,-1.00706482,0.305176,0.061035,-0.122070
1068601208,0.00331116,0.00160217,-1.00634766,0.305176,0.061035,0.000000
1073590958,0.00346375,0.00265503,-1.00561523,0.305176,0.122070,0.000000
1078620708,0.00387573,0.00361633,-1.00627136,0.183105,0.000000,-0.122070
1083590000,0.00436401,0.00419617,-1.00697327,0.366211,0.122070,-0.122070
1088573041,0.00408936,0.00442505,-1.00607300,0.427246,0.061035,-0.183105
1093601625,0.00296021,0.00437927,-1.00471497,0.183105,0.061035,-0.061035
1098619833,0.00198364,0.00422668,-1.00482178,0.244141,0.183105,0.000000
1103609791,0.00160217,0.00428772,-1.00579834,0.305176,0.061035,-0.061035
1108609375,0.00151062,0.00480652,-1.00601196,0.366211,0.122070,0.061035
1113608166,0.00158691,0.00550842,-1.00505066,0.366211,0.061035,-0.122070
1118618291,0.00180054,0.00569153,-1.00473022,0.427246,0.000000,-0.122070
1123598666,0.00161743,0.00529480,-1.00585938,0.488281,-0.122070,-0.061035
1128596541,0.00085449,0.00474548,-1.00671387,0.427246,0.000000,-0.183105
1133630583,0.00000000,0.00408936,-1.00631714,0.366211,0.000000,-0.122070
1138609250,-0.00070190,0.00334167,-1.00581360,0.366211,0.061035,-0.061035
1143610875,-0.00115967,0.00257874,-1.00610352,0.427246,0.183105,0.000000
1148623958,-0.00074768,0.00202942,-1.00683594,0.244141,0.061035,-0.061035
1153630125,0.00048828,0.00180054,-1.00686646,0.488281,0.000000,-0.122070
1158648541,0.00149536,0.00158691,-1.00605774,0.305176,-0.061035,-0.122070
1163583458,0.00204468,0.00122070,-1.00584412,0.427246,0.061035,0.061035
1168606250,0.00292969,0.00109863,-1.00692749,0.244141,-0.061035,0.061035
1173634041,0.00398254,0.00129700,-1.00790405,0.183105,0.061035,-0.122070
1178635958,0.00433350,0.00152588,-1.00729370,0.366211,0.061035,-0.061035
1183623125,0.00407410,0.00177002,-1.00553894,0.244141,0.061035,-0.061035
1188609625,0.00375366,0.00198364,-1.00486755,0.122070,0.061035,-0.183105
1193631416,0.00321960,0.00224304,-1.00611877,0.122070,0.183105,0.000000
1198622125,0.00256348,0.00238037,-1.00698853,0.183105,0.061035,-0.122070
1203631000,0.00228882,0.00215149,-1.00561523,0.244141,0.061035,-0.061035
1208619208,0.00186157,0.00170898,-1.00411987,0.244141,0.061035,0.000000
1213626583,0.00065613,0.00154114,-1.00476074,0.183105,0.061035,0.000000
1218593458,-0.00062561,0.00190735,-1.00605774,0.366211,0.061035,-0.061035
1223644291,-0.00103760,0.00225830,-1.00607300,0.305176,0.000000,-0.183105
1228629916,-0.00109863,0.00212097,-1.00547791,0.244141,0.122070,-0.122070
1233627750,-0.00125122,0.00228882,-1.00537109,0.305176,0.244141,-0.061035
1238626625,-0.00085449,0.00350952,-1.00555420,0.366211,0.061035,-0.061035
1243604541,0.00003052,0.00509644,-1.00523376,0.366211,0.061035,0.061035
1248649166,0.00071716,0.00607300,-1.00479126,0.305176,0.000000,-0.183105
1253642541,0.00131226,0.00621033,-1.00477600,0.305176,0.183105,-0.061035
1258641375,0.00215149,0.00585938,-1.00532532,0.305176,0.061035,-0.061035
1263555583,0.00251770,0.00531006,-1.00579834,0.244141,0.122070,-0.061035
1268619250,0.00238037,0.00456238,-1.00573730,0.488281,0.000000,-0.061035
1273611666,0.00274658,0.00354004,-1.00563049,0.244141,-0.122070,0.000000
1278630625,0.00364685,0.00256348,-1.00592041,0.305176,0.000000,-0.122070
1283603250,0.00413513,0.00198364,-1.00596619,0.305176,0.061035,-0.122070
1288608875,0.00402832,0.00166321,-1.00537109,0.366211,0.183105,-0.122070
1293586583,0.00369263,0.00148010,-1.00502014,0.305176,0.000000,-0.061035
1298601250,0.00340271,0.00152588,-1.00593567,0.366211,0.122070,-0.061035
1303606875,0.00315857,0.00190735,-1.00703430,0.366211,0.061035,0.000000
1308606333,0.00292969,0.00241089,-1.00695801,0.122070,0.000000,-0.183105
1313655416,0.00248718,0.00288391,-1.00605774,0.305176,0.122070,-0.183105
1318600166,0.00144958,0.00341797,-1.00538635,0.244141,0.061035,-0.061035
1323605041,0.00013733,0.00375366,-1.00524902,0.244141,0.122070,-0.122070
1328645000,-0.00062561,0.00364685,-1.00523376,0.305176,0.000000,-0.061035
1333637875,-0.00090027,0.00343323,-1.00527954,0.549316,0.183105,0.000000
1338616833,-0.00126648,0.00335693,-1.00584412,0.305176,0.061035,0.000000
1343651250,-0.00190735,0.00340271,-1.00654602,0.305176,-0.122070,-0.061035
1348675666,-0.00239563,0.00358582,-1.00643921,0.366211,0.000000,-0.183105
1353667708,-0.00181580,0.00399780,-1.00556946,0.305176,0.183105,0.061035
1358646833,-0.00022888,0.00436401,-1.00547791,0.305176,0.000000,0.061035
1363563833,0.00129700,0.00448608,-1.00624084,0.427246,-0.122070,-0.122070
1368656291,0.00242615,0.00474548,-1.00645447,0.183105,0.000000,-0.061035
1373608500,0.00361633,0.00547791,-1.00617981,0.366211,0.061035,0.000000
1378664833,0.00485229,0.00613403,-1.00636292,0.366211,0.000000,-0.122070
1383644166,0.00547791,0.00573730,-1.00714111,0.305176,-0.061035,-0.183105
1388649500,0.00547791,0.00425720,-1.00738525,0.244141,0.061035,0.000000
1393653666,0.00521851,0.00242615,-1.00643921,0.244141,0.122070,0.000000
1398657583,0.00508118,0.00119019,-1.00563049,0.244141,0.061035,-0.061035
1403653875,0.00465393,0.00100708,-1.00584412,0.305176,0.183105,-0.061035
1408647291,0.00346375,0.00103760,-1.00640869,0.366211,0.000000,-0.061035
1413673208,0.00169373,0.00039673,-1.00613403,0.305176,0.183105,0.000000
1418693166,0.00045776,-0.00033569,-1.00543213,0.183105,0.183105,-0.061035
1423641291,0.00019836,-0.00024414,-1.00576782,0.244141,0.183105,0.061035
1428632833,0.00009155,0.00097656,-1.00704956,0.366211,0.061035,-0.122070
1433671500,-0.00047302,0.00268555,-1.00775146,0.305176,0.061035,0.000000
1438633958,-0.00105286,0.00392151,-1.00753784,0.244141,0.000000,-0.122070
1443705291,-0.00119019,0.00440979,-1.00682068,0.183105,0.061035,-0.061035
1448707125,-0.00151062,0.00453186,-1.00590515,0.244141,0.000000,-0.122070
1453669958,-0.00192261,0.00479126,-1.00555420,0.366211,0.122070,-0.122070
1458682125,-0.00138855,0.00508118,-1.00553894,0.305176,0.122070,0.000000
1463610875,-0.00006104,0.00489807,-1.00529480,0.122070,-0.061035,0.000000
1468663875,0.00083923,0.00433350,-1.00550842,0.549316,0.122070,-0.122070
1473674791,0.00077820,0.00349426,-1.00608826,0.305176,0.061035,0.000000
1478688166,0.00036621,0.00265503,-1.00610352,0.305176,0.122070,-0.122070
1483631958,0.00068665,0.00195312,-1.00610352,0.305176,0.061035,0.000000
1488655541,0.00202942,0.00154114,-1.00706482,0.244141,0.000000,-0.061035
1493694166,0.00375366,0.00183105,-1.00695801,0.305176,0.000000,0.122070
1498697791,0.00497437,0.00276184,-1.00567627,0.244141,-0.061035,-0.061035
1503687541,0.00570679,0.00340271,-1.00518799,0.183105,0.061035,-0.061035
1508667000,0.00619507,0.00343323,-1.00540161,0.000000,0.122070,-0.061035
1513703208,0.00639343,0.00325012,-1.00604248,0.244141,0.000000,-0.183105
1518662000,0.00617981,0.00268555,-1.00642395,0.305176,0.000000,-0.122070
1523673041,0.00555420,0.00164795,-1.00570679,0.183105,0.000000,-0.061035
1528682541,0.00440979,0.00082397,-1.00526428,0.122070,0.122070,0.000000
1533666375,0.00259399,0.00039673,-1.00613403,0.244141,0.122070,-0.061035
1538730916,0.00073242,0.00025940,-1.00691223,0.305176,0.000000,0.061035
1543667125,-0.00047302,0.00048828,-1.00625610,0.183105,-0.061035,0.000000
1548663916,-0.00131226,0.00086975,-1.00479126,0.061035,0.061035,0.061035
1553648333,-0.00230408,0.00122070,-1.00457764,0.061035,-0.061035,-0.122070
1558655208,-0.00334167,0.00222778,-1.00704956,0.183105,0.000000,-0.061035
1563606416,-0.00369263,0.00419617,-1.00877380,0.122070,0.000000,0.061035
1568687083,-0.00302124,0.00621033,-1.00651550,0.183105,0.061035,-0.183105
1573666416,-0.00207520,0.00740051,-1.00382996,0.122070,0.000000,-0.122070
1578685125,-0.00141907,0.00773621,-1.00428772,0.244141,0.061035,-0.122070
1583671416,-0.00077820,0.00747681,-1.00573730,0.244141,0.000000,-0.061035
1588699250,0.00025940,0.00680542,-1.00617981,0.305176,0.061035,-0.122070
1593668333,0.00164795,0.00566101,-1.00617981,0.244141,-0.122070,-0.183105
1598684083,0.00306702,0.00421143,-1.00607300,0.244141,0.061035,0.000000
1603685208,0.00428772,0.00285339,-1.00660706,0.366211,-0.061035,-0.122070
1608679291,0.00527954,0.00164795,-1.00726318,0.305176,-0.061035,0.061035
1613665375,0.00630188,0.00071716,-1.00657654,0.122070,0.000000,0.061035
1618659750,0.00694275,0.00035095,-1.00621033,0.366211,0.061035,-0.061035
1623715416,0.00669861,0.00045776,-1.00700378,0.305176,0.000000,0.061035
1628676416,0.00588989,0.00088501,-1.00695801,0.244141,0.061035,0.061035
1633684166,0.00531006,0.00144958,-1.00584412,0.244141,0.122070,-0.061035
1638676333,0.00492859,0.00227356,-1.00605774,0.244141,0.122070,-0.122070
1643705041,0.00405884,0.00350952,-1.00741577,0.427246,0.183105,-0.183105
1648710708,0.00259399,0.00456238,-1.00682068,0.244141,0.061035,-0.122070
1653692166,0.00100708,0.00466919,-1.00401306,0.183105,0.000000,-0.122070
1658679583,-0.00038147,0.00402832,-1.00299072,0.244141,-0.183105,0.000000
1663653375,-0.00161743,0.00331116,-1.00660706,0.305176,-0.122070,-0.061035
1668718375,-0.00308228,0.00247192,-1.01020813,0.244141,0.061035,-0.061035
1673687041,-0.00462341,0.00144958,-1.00848389,0.244141,0.122070,-0.122070
1678714666,-0.00521851,0.00125122,-1.00498962,0.244141,0.061035,0.000000
1683683625,-0.00433350,0.00233459,-1.00469971,0.183105,0.000000,0.000000
1688718416,-0.00256348,0.00367737,-1.00645447,0.305176,0.122070,-0.061035
1693706250,-0.00038147,0.00424194,-1.00721741,0.366211,0.061035,-0.061035
1698679166,0.00193787,0.00459290,-1.00633240,0.122070,-0.061035,-0.183105
1703689375,0.00393677,0.00532532,-1.00497437,0.122070,0.000000,0.000000
1708702541,0.00544739,0.00598145,-1.00482178,0.305176,0.000000,-0.122070
1713709208,0.00650024,0.00608826,-1.00584412,0.244141,0.000000,-0.244141
1718721458,0.00727844,0.00578308,-1.00556946,0.366211,0.061035,-0.122070
1723723166,0.00772095,0.00495911,-1.00439453,0.366211,0.061035,-0.122070
1728772416,0.00723267,0.00337219,-1.00537109,0.427246,0.122070,-0.061035
1733716291,0.00538635,0.00135803,-1.00758362,0.244141,0.000000,0.000000
1738737125,0.00314331,-0.00045776,-1.00762939,0.305176,-0.061035,0.000000
1743749333,0.00169373,-0.00137329,-1.00588989,0.305176,0.061035,-0.061035
1748717875,0.00082397,-0.00123596,-1.00512695,0.244141,0.061035,0.061035
1753718708,0.00016785,-0.00054932,-1.00601196,0.305176,-0.061035,0.000000
1758702875,-0.00028992,0.00044250,-1.00711060,0.305176,0.122070,-0.183105
1763741666,-0.00086975,0.00195312,-1.00665283,0.305176,0.000000,-0.061035
1768732208,-0.00158691,0.00361633,-1.00505066,0.244141,0.000000,-0.183105
1773694375,-0.00242615,0.00489807,-1.00450134,0.366211,0.061035,-0.061035
1778719333,-0.00309753,0.00573730,-1.00524902,0.427246,0.061035,-0.061035
1783734875,-0.00306702,0.00625610,-1.00512695,0.305176,0.183105,-0.061035
1788727791,-0.00251770,0.00613403,-1.00428772,0.305176,-0.061035,-0.183105
1793722458,-0.00155640,0.00511169,-1.00474548,0.305176,0.061035,0.000000
1798717458,-0.00045776,0.00341797,-1.00624084,0.366211,0.122070,-0.122070
1803708750,0.00045776,0.00190735,-1.00669861,0.549316,0.000000,0.000000
1808722708,0.00154114,0.00126648,-1.00578308,0.427246,0.000000,0.061035
1813732291,0.00297546,0.00137329,-1.00521851,0.366211,0.122070,0.000000
1818727250,0.00457764,0.00189209,-1.00593567,0.183105,-0.122070,-0.061035
1823727833,0.00579834,0.00273132,-1.00682068,0.427246,0.000000,0.000000
1828742208,0.00622559,0.00404358,-1.00634766,0.305176,0.122070,-0.061035
1833808458,0.00625610,0.00553894,-1.00515747,0.305176,0.000000,-0.183105
1838724875,0.00636292,0.00642395,-1.00566101,0.366211,-0.061035,-0.305176
1843711625,0.00607300,0.00657654,-1.00723267,0.244141,0.061035,-0.244141
1848748333,0.00480652,0.00639343,-1.00755310,0.305176,0.122070,-0.183105
1853718875,0.00335693,0.00578308,-1.00700378,0.244141,0.061035,-0.122070
1858717708,0.00230408,0.00439453,-1.00712585,0.305176,0.183105,-0.061035
1863719041,0.00082397,0.00274658,-1.00746155,0.122070,0.061035,-0.183105
1868768375,-0.00123596,0.00177002,-1.00682068,0.488281,0.183105,0.183105
1873735541,-0.00277710,0.00144958,-1.00535583,0.305176,0.000000,-0.061035
1878743916,-0.00317383,0.00123596,-1.00440979,0.366211,0.061035,-0.061035
1883728166,-0.00285339,0.00111389,-1.00535583,0.244141,0.061035,-0.061035
1888756541,-0.00212097,0.00148010,-1.00683594,0.366211,0.061035,0.061035
1893735875,-0.00105286,0.00239563,-1.00634766,0.366211,0.061035,-0.061035
1898736958,0.00001526,0.00334167,-1.00469971,0.183105,0.122070,-0.061035
1903773625,0.00122070,0.00387573,-1.00447083,0.366211,0.000000,-0.183105
1908746458,0.00283813,0.00393677,-1.00558472,0.366211,0.122070,0.000000
1913776250,0.00401306,0.00352478,-1.00567627,0.427246,0.000000,-0.183105
1918752458,0.00404358,0.00260925,-1.00447083,0.427246,-0.061035,-0.183105
1923742666,0.00398254,0.00119019,-1.00437927,0.488281,-0.061035,-0.061035
1928753375,0.00459290,-0.00015259,-1.00613403,0.488281,-0.061035,-0.122070
1933733208,0.00491333,-0.00033569,-1.00694275,0.610352,0.061035,-0.122070
1938798166,0.00428772,0.00045776,-1.00547791,0.549316,0.122070,0.000000
1943760541,0.00364685,0.00109863,-1.00379944,0.366211,0.000000,-0.122070
1948750333,0.00358582,0.00187683,-1.00439453,0.549316,0.000000,0.000000
1953740666,0.00338745,0.00375366,-1.00691223,0.610352,0.061035,0.061035
1958732708,0.00245667,0.00619507,-1.00817871,0.610352,0.244141,-0.244141
1963739125,0.00158691,0.00799561,-1.00634766,0.732422,0.366211,-0.061035
1968769708,0.00141907,0.00877380,-1.00334167,0.549316,0.488281,-0.183105
1973751041,0.00132751,0.00881958,-1.00209045,0.488281,0.122070,-0.122070
1978783708,0.00097656,0.00820923,-1.00367737,0.122070,0.061035,-0.122070
1983737125,0.00013733,0.00675964,-1.00796509,0.000000,-0.122070,0.000000
1988758791,-0.00131226,0.00462341,-1.01440430,0.183105,0.061035,0.061035
1993758375,-0.00288391,0.00213623,-1.01847839,0.183105,-0.122070,-0.061035
1998749000,-0.00367737,-0.00015259,-1.01400757,0.244141,0.000000,0.000000
2003752083,-0.00296021,-0.00169373,-1.00462341,0.305176,0.000000,0.000000
2008750583,-0.00112915,-0.00204468,-1.00041199,0.244141,0.061035,-0.061035
2013768208,0.00048828,-0.00122070,-1.00276184,0.366211,0.122070,0.061035
2018781916,0.00178528,0.00028992,-1.00521851,0.305176,0.000000,-0.061035
2023745041,0.00386047,0.00170898,-1.00483704,0.366211,0.061035,-0.244141
2028769083,0.00650024,0.00270081,-1.00411987,0.244141,0.000000,-0.122070
2033782166,0.00828552,0.00357056,-1.00469971,0.305176,0.000000,-0.244141
2038756333,0.00857544,0.00462341,-1.00598145,0.366211,-0.061035,-0.061035
2043798541,0.00811768,0.00534058,-1.00686646,0.244141,0.122070,-0.122070
2048753333,0.00765991,0.00508118,-1.00631714,0.244141,-0.061035,-0.244141
2053760625,0.00657654,0.00405884,-1.00569153,0.427246,-0.122070,-0.244141
2058774500,0.00471497,0.00289917,-1.00665283,0.427246,0.061035,-0.061035
2063744916,0.00282288,0.00210571,-1.00726318,0.244141,0.061035,0.061035
2068785041,0.00119019,0.00199890,-1.00657654,0.244141,0.000000,-0.061035
2073776750,-0.00016785,0.00253296,-1.00651550,0.305176,0.122070,0.000000
2078722000,-0.00126648,0.00340271,-1.00680542,0.183105,0.061035,0.122070
2083759666,-0.00205994,0.00459290,-1.00653076,0.366211,0.061035,-0.061035
2088776041,-0.00239563,0.00590515,-1.00679016,0.305176,0.000000,0.061035
2093830625,-0.00247192,0.00671387,-1.00640869,0.305176,0.000000,-0.061035
2098767250,-0.00280762,0.00651550,-1.00465393,0.305176,-0.061035,-0.244141
2103756083,-0.00315857,0.00559998,-1.00444031,0.183105,0.061035,-0.122070
2108771708,-0.00273132,0.00469971,-1.00645447,0.305176,0.000000,0.000000
2113782958,-0.00155640,0.00381470,-1.00755310,0.305176,0.000000,-0.061035
2118774000,-0.00022888,0.00244141,-1.00700378,0.305176,-0.061035,-0.122070
2123779541,0.00093079,0.00105286,-1.00608826,0.488281,0.061035,0.000000
2128786541,0.00196838,0.00036621,-1.00518799,0.427246,0.000000,0.061035
2133775583,0.00288391,0.00036621,-1.00489807,0.427246,-0.061035,0.061035
2138765541,0.00418091,0.00085449,-1.00534058,0.488281,0.000000,-0.183105
2143788083,0.00573730,0.00199890,-1.00602722,0.244141,-0.122070,-0.061035
2148778666,0.00692749,0.00346375,-1.00724792,0.305176,0.061035,-0.122070
2153781708,0.00778198,0.00468445,-1.00804138,0.427246,0.183105,0.000000
2158779958,0.00804138,0.00549316,-1.00727844,0.427246,0.000000,-0.122070
2163795791,0.00744629,0.00556946,-1.00590515,0.366211,0.122070,-0.122070
2168807250,0.00598145,0.00471497,-1.00483704,0.366211,0.061035,-0.366211
2173787375,0.00395203,0.00347900,-1.00468445,0.427246,0.000000,0.000000
2178742541,0.00195312,0.00271606,-1.00621033,0.427246,0.061035,0.000000
2183775583,-0.00003052,0.00210571,-1.00749207,0.366211,0.183105,0.000000
2188810208,-0.00205994,0.00096130,-1.00698853,0.305176,0.183105,-0.122070
2193790875,-0.00358582,-0.00050354,-1.00596619,0.305176,0.183105,-0.061035
2198839916,-0.00410461,-0.00135803,-1.00506592,0.305176,0.183105,-0.122070
2203785916,-0.00379944,-0.00093079,-1.00468445,0.305176,-0.061035,-0.061035
2208815333,-0.00309753,0.00065613,-1.00595093,0.488281,0.061035,0.000000
2213836875,-0.00218201,0.00305176,-1.00761414,0.244141,-0.061035,-0.122070
2218802291,-0.00114441,0.00518799,-1.00744629,0.183105,0.000000,-0.122070
2223806833,0.00039673,0.00601196,-1.00650024,0.305176,-0.122070,-0.122070
2228801375,0.00257874,0.00573730,-1.00701904,0.366211,0.122070,-0.061035
2233783291,0.00451660,0.00534058,-1.00752258,0.366211,0.000000,-0.061035
2238794458,0.00563049,0.00514221,-1.00630188,0.366211,0.000000,-0.122070
2243805541,0.00592041,0.00471497,-1.00506592,0.244141,-0.061035,0.000000
2248813375,0.00556946,0.00398254,-1.00546265,0.244141,0.061035,0.000000
2253803291,0.00511169,0.00315857,-1.00653076,0.244141,0.061035,0.000000
2258809041,0.00476074,0.00236511,-1.00672913,0.366211,0.061035,-0.061035
2263813708,0.00413513,0.00207520,-1.00608826,0.244141,0.122070,0.000000
2268819458,0.00337219,0.00253296,-1.00575256,0.427246,0.183105,0.061035
2273788041,0.00256348,0.00329590,-1.00602722,0.488281,0.244141,0.000000
2278792458,0.00186157,0.00366211,-1.00587463,0.305176,0.244141,0.000000
2283806708,0.00161743,0.00373840,-1.00498962,0.427246,0.061035,-0.061035
2288806875,0.00126648,0.00390625,-1.00451660,0.244141,0.061035,-0.122070
2293786458,0.00006104,0.00436401,-1.00535583,0.305176,0.000000,-0.183105
2298803083,-0.00152588,0.00476074,-1.00688171,0.244141,0.061035,-0.122070
2303836125,-0.00225830,0.00463867,-1.00733948,0.366211,0.000000,-0.122070
2308809666,-0.00164795,0.00416565,-1.00604248,0.305176,0.000000,0.000000
2313833083,-0.00065613,0.00375366,-1.00477600,0.427246,0.000000,-0.061035
2318805625,-0.00025940,0.00329590,-1.00552368,0.427246,0.000000,0.000000
2323815625,0.00000000,0.00280762,-1.00648499,0.488281,0.122070,0.000000
2328837083,0.00094604,0.00289917,-1.00529480,0.549316,0.061035,-0.061035
2333838041,0.00242615,0.00369263,-1.00512695,0.366211,0.122070,0.000000
2338825583,0.00392151,0.00457764,-1.00764465,0.366211,-0.122070,-0.122070
2343855250,0.00512695,0.00537109,-1.00811768,0.366211,0.000000,0.000000
2348821250,0.00582886,0.00582886,-1.00590515,0.427246,0.061035,-0.244141
2353865416,0.00596619,0.00564575,-1.00480652,0.488281,0.122070,-0.122070
2358815333,0.00564575,0.00483704,-1.00529480,0.305176,0.000000,-0.122070
2363808166,0.00468445,0.00355530,-1.00598145,0.488281,0.061035,0.000000
2368820000,0.00315857,0.00186157,-1.00628662,0.427246,0.122070,-0.122070
2373823083,0.00155640,0.00013733,-1.00588989,0.305176,0.183105,-0.122070
2378827541,0.00012207,-0.00126648,-1.00584412,0.305176,0.122070,-0.061035
2383816041,-0.00097656,-0.00236511,-1.00672913,0.305176,0.183105,-0.122070
2388831375,-0.00178528,-0.00288391,-1.00654602,0.305176,0.061035,0.061035
2393899666,-0.00230408,-0.00254822,-1.00492859,0.488281,0.000000,-0.061035
2398828333,-0.00244141,-0.00143433,-1.00479126,0.427246,0.061035,-0.061035
2403827500,-0.00227356,0.00004578,-1.00631714,0.366211,0.000000,-0.061035
2408844333,-0.00141907,0.00161743,-1.00697327,0.427246,0.061035,0.000000
2413833291,0.00024414,0.00355530,-1.00651550,0.244141,0.122070,0.000000
2418819666,0.00202942,0.00575256,-1.00608826,0.244141,-0.061035,-0.061035
2423838666,0.00360107,0.00749207,-1.00602722,0.427246,0.061035,-0.183105
2428834708,0.00468445,0.00834656,-1.00593567,0.427246,0.122070,-0.061035
2433831958,0.00486755,0.00857544,-1.00526428,0.305176,0.122070,-0.122070
2438827000,0.00466919,0.00828552,-1.00469971,0.366211,0.122070,-0.122070
2443891500,0.00476074,0.00743103,-1.00540161,0.366211,0.061035,-0.061035
2448833875,0.00511169,0.00616455,-1.00680542,0.244141,0.122070,0.000000
2453823916,0.00527954,0.00463867,-1.00689697,0.366211,0.061035,-0.061035
2458850625,0.00494385,0.00315857,-1.00569153,0.244141,0.122070,0.061035
2463833416,0.00447083,0.00224304,-1.00509644,0.244141,0.061035,-0.061035
2468850041,0.00408936,0.00178528,-1.00604248,0.305176,0.183105,-0.061035
2473851375,0.00341797,0.00151062,-1.00717163,0.305176,0.183105,-0.061035
2478859000,0.00233459,0.00140381,-1.00708008,0.244141,0.122070,-0.061035
2483840000,0.00109863,0.00132751,-1.00640869,0.183105,0.000000,0.000000
2488838875,-0.00013733,0.00109863,-1.00628662,0.366211,0.061035,-0.122070
2493877125,-0.00119019,0.00076294,-1.00675964,0.122070,0.000000,-0.183105
2498872500,-0.00160217,0.00050354,-1.00675964,0.305176,0.061035,-0.061035
2503858333,-0.00155640,0.00056458,-1.00593567,0.305176,0.000000,-0.061035
2508988125,-0.00138855,0.00086975,-1.00569153,0.183105,0.061035,0.000000
2513894458,-0.00105286,0.00123596,-1.00660706,0.122070,0.000000,0.061035
2518875000,-0.00035095,0.00164795,-1.00718689,0.366211,0.061035,-0.122070
2523871750,0.00032043,0.00199890,-1.00651550,0.183105,0.061035,-0.061035
2528857291,0.00077820,0.00253296,-1.00556946,0.122070,-0.061035,-0.061035
2533887250,0.00167847,0.00347900,-1.00540161,0.183105,-0.122070,0.000000
2538845000,0.00329590,0.00460815,-1.00573730,0.244141,0.122070,0.000000
2543915750,0.00468445,0.00564575,-1.00559998,0.305176,-0.061035,-0.122070
2548891666,0.00500488,0.00628662,-1.00515747,0.183105,0.061035,-0.183105
2553876083,0.00483704,0.00640869,-1.00532532,0.244141,0.000000,-0.122070
2558860708,0.00503540,0.00593567,-1.00598145,0.305176,0.061035,0.000000
2563870125,0.00488281,0.00486755,-1.00598145,0.427246,0.061035,0.000000
2568886666,0.00372314,0.00370789,-1.00523376,0.305176,0.061035,0.000000
2573899500,0.00238037,0.00268555,-1.00500488,0.305176,0.000000,0.000000
2578909375,0.00175476,0.00144958,-1.00601196,0.427246,0.061035,-0.122070
2583887666,0.00141907,0.00028992,-1.00683594,0.244141,0.061035,-0.061035
2588864666,0.00045776,-0.00015259,-1.00604248,0.305176,0.000000,-0.061035
2593880041,-0.00076294,0.00018311,-1.00523376,0.244141,0.061035,-0.061035
2598851333,-0.00100708,0.00123596,-1.00575256,0.305176,0.061035,-0.061035
2603858125,-0.00022888,0.00248718,-1.00602722,0.366211,0.000000,0.061035
2608862666,0.00035095,0.00332642,-1.00508118,0.305176,0.061035,0.000000
2613903125,0.00025940,0.00373840,-1.00418091,0.244141,0.122070,-0.122070
2618903875,0.00021362,0.00402832,-1.00465393,0.305176,0.000000,-0.183105
2623868458,0.00083923,0.00416565,-1.00596619,0.305176,0.122070,-0.061035
2628900750,0.00187683,0.00401306,-1.00671387,0.244141,-0.061035,0.000000
2633894083,0.00257874,0.00360107,-1.00622559,0.183105,0.000000,-0.061035
2638896666,0.00300598,0.00305176,-1.00593567,0.122070,-0.061035,-0.061035
2643878416,0.00360107,0.00253296,-1.00708008,0.244141,0.061035,-0.122070
2648918250,0.00422668,0.00205994,-1.00775146,0.244141,0.061035,-0.061035
2653894083,0.00445557,0.00193787,-1.00643921,0.244141,0.061035,0.000000
2658896791,0.00424194,0.00256348,-1.00521851,0.122070,0.000000,-0.061035
2663962625,0.00395203,0.00341797,-1.00566101,0.244141,0.122070,-0.061035
2668886208,0.00382996,0.00413513,-1.00672913,0.305176,0.183105,-0.061035
2673872166,0.00378418,0.00469971,-1.00640869,0.183105,0.122070,0.000000
2678934666,0.00364685,0.00512695,-1.00447083,0.305176,0.061035,-0.183105
2683876375,0.00331116,0.00531006,-1.00338745,0.427246,0.183105,-0.122070
2688899375,0.00253296,0.00505066,-1.00505066,0.244141,0.122070,0.000000
2693912541,0.00128174,0.00433350,-1.00704956,0.183105,0.000000,-0.122070
2698914708,-0.00007629,0.00350952,-1.00651550,0.122070,0.061035,-0.122070
2703900666,-0.00093079,0.00273132,-1.00515747,0.183105,0.122070,0.000000
2708890291,-0.00112915,0.00180054,-1.00595093,0.305176,0.000000,-0.122070
2713922666,-0.00094604,0.00114441,-1.00779724,0.305176,0.000000,-0.061035
2718902833,-0.00035095,0.00103760,-1.00750732,0.244141,-0.122070,-0.183105
2723915250,0.00088501,0.00123596,-1.00508118,0.366211,0.000000,0.000000
2728921041,0.00230408,0.00177002,-1.00428772,0.244141,0.000000,-0.061035
2733898541,0.00328064,0.00219727,-1.00633240,0.427246,0.000000,-0.061035
2738878750,0.00389099,0.00221252,-1.00770569,0.305176,0.183105,0.061035
2743927541,0.00404358,0.00245667,-1.00648499,0.305176,0.000000,-0.061035
2748881583,0.00363159,0.00337219,-1.00559998,0.305176,0.000000,-0.122070
2754014541,0.00291443,0.00427246,-1.00714111,0.366211,0.122070,0.000000
2758904541,0.00207520,0.00456238,-1.00781250,0.122070,0.000000,-0.061035
2763924708,0.00166321,0.00442505,-1.00610352,0.427246,-0.061035,-0.122070
2768918625,0.00169373,0.00413513,-1.00505066,0.244141,0.183105,0.000000
2773898958,0.00115967,0.00363159,-1.00500488,0.244141,0.061035,-0.061035
2778932708,0.00044250,0.00300598,-1.00515747,0.244141,0.122070,0.000000
2783899625,0.00061035,0.00257874,-1.00619507,0.305176,0.122070,0.000000
2788913958,0.00129700,0.00273132,-1.00637817,0.488281,0.061035,-0.061035
2793951875,0.00177002,0.00289917,-1.00534058,0.366211,0.061035,-0.183105
2798929625,0.00187683,0.00247192,-1.00541687,0.305176,0.000000,-0.122070
2803929083,0.00177002,0.00212097,-1.00573730,0.366211,0.061035,-0.244141
2808934458,0.00204468,0.00241089,-1.00535583,0.366211,0.000000,-0.061035
2813933416,0.00238037,0.00305176,-1.00544739,0.244141,0.000000,-0.122070
2819009500,0.00236511,0.00321960,-1.00538635,0.305176,0.122070,0.000000
2823940625,0.00248718,0.00273132,-1.00456238,0.244141,-0.061035,0.000000
2828933458,0.00279236,0.00201416,-1.00453186,0.244141,0.000000,-0.122070
2833945375,0.00280762,0.00164795,-1.00524902,0.427246,0.061035,-0.061035
2838934375,0.00273132,0.00209045,-1.00566101,0.427246,0.122070,0.000000
2843915750,0.00280762,0.00286865,-1.00572205,0.366211,0.183105,-0.061035
2848955041,0.00260925,0.00344849,-1.00538635,0.244141,0.061035,-0.061035
2853939583,0.00161743,0.00395203,-1.00535583,0.305176,-0.061035,-0.061035
2858922875,0.00036621,0.00465393,-1.00643921,0.305176,0.061035,-0.244141
2863929125,-0.00042725,0.00529480,-1.00758362,0.305176,0.061035,-0.122070
2868943666,-0.00057983,0.00550842,-1.00773621,0.244141,0.061035,-0.122070
2873961375,-0.00015259,0.00497437,-1.00721741,0.244141,0.000000,-0.061035
2878950875,0.00025940,0.00398254,-1.00651550,0.244141,0.000000,-0.122070
2883925500,0.00038147,0.00331116,-1.00622559,0.305176,-0.122070,-0.122070
2888925166,0.00035095,0.00297546,-1.00653076,0.183105,0.061035,0.000000
2893941583,0.00079346,0.00262451,-1.00692749,0.183105,0.000000,-0.061035
2898936958,0.00170898,0.00248718,-1.00706482,0.244141,-0.061035,0.000000
2903946250,0.00242615,0.00270081,-1.00695801,0.305176,-0.061035,-0.183105
2908938833,0.00257874,0.00294495,-1.00662231,0.427246,0.122070,0.000000
2913951916,0.00250244,0.00325012,-1.00584412,0.366211,0.000000,-0.183105
2918952875,0.00270081,0.00415039,-1.00517273,0.305176,0.000000,0.000000
2924007125,0.00299072,0.00547791,-1.00526428,0.244141,-0.122070,-0.122070
2928943666,0.00253296,0.00631714,-1.00590515,0.305176,-0.061035,-0.061035
2933940791,0.00173950,0.00627136,-1.00617981,0.366211,0.000000,-0.061035
2938962916,0.00152588,0.00599670,-1.00575256,0.305176,0.122070,-0.061035
2943944291,0.00151062,0.00575256,-1.00521851,0.305176,-0.061035,-0.244141
2948968541,0.00112915,0.00509644,-1.00544739,0.305176,0.000000,-0.061035
2953952416,0.00093079,0.00413513,-1.00640869,0.183105,-0.183105,-0.183105
2958936333,0.00122070,0.00338745,-1.00753784,0.244141,0.000000,0.000000
2963907750,0.00154114,0.00280762,-1.00747681,0.366211,0.061035,0.000000
2968958958,0.00154114,0.00205994,-1.00614929,0.244141,-0.061035,-0.122070
2973925166,0.00141907,0.00111389,-1.00544739,0.183105,0.122070,-0.061035
2979005625,0.00144958,0.00028992,-1.00602722,0.366211,0.183105,0.000000
2983962208,0.00180054,-0.00016785,-1.00648499,0.366211,0.000000,0.000000
2988978416,0.00236511,-0.00036621,-1.00515747,0.244141,0.000000,-0.061035
2993968416,0.00289917,0.00000000,-1.00431824,0.305176,0.000000,-0.061035
2998971208,0.00350952,0.00103760,-1.00569153,0.366211,0.061035,0.000000
3003950625,0.00419617,0.00204468,-1.00688171,0.427246,0.000000,0.061035
3008934291,0.00451660,0.00297546,-1.00665283,0.244141,-0.061035,-0.122070
3013980125,0.00424194,0.00421143,-1.00511169,0.488281,0.122070,-0.122070
3018988166,0.00335693,0.00523376,-1.00440979,0.366211,0.000000,-0.122070
3023944625,0.00215149,0.00558472,-1.00582886,0.366211,0.000000,-0.061035
3029007916,0.00152588,0.00584412,-1.00611877,0.244141,0.061035,0.000000
3033968125,0.00157166,0.00640869,-1.00488281,0.366211,0.000000,-0.061035
3038970166,0.00140381,0.00669861,-1.00483704,0.366211,0.183105,-0.122070
3043994625,0.00065613,0.00648499,-1.00544739,0.366211,-0.061035,-0.122070
3048983833,-0.00019836,0.00627136,-1.00553894,0.427246,-0.122070,-0.122070
3053925416,-0.00059509,0.00624084,-1.00523376,0.488281,0.122070,-0.061035
3058957166,-0.00050354,0.00605774,-1.00486755,0.366211,0.244141,0.000000
3064102791,-0.00006104,0.00537109,-1.00520325,0.427246,0.183105,-0.122070
3068994500,0.00051880,0.00411987,-1.00630188,0.366211,0.000000,-0.122070
3073987000,0.00094604,0.00257874,-1.00675964,0.366211,0.061035,-0.122070
3078974666,0.00105286,0.00105286,-1.00593567,0.366211,0.000000,-0.122070
3084084916,0.00111389,-0.00042725,-1.00537109,0.427246,0.000000,-0.061035
3088975125,0.00151062,-0.00180054,-1.00611877,0.305176,0.122070,0.000000
3093988125,0.00219727,-0.00262451,-1.00714111,0.488281,0.122070,-0.183105
3098992083,0.00288391,-0.00238037,-1.00718689,0.366211,0.061035,-0.183105
3103948166,0.00346375,-0.00148010,-1.00633240,0.366211,-0.122070,-0.061035
3108979625,0.00399780,-0.00057983,-1.00558472,0.244141,0.000000,0.000000
3114026583,0.00433350,0.00021362,-1.00576782,0.305176,0.061035,-0.122070
3118972208,0.00430298,0.00155640,-1.00653076,0.427246,0.000000,-0.061035
3124013833,0.00448608,0.00372314,-1.00675964,0.488281,0.122070,-0.122070
3128975166,0.00483704,0.00581360,-1.00621033,0.244141,0.000000,0.000000
3133960291,0.00447083,0.00704956,-1.00544739,0.427246,0.061035,-0.061035
3138960958,0.00326538,0.00752258,-1.00500488,0.366211,0.122070,-0.061035
3143974875,0.00199890,0.00765991,-1.00535583,0.488281,0.122070,0.000000
3148997875,0.00111389,0.00749207,-1.00611877,0.427246,0.061035,0.000000
3153986791,0.00048828,0.00700378,-1.00668335,0.122070,-0.122070,-0.122070
3158960375,0.00003052,0.00614929,-1.00709534,0.366211,0.000000,0.000000
3164162750,-0.00024414,0.00483704,-1.00723267,0.244141,0.122070,0.061035
3168975208,-0.00030518,0.00335693,-1.00701904,0.366211,0.061035,0.000000
3173975583,0.00022888,0.00202942,-1.00608826,0.305176,-0.061035,0.000000
3179001875,0.00088501,0.00077820,-1.00427246,0.488281,-0.061035,0.000000
3184044166,0.00096130,-0.00021362,-1.00381470,0.305176,0.000000,-0.122070
3189045375,0.00070190,-0.00059509,-1.00563049,0.305176,0.061035,-0.122070
3194018916,0.00085449,-0.00038147,-1.00697327,0.183105,0.122070,-0.061035
3199006958,0.00149536,-0.00009155,-1.00663757,0.305176,0.122070,-0.061035
3204008166,0.00231934,-0.00019836,-1.00556946,0.244141,0.061035,-0.183105
3208998958,0.00283813,-0.00042725,-1.00564575,0.366211,0.183105,0.061035
3214014791,0.00277710,-0.00038147,-1.00726318,0.366211,0.000000,-0.061035
3219012958,0.00268555,0.00006104,-1.00749207,0.305176,0.061035,-0.061035
3224004625,0.00297546,0.00080872,-1.00523376,0.305176,0.000000,0.061035
3228975208,0.00296021,0.00172424,-1.00469971,0.366211,0.000000,-0.061035
3233960333,0.00234985,0.00270081,-1.00706482,0.305176,0.061035,-0.061035
3239033875,0.00181580,0.00379944,-1.00836182,0.366211,0.000000,0.061035
3244006291,0.00141907,0.00518799,-1.00738525,0.305176,0.183105,0.000000
3248970041,0.00093079,0.00691223,-1.00607300,0.427246,-0.061035,-0.122070
3254040083,0.00054932,0.00836182,-1.00593567,0.366211,-0.061035,-0.122070
3258981041,0.00061035,0.00875854,-1.00701904,0.183105,0.061035,-0.122070
3264235583,0.00093079,0.00825500,-1.00720215,0.305176,0.122070,0.000000
3269001416,0.00114441,0.00743103,-1.00611877,0.305176,0.122070,0.000000
3274016291,0.00071716,0.00627136,-1.00614929,0.427246,0.061035,-0.122070
3279042208,-0.00004578,0.00456238,-1.00688171,0.427246,0.122070,-0.061035
3283980125,0.00003052,0.00242615,-1.00633240,0.244141,0.000000,0.000000
3289067000,0.00080872,0.00056458,-1.00552368,0.488281,0.122070,0.122070
3294014041,0.00138855,-0.00038147,-1.00544739,0.305176,0.061035,-0.122070
3298991875,0.00202942,-0.00041199,-1.00611877,0.427246,0.000000,-0.122070
3303985208,0.00311279,0.00024414,-1.00653076,0.305176,0.061035,-0.122070
3308989708,0.00408936,0.00090027,-1.00578308,0.244141,0.061035,-0.183105
3313998583,0.00421143,0.00123596,-1.00544739,0.366211,0.061035,-0.061035
3319036083,0.00369263,0.00146484,-1.00650024,0.244141,0.000000,-0.122070
3323997666,0.00297546,0.00186157,-1.00744629,0.366211,-0.061035,-0.183105
3329029500,0.00212097,0.00238037,-1.00724792,0.427246,0.000000,-0.122070
3333991125,0.00128174,0.00257874,-1.00598145,0.488281,0.183105,-0.061035
3339006625,0.00086975,0.00231934,-1.00444031,0.183105,0.061035,-0.061035
3344007416,0.00080872,0.00204468,-1.00369263,0.305176,0.122070,-0.061035
3349017833,0.00051880,0.00216675,-1.00459290,0.305176,-0.061035,-0.061035
3354035666,-0.00024414,0.00274658,-1.00662231,0.305176,-0.061035,0.000000
3359027000,-0.00068665,0.00370789,-1.00785828,0.305176,0.122070,-0.122070
3363929541,-0.00021362,0.00460815,-1.00683594,0.305176,0.061035,-0.061035
3369013166,0.00032043,0.00498962,-1.00466919,0.244141,-0.061035,-0.122070
3374039333,0.00062561,0.00495911,-1.00427246,0.244141,0.183105,0.061035
3379061833,0.00146484,0.00485229,-1.00608826,0.366211,0.061035,-0.061035
3384073166,0.00286865,0.00469971,-1.00715637,0.305176,0.000000,-0.061035
3389034000,0.00386047,0.00434875,-1.00660706,0.305176,-0.061035,-0.122070
3394082791,0.00389099,0.00349426,-1.00648499,0.366211,0.000000,0.000000
3399036041,0.00347900,0.00209045,-1.00735474,0.305176,-0.061035,-0.122070
3404052000,0.00321960,0.00100708,-1.00735474,0.488281,0.122070,-0.061035
3409025791,0.00297546,0.00076294,-1.00509644,0.366211,-0.061035,0.061035
3414043958,0.00248718,0.00103760,-1.00395203,0.244141,-0.061035,-0.061035
3419114500,0.00221252,0.00129700,-1.00650024,0.183105,-0.061035,-0.183105
3424099000,0.00259399,0.00132751,-1.00831604,0.488281,0.122070,-0.061035
3429062791,0.00309753,0.00143433,-1.00650024,0.305176,0.061035,0.061035
3434044375,0.00285339,0.00158691,-1.00439453,0.366211,0.061035,0.061035
3439059833,0.00192261,0.00175476,-1.00460815,0.305176,0.061035,-0.061035
3444288166,0.00102234,0.00225830,-1.00556946,0.183105,0.000000,-0.122070
3449112583,0.00059509,0.00289917,-1.00605774,0.244141,-0.061035,-0.061035
3454080000,0.00080872,0.00321960,-1.00621033,0.366211,0.000000,-0.061035
3459048541,0.00129700,0.00326538,-1.00607300,0.305176,-0.061035,-0.122070
3464050333,0.00091553,0.00355530,-1.00682068,0.427246,0.000000,0.000000
3469027500,-0.00007629,0.00398254,-1.00775146,0.366211,0.061035,0.000000
3474033375,-0.00062561,0.00381470,-1.00679016,0.305176,0.061035,0.061035
3479041458,-0.00054932,0.00320435,-1.00590515,0.183105,0.000000,0.000000
3484008166,0.00006104,0.00294495,-1.00677490,0.305176,0.000000,0.000000
3489081916,0.00108337,0.00329590,-1.00737000,0.122070,0.061035,-0.061035
3494032166,0.00213623,0.00347900,-1.00657654,0.244141,0.061035,-0.122070
3499031666,0.00320435,0.00338745,-1.00514221,0.366211,0.000000,-0.122070
3504055875,0.00422668,0.00360107,-1.00418091,0.366211,0.061035,-0.122070
3509077500,0.00491333,0.00411987,-1.00532532,0.366211,0.061035,-0.061035
3514096500,0.00483704,0.00451660,-1.00744629,0.366211,0.122070,-0.122070
3519070208,0.00415039,0.00416565,-1.00712585,0.488281,0.122070,-0.061035
3524028083,0.00358582,0.00328064,-1.00508118,0.305176,-0.061035,-0.061035
3529036583,0.00341797,0.00279236,-1.00482178,0.244141,0.122070,-0.061035
3534078500,0.00329590,0.00270081,-1.00697327,0.366211,0.183105,0.061035
3539062875,0.00265503,0.00251770,-1.00863647,0.244141,0.183105,0.000000
3544053708,0.00167847,0.00201416,-1.00744629,0.427246,0.000000,-0.061035
3549086333,0.00126648,0.00137329,-1.00567627,0.305176,0.000000,-0.122070
3554041541,0.00149536,0.00123596,-1.00634766,0.305176,0.000000,0.000000
3559038791,0.00137329,0.00173950,-1.00787354,0.305176,0.000000,-0.061035
3564016208,0.00062561,0.00231934,-1.00711060,0.244141,0.122070,-0.183105
3569057166,-0.00022888,0.00262451,-1.00469971,0.183105,-0.122070,-0.183105
3574070375,-0.00033569,0.00289917,-1.00463867,0.305176,0.061035,-0.061035
3579079875,0.00047302,0.00325012,-1.00737000,0.366211,0.061035,0.000000
3584050916,0.00088501,0.00331116,-1.00848389,0.366211,0.122070,0.000000
3589092208,0.00059509,0.00303650,-1.00625610,0.366211,0.122070,-0.061035
3594070291,0.00097656,0.00282288,-1.00379944,0.488281,0.000000,0.000000
3599037500,0.00199890,0.00280762,-1.00476074,0.488281,0.122070,0.000000
3604062208,0.00259399,0.00286865,-1.00775146,0.305176,0.000000,-0.061035
3609057958,0.00263977,0.00306702,-1.00807190,0.488281,0.122070,0.000000
3614065291,0.00282288,0.00344849,-1.00610352,0.305176,-0.061035,0.061035
3619070416,0.00305176,0.00376892,-1.00578308,0.244141,0.000000,-0.061035
3624045500,0.00276184,0.00369263,-1.00717163,0.305176,0.061035,-0.122070
3629056916,0.00244141,0.00344849,-1.00733948,0.305176,0.122070,-0.122070
3634081208,0.00260925,0.00332642,-1.00561523,0.427246,0.061035,-0.122070
3639081041,0.00285339,0.00302124,-1.00541687,0.366211,0.061035,0.061035
3644071833,0.00267029,0.00224304,-1.00753784,0.244141,0.000000,0.000000
3649086916,0.00219727,0.00152588,-1.00836182,0.427246,0.122070,0.000000
3654157416,0.00180054,0.00131226,-1.00669861,0.488281,0.000000,0.000000
3659063500,0.00128174,0.00140381,-1.00498962,0.427246,-0.061035,0.061035
3664076250,0.00051880,0.00148010,-1.00573730,0.366211,0.061035,0.000000
3669086083,0.00003052,0.00152588,-1.00791931,0.183105,0.000000,0.000000
3674082833,0.00022888,0.00177002,-1.00796509,0.183105,0.061035,-0.061035
3679098208,0.00064087,0.00224304,-1.00616455,0.183105,0.000000,0.061035
3684103791,0.00062561,0.00273132,-1.00573730,0.366211,0.000000,-0.061035
3689107833,0.00062561,0.00297546,-1.00695801,0.183105,0.000000,-0.061035
3694103875,0.00108337,0.00308228,-1.00708008,0.427246,0.244141,0.000000
3699065541,0.00172424,0.00344849,-1.00561523,0.244141,0.000000,-0.122070
3704056416,0.00228882,0.00393677,-1.00492859,0.427246,0.000000,-0.122070
3709079791,0.00248718,0.00381470,-1.00587463,0.366211,0.061035,-0.122070
3714092041,0.00230408,0.00323486,-1.00631714,0.244141,0.000000,-0.061035
3719088000,0.00233459,0.00308228,-1.00578308,0.305176,0.061035,-0.061035
3724079375,0.00282288,0.00350952,-1.00593567,0.366211,0.000000,-0.122070
3729067333,0.00318909,0.00376892,-1.00695801,0.488281,0.061035,0.000000
3734092833,0.00292969,0.00350952,-1.00737000,0.366211,0.000000,0.000000
3739087541,0.00256348,0.00286865,-1.00624084,0.366211,0.000000,-0.061035
3744129208,0.00242615,0.00233459,-1.00505066,0.488281,0.061035,-0.122070
3749133625,0.00225830,0.00225830,-1.00549316,0.244141,0.122070,-0.061035
3754105125,0.00218201,0.00230408,-1.00659180,0.305176,0.183105,0.000000
3759131000,0.00239563,0.00216675,-1.00675964,0.305176,0.122070,0.061035
3764116375,0.00248718,0.00233459,-1.00631714,0.366211,0.061035,0.061035
3769080916,0.00207520,0.00303650,-1.00640869,0.305176,0.122070,-0.122070
3774091166,0.00134277,0.00372314,-1.00682068,0.183105,-0.061035,-0.061035
3779128250,0.00088501,0.00393677,-1.00633240,0.366211,0.000000,-0.122070
3784108875,0.00071716,0.00369263,-1.00541687,0.244141,0.183105,0.061035
3789086416,0.00067139,0.00331116,-1.00564575,0.305176,0.061035,-0.061035
3794082875,0.00079346,0.00270081,-1.00674438,0.366211,0.061035,0.000000
3799078916,0.00100708,0.00158691,-1.00711060,0.305176,0.122070,-0.061035
3804101916,0.00126648,0.00085449,-1.00637817,0.244141,0.000000,0.000000
3809098875,0.00151062,0.00154114,-1.00599670,0.244141,0.000000,-0.061035
3814117583,0.00186157,0.00288391,-1.00654602,0.183105,0.061035,0.000000
3819090500,0.00236511,0.00360107,-1.00679016,0.305176,0.000000,-0.122070
3824129000,0.00280762,0.00357056,-1.00607300,0.244141,0.122070,0.000000
3829159041,0.00296021,0.00341797,-1.00547791,0.366211,0.122070,-0.061035
3834089500,0.00288391,0.00338745,-1.00575256,0.366211,0.061035,-0.122070
3839116375,0.00300598,0.00357056,-1.00608826,0.122070,0.000000,0.000000
3844104125,0.00328064,0.00393677,-1.00595093,0.305176,0.000000,-0.061035
3849110833,0.00314331,0.00395203,-1.00611877,0.305176,0.122070,0.000000
3854112833,0.00238037,0.00360107,-1.00686646,0.305176,0.183105,0.000000
3859112041,0.00146484,0.00329590,-1.00730896,0.366211,0.000000,-0.122070
3864129916,0.00094604,0.00300598,-1.00653076,0.488281,0.061035,0.000000
3869125208,0.00086975,0.00238037,-1.00531006,0.366211,-0.061035,-0.061035
3874127208,0.00099182,0.00178528,-1.00518799,0.244141,0.000000,-0.183105
3879173625,0.00117493,0.00205994,-1.00617981,0.427246,0.061035,-0.061035
3884136041,0.00099182,0.00289917,-1.00642395,0.427246,0.183105,-0.061035
3889104458,0.00039673,0.00309753,-1.00514221,0.305176,0.061035,-0.061035
3894132833,0.00016785,0.00238037,-1.00421143,0.305176,0.183105,-0.061035
3899104833,0.00077820,0.00160217,-1.00532532,0.183105,0.000000,-0.244141
3904093208,0.00152588,0.00146484,-1.00708008,0.244141,0.122070,-0.122070
3909125333,0.00164795,0.00172424,-1.00729370,0.366211,0.000000,-0.122070
3914201500,0.00117493,0.00189209,-1.00628662,0.366211,0.061035,-0.061035
3919133791,0.00070190,0.00210571,-1.00593567,0.244141,0.000000,0.000000
3924109666,0.00073242,0.00236511,-1.00619507,0.366211,0.000000,0.000000
3929126500,0.00119019,0.00248718,-1.00559998,0.305176,0.000000,-0.122070
3934136458,0.00180054,0.00267029,-1.00413513,0.305176,0.061035,0.000000
3939102833,0.00228882,0.00328064,-1.00393677,0.305176,0.122070,-0.122070
3944118791,0.00230408,0.00421143,-1.00585938,0.305176,0.183105,-0.061035
3949129916,0.00193787,0.00486755,-1.00769043,0.366211,0.000000,-0.061035
3954115458,0.00177002,0.00503540,-1.00709534,0.305176,0.000000,-0.122070
3959150916,0.00209045,0.00511169,-1.00518799,0.305176,0.122070,-0.061035
3964141875,0.00242615,0.00524902,-1.00473022,0.244141,0.061035,-0.122070
3969144625,0.00250244,0.00508118,-1.00604248,0.183105,0.061035,-0.122070
3974130208,0.00234985,0.00440979,-1.00663757,0.366211,0.000000,-0.061035
3979177750,0.00196838,0.00347900,-1.00566101,0.122070,0.122070,-0.061035
3984156666,0.00173950,0.00263977,-1.00535583,0.427246,0.183105,0.000000
3989114833,0.00198364,0.00212097,-1.00680542,0.183105,0.061035,-0.061035
3994148666,0.00205994,0.00177002,-1.00779724,0.366211,-0.122070,-0.061035
3999152166,0.00175476,0.00141907,-1.00677490,0.244141,0.000000,-0.061035
4004146291,0.00163269,0.00114441,-1.00549316,0.305176,0.000000,-0.122070
4009152416,0.00157166,0.00112915,-1.00588989,0.122070,0.061035,-0.061035
4014150333,0.00125122,0.00115967,-1.00679016,0.305176,0.000000,-0.122070
4019218500,0.00123596,0.00129700,-1.00622559,0.305176,0.061035,-0.061035
4024138375,0.00175476,0.00198364,-1.00485229,0.305176,0.000000,-0.061035
4029153416,0.00231934,0.00257874,-1.00518799,0.183105,0.000000,-0.183105
4034171000,0.00251770,0.00228882,-1.00698853,0.244141,0.061035,-0.183105
4039160833,0.00233459,0.00180054,-1.00735474,0.183105,0.061035,0.000000
4044146791,0.00207520,0.00231934,-1.00601196,0.244141,0.061035,-0.122070
4049169791,0.00210571,0.00344849,-1.00538635,0.427246,0.000000,-0.122070
4054168916,0.00233459,0.00405884,-1.00617981,0.427246,0.061035,0.061035
4059150125,0.00233459,0.00404358,-1.00697327,0.305176,0.183105,-0.061035
4064169208,0.00213623,0.00402832,-1.00657654,0.366211,0.061035,-0.122070
4069169250,0.00216675,0.00447083,-1.00582886,0.183105,0.122070,-0.061035
4074162750,0.00236511,0.00495911,-1.00630188,0.244141,0.061035,-0.122070
4079188375,0.00230408,0.00480652,-1.00753784,0.366211,0.061035,-0.122070
4084141750,0.00187683,0.00422668,-1.00767517,0.244141,0.122070,-0.244141
4089161666,0.00167847,0.00341797,-1.00648499,0.427246,-0.061035,-0.061035
4094177125,0.00201416,0.00259399,-1.00572205,0.366211,0.061035,-0.122070
4099184166,0.00221252,0.00201416,-1.00624084,0.305176,0.000000,-0.061035
4104149166,0.00183105,0.00158691,-1.00636292,0.366211,0.122070,0.000000
4109179500,0.00154114,0.00123596,-1.00532532,0.366211,0.122070,0.061035
4114200333,0.00152588,0.00125122,-1.00514221,0.244141,0.061035,-0.061035
4119173666,0.00132751,0.00154114,-1.00648499,0.244141,-0.061035,0.000000
4124257333,0.00122070,0.00167847,-1.00730896,0.244141,0.000000,-0.122070
4129189583,0.00172424,0.00135803,-1.00642395,0.427246,0.122070,0.000000
4134185791,0.00213623,0.00120544,-1.00544739,0.244141,0.244141,0.000000
4139185625,0.00184631,0.00184631,-1.00605774,0.305176,0.183105,-0.061035
4144181375,0.00137329,0.00292969,-1.00723267,0.366211,0.122070,-0.122070
4149201833,0.00167847,0.00372314,-1.00689697,0.244141,0.000000,-0.183105
4154187625,0.00265503,0.00378418,-1.00541687,0.183105,-0.122070,-0.061035
4159143583,0.00305176,0.00369263,-1.00503540,0.366211,0.061035,0.000000
4164191458,0.00251770,0.00413513,-1.00614929,0.305176,0.061035,0.061035
4169179708,0.00205994,0.00474548,-1.00697327,0.366211,0.061035,-0.061035
4174182416,0.00189209,0.00473022,-1.00630188,0.244141,0.122070,-0.122070
4179161166,0.00166321,0.00401306,-1.00544739,0.244141,0.122070,-0.122070
4184170000,0.00155640,0.00328064,-1.00602722,0.366211,-0.061035,0.000000
4189161458,0.00154114,0.00294495,-1.00749207,0.427246,0.061035,-0.122070
4194165458,0.00161743,0.00276184,-1.00756836,0.305176,0.000000,-0.122070
4199196875,0.00158691,0.00253296,-1.00596619,0.244141,0.000000,-0.122070
4204168500,0.00140381,0.00239563,-1.00495911,0.305176,-0.061035,0.000000
4209170291,0.00146484,0.00239563,-1.00608826,0.366211,0.122070,-0.122070
4214216291,0.00164795,0.00231934,-1.00729370,0.427246,0.000000,-0.061035
4219168875,0.00140381,0.00202942,-1.00627136,0.427246,0.061035,-0.061035
4224172958,0.00111389,0.00190735,-1.00465393,0.183105,-0.122070,0.000000
4229240250,0.00132751,0.00222778,-1.00527954,0.305176,0.122070,-0.122070
4234193125,0.00193787,0.00250244,-1.00682068,0.366211,0.061035,0.000000
4239244333,0.00225830,0.00260925,-1.00692749,0.366211,0.061035,-0.183105
4244225500,0.00224304,0.00276184,-1.00640869,0.305176,0.000000,0.000000
4249206458,0.00221252,0.00294495,-1.00646973,0.244141,0.122070,-0.061035
4254212750,0.00210571,0.00315857,-1.00628662,0.122070,0.122070,-0.061035
4259206541,0.00204468,0.00335693,-1.00524902,0.183105,0.000000,-0.122070
4264195791,0.00224304,0.00341797,-1.00445557,0.366211,0.061035,-0.061035
4269180458,0.00242615,0.00355530,-1.00500488,0.305176,0.000000,0.000000
4274183833,0.00236511,0.00393677,-1.00607300,0.427246,0.000000,-0.122070
4279312208,0.00196838,0.00416565,-1.00633240,0.427246,0.000000,-0.122070
4284201000,0.00155640,0.00427246,-1.00569153,0.366211,0.061035,-0.122070
4289237958,0.00143433,0.00411987,-1.00521851,0.366211,0.061035,0.061035
4294177416,0.00144958,0.00349426,-1.00579834,0.305176,0.122070,-0.061035
4299187458,0.00129700,0.00292969,-1.00671387,0.305176,0.000000,-0.122070
4304164791,0.00096130,0.00274658,-1.00671387,0.305176,0.000000,-0.183105
4309179958,0.00105286,0.00251770,-1.00616455,0.183105,0.061035,-0.122070
4314192708,0.00172424,0.00205994,-1.00622559,0.244141,0.061035,-0.061035
4319180000,0.00224304,0.00173950,-1.00674438,0.305176,0.061035,-0.061035
4324181250,0.00207520,0.00196838,-1.00650024,0.366211,0.061035,0.061035
4329206083,0.00164795,0.00236511,-1.00563049,0.244141,0.000000,0.061035
4334168333,0.00172424,0.00251770,-1.00543213,0.366211,0.000000,0.000000
4339195708,0.00222778,0.00256348,-1.00614929,0.244141,0.061035,-0.061035
4344220166,0.00263977,0.00279236,-1.00637817,0.183105,0.122070,0.000000
4349190125,0.00260925,0.00305176,-1.00550842,0.305176,0.061035,0.000000
4354176208,0.00222778,0.00309753,-1.00483704,0.366211,0.122070,0.000000
4359226125,0.00192261,0.00320435,-1.00547791,0.305176,-0.122070,-0.183105
4364223833,0.00192261,0.00337219,-1.00657654,0.366211,0.061035,-0.122070
4369191541,0.00210571,0.00355530,-1.00686646,0.244141,0.000000,-0.122070
4374239666,0.00196838,0.00395203,-1.00639343,0.244141,0.000000,-0.061035
4379228625,0.00175476,0.00433350,-1.00608826,0.366211,0.061035,0.000000
4384302375,0.00178528,0.00431824,-1.00604248,0.366211,0.122070,-0.061035
4389221833,0.00131226,0.00402832,-1.00601196,0.366211,0.122070,-0.061035
4394246083,0.00047302,0.00386047,-1.00624084,0.305176,0.000000,0.000000
4399242541,0.00059509,0.00381470,-1.00663757,0.305176,0.122070,0.000000
4404226166,0.00181580,0.00357056,-1.00660706,0.244141,0.061035,-0.122070
4409211333,0.00270081,0.00288391,-1.00602722,0.244141,0.183105,-0.122070
4414212833,0.00247192,0.00207520,-1.00558472,0.427246,-0.061035,-0.122070
4419199083,0.00181580,0.00181580,-1.00579834,0.427246,0.000000,-0.122070
4424232625,0.00128174,0.00212097,-1.00650024,0.305176,0.122070,-0.061035
4429260750,0.00125122,0.00225830,-1.00708008,0.366211,0.061035,-0.061035
4434237625,0.00186157,0.00207520,-1.00704956,0.244141,0.122070,-0.061035
4439278750,0.00262451,0.00189209,-1.00697327,0.244141,0.122070,0.000000
4444240750,0.00292969,0.00170898,-1.00694275,0.305176,0.000000,0.000000
4449274500,0.00277710,0.00157166,-1.00639343,0.244141,0.000000,0.000000
4454229958,0.00257874,0.00181580,-1.00547791,0.366211,0.000000,-0.122070
4459253708,0.00212097,0.00210571,-1.00524902,0.427246,0.000000,-0.122070
4464214708,0.00199890,0.00202942,-1.00587463,0.427246,0.000000,-0.122070
4469215708,0.00265503,0.00207520,-1.00636292,0.305176,0.061035,0.000000
4474233541,0.00305176,0.00238037,-1.00608826,0.305176,0.183105,0.000000
4479262333,0.00282288,0.00285339,-1.00543213,0.427246,0.061035,-0.061035
4484212166,0.00254822,0.00341797,-1.00547791,0.183105,0.061035,-0.122070
4489218708,0.00202942,0.00355530,-1.00598145,0.305176,0.000000,0.000000
4494238416,0.00091553,0.00332642,-1.00605774,0.061035,-0.061035,0.000000
4499262083,-0.00003052,0.00326538,-1.00604248,0.305176,0.000000,-0.061035
4504249125,0.00015259,0.00338745,-1.00631714,0.366211,0.122070,-0.122070
4509247875,0.00108337,0.00360107,-1.00654602,0.305176,0.000000,-0.061035
4514259583,0.00183105,0.00402832,-1.00627136,0.366211,0.122070,0.061035
4519263916,0.00198364,0.00421143,-1.00567627,0.244141,0.061035,-0.061035
4524261166,0.00187683,0.00363159,-1.00566101,0.488281,0.183105,-0.061035
4529241166,0.00186157,0.00267029,-1.00650024,0.244141,0.061035,-0.183105
4534253333,0.00193787,0.00189209,-1.00666809,0.305176,-0.061035,-0.122070
4539218125,0.00201416,0.00149536,-1.00559998,0.183105,0.183105,0.061035
4544289458,0.00227356,0.00151062,-1.00476074,0.244141,0.061035,-0.061035
4549245375,0.00267029,0.00189209,-1.00521851,0.122070,-0.061035,-0.122070
4554245250,0.00285339,0.00198364,-1.00608826,0.244141,0.000000,-0.061035
4559237000,0.00271606,0.00169373,-1.00608826,0.244141,0.122070,0.061035
4564254375,0.00283813,0.00173950,-1.00524902,0.366211,0.061035,-0.061035
4569268333,0.00312805,0.00230408,-1.00492859,0.244141,0.061035,-0.061035
4574252416,0.00300598,0.00268555,-1.00581360,0.244141,0.122070,0.061035
4579280916,0.00256348,0.00282288,-1.00680542,0.244141,0.000000,-0.061035
4584262500,0.00216675,0.00311279,-1.00657654,0.244141,0.061035,0.000000
4589273791,0.00187683,0.00340271,-1.00578308,0.305176,0.061035,-0.061035
4594268833,0.00181580,0.00347900,-1.00567627,0.122070,0.183105,-0.061035
4599223375,0.00184631,0.00357056,-1.00590515,0.183105,0.000000,0.000000
4604257166,0.00155640,0.00366211,-1.00566101,0.366211,0.000000,-0.122070
4609243208,0.00108337,0.00332642,-1.00550842,0.305176,0.061035,-0.061035
4614247166,0.00071716,0.00292969,-1.00588989,0.305176,0.000000,-0.061035
4619246000,0.00038147,0.00303650,-1.00654602,0.305176,0.122070,-0.061035
4624235833,0.00027466,0.00323486,-1.00672913,0.244141,0.000000,-0.122070
4629271583,0.00047302,0.00286865,-1.00627136,0.244141,-0.122070,-0.061035
4634268500,0.00090027,0.00236511,-1.00610352,0.122070,0.061035,-0.061035
4639212000,0.00125122,0.00239563,-1.00668335,0.305176,0.000000,-0.122070
4644254125,0.00144958,0.00256348,-1.00701904,0.244141,0.061035,-0.122070
4649293958,0.00173950,0.00273132,-1.00627136,0.244141,0.000000,-0.061035
4654272250,0.00196838,0.00305176,-1.00537109,0.305176,0.122070,0.000000
4659277000,0.00210571,0.00323486,-1.00564575,0.244141,0.061035,0.000000
4664281875,0.00242615,0.00308228,-1.00636292,0.183105,0.061035,-0.122070
4669269291,0.00282288,0.00292969,-1.00617981,0.305176,-0.061035,-0.122070
4674262125,0.00303650,0.00305176,-1.00584412,0.366211,-0.061035,-0.183105
4679304750,0.00320435,0.00344849,-1.00643921,0.244141,-0.061035,-0.122070
4684278875,0.00315857,0.00361633,-1.00727844,0.305176,0.000000,-0.122070
4689252416,0.00282288,0.00343323,-1.00737000,0.305176,0.000000,-0.122070
4694300791,0.00259399,0.00292969,-1.00648499,0.244141,0.000000,-0.122070
4699267958,0.00274658,0.00231934,-1.00569153,0.183105,0.000000,-0.061035
4704292708,0.00279236,0.00228882,-1.00572205,0.305176,0.061035,0.000000
4709251875,0.00231934,0.00273132,-1.00624084,0.366211,0.000000,-0.061035
4714289375,0.00181580,0.00317383,-1.00634766,0.427246,0.061035,-0.122070
4719257208,0.00173950,0.00321960,-1.00584412,0.244141,0.000000,0.000000
4724277000,0.00158691,0.00270081,-1.00561523,0.427246,0.000000,0.000000
4729272625,0.00082397,0.00195312,-1.00596619,0.244141,0.061035,-0.061035
4734277916,-0.00004578,0.00152588,-1.00588989,0.244141,0.000000,-0.122070
4739263166,0.00000000,0.00180054,-1.00547791,0.366211,0.061035,-0.061035
4744313500,0.00071716,0.00259399,-1.00611877,0.488281,0.122070,-0.183105
4749315541,0.00129700,0.00338745,-1.00733948,0.488281,0.061035,-0.061035
4754291000,0.00158691,0.00358582,-1.00717163,0.305176,0.000000,-0.061035
4759301416,0.00183105,0.00299072,-1.00570679,0.244141,0.061035,-0.122070
4764264250,0.00213623,0.00251770,-1.00494385,0.427246,0.183105,-0.061035
4769296083,0.00260925,0.00280762,-1.00572205,0.427246,0.183105,0.000000
4774267916,0.00309753,0.00341797,-1.00654602,0.366211,0.122070,-0.122070
4779311833,0.00305176,0.00376892,-1.00621033,0.305176,0.061035,-0.183105
4784275500,0.00262451,0.00379944,-1.00578308,0.244141,0.061035,-0.061035
4789269500,0.00236511,0.00364685,-1.00653076,0.183105,0.183105,-0.122070
4794312458,0.00239563,0.00331116,-1.00730896,0.244141,0.000000,0.000000
4799277250,0.00236511,0.00300598,-1.00657654,0.305176,0.061035,-0.061035
4804285833,0.00186157,0.00300598,-1.00523376,0.427246,0.061035,-0.122070
4809284916,0.00117493,0.00326538,-1.00543213,0.244141,0.061035,0.000000
4814298000,0.00076294,0.00344849,-1.00666809,0.305176,-0.061035,-0.061035
4819293791,0.00062561,0.00344849,-1.00677490,0.244141,0.061035,-0.061035
4824300416,0.00082397,0.00329590,-1.00558472,0.305176,0.122070,-0.061035
4829306625,0.00123596,0.00279236,-1.00518799,0.183105,0.000000,-0.061035
4834310875,0.00129700,0.00184631,-1.00621033,0.244141,0.000000,-0.061035
4839268291,0.00103760,0.00117493,-1.00700378,0.183105,0.122070,-0.061035
4844302250,0.00102234,0.00155640,-1.00650024,0.183105,0.000000,-0.183105
4849311875,0.00134277,0.00262451,-1.00595093,0.122070,0.061035,-0.061035
4854318000,0.00181580,0.00306702,-1.00624084,0.244141,0.061035,-0.061035
4859296083,0.00251770,0.00271606,-1.00625610,0.305176,0.000000,-0.122070
4864302833,0.00331116,0.00241089,-1.00515747,0.305176,-0.183105,-0.244141
4869303708,0.00395203,0.00267029,-1.00405884,0.305176,0.000000,-0.122070
4874287916,0.00384521,0.00338745,-1.00454712,0.366211,-0.061035,-0.122070
4879340250,0.00289917,0.00390625,-1.00601196,0.183105,-0.061035,-0.122070
4884290833,0.00218201,0.00401306,-1.00662231,0.427246,0.061035,-0.061035
4889341916,0.00219727,0.00392151,-1.00622559,0.366211,0.122070,-0.061035
4894301208,0.00241089,0.00372314,-1.00593567,0.244141,0.000000,-0.122070
4899314916,0.00241089,0.00309753,-1.00630188,0.244141,0.000000,0.000000
4904371000,0.00204468,0.00236511,-1.00679016,0.305176,0.000000,0.061035
4909318416,0.00157166,0.00212097,-1.00672913,0.366211,0.000000,-0.122070
4914325291,0.00137329,0.00225830,-1.00598145,0.305176,0.061035,-0.061035
4919299791,0.00135803,0.00267029,-1.00570679,0.366211,0.061035,-0.061035
4924292083,0.00114441,0.00312805,-1.00642395,0.427246,0.061035,-0.122070
4929304500,0.00073242,0.00296021,-1.00675964,0.366211,0.122070,0.061035
4934308875,0.00054932,0.00236511,-1.00588989,0.427246,0.061035,0.000000
4939294791,0.00086975,0.00222778,-1.00517273,0.366211,0.122070,-0.061035
4944316041,0.00115967,0.00270081,-1.00553894,0.366211,0.305176,-0.061035
4949338791,0.00096130,0.00317383,-1.00593567,0.305176,0.122070,-0.061035
4954319750,0.00091553,0.00317383,-1.00537109,0.305176,0.000000,-0.244141
4959316875,0.00125122,0.00279236,-1.00486755,0.305176,0.000000,-0.183105
4964302875,0.00157166,0.00259399,-1.00520325,0.427246,-0.061035,-0.122070
4969325666,0.00195312,0.00274658,-1.00575256,0.244141,0.061035,-0.061035
4974334041,0.00257874,0.00282288,-1.00564575,0.427246,0.183105,0.000000
4979348541,0.00318909,0.00250244,-1.00500488,0.305176,0.061035,-0.183105
4984330166,0.00347900,0.00213623,-1.00523376,0.305176,0.122070,-0.061035
4989323125,0.00341797,0.00218201,-1.00660706,0.366211,0.061035,0.000000
4994311833,0.00309753,0.00247192,-1.00709534,0.427246,0.000000,-0.061035
4999336708,0.00265503,0.00286865,-1.00592041,0.427246,0.000000,-0.122070
5004323666,0.00238037,0.00315857,-1.00503540,0.488281,0.122070,-0.183105
5009406541,0.00218201,0.00314331,-1.00569153,0.488281,-0.061035,-0.122070
5014346166,0.00177002,0.00318909,-1.00653076,0.366211,0.000000,0.061035
5019338000,0.00144958,0.00321960,-1.00663757,0.244141,0.122070,0.000000
5024316458,0.00138855,0.00314331,-1.00646973,0.427246,0.122070,-0.061035
5029338250,0.00143433,0.00323486,-1.00636292,0.305176,0.061035,0.000000
5034313000,0.00140381,0.00337219,-1.00646973,0.366211,0.122070,0.061035
5039316041,0.00131226,0.00328064,-1.00666809,0.366211,0.000000,-0.183105
5044324750,0.00120544,0.00296021,-1.00637817,0.427246,0.122070,-0.122070
5049347250,0.00128174,0.00289917,-1.00582886,0.366211,-0.061035,-0.061035
5054347291,0.00154114,0.00311279,-1.00566101,0.305176,0.000000,-0.122070
5059312291,0.00164795,0.00292969,-1.00553894,0.305176,0.061035,-0.122070
5064329208,0.00167847,0.00241089,-1.00527954,0.366211,-0.122070,-0.061035
5069323125,0.00163269,0.00215149,-1.00552368,0.305176,0.061035,-0.122070
5074313500,0.00134277,0.00204468,-1.00639343,0.244141,0.000000,0.061035
5079342291,0.00117493,0.00201416,-1.00689697,0.305176,0.061035,0.000000
5084335916,0.00151062,0.00222778,-1.00607300,0.366211,-0.061035,0.061035
5089343375,0.00209045,0.00245667,-1.00480652,0.366211,0.183105,-0.061035
5094342958,0.00242615,0.00271606,-1.00474548,0.244141,0.061035,-0.061035
5099318833,0.00230408,0.00306702,-1.00590515,0.366211,0.061035,-0.183105
5104314958,0.00201416,0.00325012,-1.00633240,0.305176,0.061035,-0.122070
5109346791,0.00198364,0.00309753,-1.00561523,0.366211,0.122070,-0.122070
5114412208,0.00221252,0.00308228,-1.00531006,0.366211,0.061035,0.000000
5119348291,0.00225830,0.00337219,-1.00578308,0.244141,-0.061035,-0.122070
5124348166,0.00218201,0.00343323,-1.00596619,0.244141,0.122070,0.000000
5129350041,0.00228882,0.00302124,-1.00585938,0.183105,0.000000,-0.183105
5134332750,0.00242615,0.00265503,-1.00592041,0.244141,-0.122070,-0.061035
5139359416,0.00242615,0.00271606,-1.00584412,0.305176,0.122070,-0.061035
5144420000,0.00201416,0.00288391,-1.00543213,0.305176,-0.122070,0.000000
5149409666,0.00117493,0.00276184,-1.00524902,0.305176,0.122070,-0.122070
5154353541,0.00067139,0.00250244,-1.00558472,0.183105,0.061035,0.000000
5159360875,0.00068665,0.00238037,-1.00599670,0.427246,0.061035,0.000000
5164358125,0.00088501,0.00234985,-1.00607300,0.305176,0.061035,-0.061035
5169352625,0.00152588,0.00216675,-1.00584412,0.366211,-0.122070,-0.122070
5174365000,0.00228882,0.00196838,-1.00569153,0.305176,0.061035,-0.183105
5179388375,0.00231934,0.00192261,-1.00592041,0.244141,0.061035,-0.061035
5184386291,0.00154114,0.00215149,-1.00616455,0.244141,0.061035,-0.122070
5189404875,0.00057983,0.00257874,-1.00627136,0.305176,0.000000,-0.061035
5194430500,0.00018311,0.00283813,-1.00636292,0.244141,0.000000,0.000000
5199380708,0.00073242,0.00288391,-1.00657654,0.244141,-0.122070,0.000000
5204342291,0.00180054,0.00328064,-1.00700378,0.488281,0.000000,-0.061035
5209414958,0.00270081,0.00361633,-1.00715637,0.305176,-0.061035,-0.183105
5214410666,0.00294495,0.00326538,-1.00677490,0.427246,0.000000,-0.061035
5219362500,0.00257874,0.00262451,-1.00637817,0.427246,0.122070,0.000000
5224351250,0.00218201,0.00233459,-1.00645447,0.183105,-0.061035,0.000000
5229396916,0.00247192,0.00245667,-1.00671387,0.183105,0.122070,-0.061035
5234351958,0.00300598,0.00289917,-1.00654602,0.305176,0.000000,-0.122070
5239397166,0.00265503,0.00332642,-1.00642395,0.244141,0.000000,-0.061035
5244388291,0.00190735,0.00346375,-1.00657654,0.183105,0.122070,-0.061035
5249371583,0.00175476,0.00321960,-1.00668335,0.244141,0.244141,0.061035
5254369500,0.00218201,0.00296021,-1.00624084,0.305176,0.122070,-0.061035
5259420375,0.00260925,0.00302124,-1.00540161,0.366211,-0.061035,-0.061035
5264372916,0.00256348,0.00283813,-1.00517273,0.305176,-0.061035,-0.122070
5269364208,0.00227356,0.00207520,-1.00573730,0.183105,0.061035,0.000000
5274411750,0.00187683,0.00151062,-1.00610352,0.427246,0.061035,0.000000
5279397416,0.00137329,0.00177002,-1.00584412,0.244141,0.183105,-0.122070
5284385791,0.00105286,0.00241089,-1.00537109,0.305176,0.000000,0.000000
5289379791,0.00125122,0.00276184,-1.00541687,0.366211,0.061035,0.000000
5294390416,0.00173950,0.00283813,-1.00607300,0.244141,0.000000,0.000000
5299370291,0.00189209,0.00267029,-1.00630188,0.366211,0.061035,0.061035
5304354666,0.00161743,0.00257874,-1.00578308,0.305176,0.061035,0.061035
5309487083,0.00167847,0.00285339,-1.00595093,0.305176,0.061035,-0.183105
5314434666,0.00216675,0.00296021,-1.00692749,0.244141,0.000000,-0.122070
5319424666,0.00221252,0.00256348,-1.00677490,0.122070,0.061035,-0.122070
5324507875,0.00172424,0.00244141,-1.00540161,0.244141,-0.183105,-0.061035
5329454083,0.00122070,0.00296021,-1.00503540,0.305176,0.183105,-0.122070
5334482458,0.00120544,0.00352478,-1.00607300,0.183105,0.122070,-0.122070
5339420083,0.00192261,0.00378418,-1.00660706,0.305176,0.000000,-0.061035
5344448166,0.00273132,0.00375366,-1.00566101,0.427246,0.061035,-0.061035
5349467000,0.00291443,0.00366211,-1.00495911,0.244141,0.061035,-0.183105
5354465125,0.00256348,0.00340271,-1.00547791,0.305176,0.061035,-0.122070
5359433416,0.00202942,0.00314331,-1.00599670,0.305176,0.122070,-0.122070
5364394333,0.00149536,0.00337219,-1.00549316,0.305176,0.000000,-0.122070
5369542041,0.00109863,0.00361633,-1.00486755,0.488281,0.061035,0.000000
5374441208,0.00096130,0.00332642,-1.00526428,0.305176,0.122070,-0.061035
5379518125,0.00099182,0.00294495,-1.00595093,0.122070,0.183105,-0.183105
5384449333,0.00125122,0.00283813,-1.00573730,0.305176,0.183105,-0.122070
5389438708,0.00163269,0.00288391,-1.00518799,0.366211,0.000000,0.061035
5394496125,0.00167847,0.00283813,-1.00544739,0.183105,0.061035,-0.061035
5399382708,0.00138855,0.00265503,-1.00622559,0.244141,0.122070,-0.122070
5404461916,0.00097656,0.00268555,-1.00621033,0.427246,0.122070,-0.122070
5409455416,0.00094604,0.00286865,-1.00534058,0.366211,0.061035,-0.061035
5414444875,0.00115967,0.00296021,-1.00502014,0.366211,-0.061035,-0.122070
5419428791,0.00119019,0.00294495,-1.00587463,0.244141,0.061035,-0.122070
5424448708,0.00144958,0.00289917,-1.00650024,0.427246,0.122070,-0.061035
5429441250,0.00204468,0.00288391,-1.00578308,0.366211,0.000000,-0.061035
5434425333,0.00231934,0.00306702,-1.00483704,0.427246,0.061035,0.061035
5439685500,0.00204468,0.00329590,-1.00514221,0.366211,-0.061035,0.061035
5444517166,0.00192261,0.00329590,-1.00607300,0.366211,0.122070,0.000000
5449469625,0.00233459,0.00329590,-1.00592041,0.305176,0.061035,-0.061035
5454524541,0.00274658,0.00337219,-1.00477600,0.305176,0.000000,-0.183105
5459440125,0.00268555,0.00332642,-1.00436401,0.427246,0.000000,-0.061035
5464411291,0.00245667,0.00300598,-1.00546265,0.244141,0.061035,0.061035
5469515208,0.00238037,0.00273132,-1.00648499,0.305176,0.061035,0.061035
5474540625,0.00245667,0.00289917,-1.00613403,0.366211,0.061035,-0.061035
5479480750,0.00257874,0.00309753,-1.00543213,0.183105,-0.061035,-0.183105
5484455291,0.00222778,0.00248718,-1.00587463,0.305176,0.122070,-0.061035
5489439250,0.00132751,0.00146484,-1.00679016,0.305176,-0.122070,-0.122070
5494478833,0.00080872,0.00129700,-1.00645447,0.244141,0.061035,-0.183105
5499436833,0.00108337,0.00209045,-1.00523376,0.244141,0.000000,0.000000
5504468000,0.00137329,0.00288391,-1.00506592,0.305176,0.061035,0.000000
5509533333,0.00123596,0.00317383,-1.00602722,0.305176,0.061035,0.061035
5514460041,0.00123596,0.00332642,-1.00605774,0.305176,0.061035,-0.122070
5519444708,0.00161743,0.00326538,-1.00488281,0.366211,0.122070,-0.244141
5524409708,0.00192261,0.00306702,-1.00469971,0.366211,0.244141,-0.061035
5529443083,0.00178528,0.00305176,-1.00633240,0.366211,0.183105,-0.061035
5534453458,0.00132751,0.00303650,-1.00753784,0.244141,0.061035,0.000000
5539410250,0.00102234,0.00297546,-1.00668335,0.305176,0.000000,0.000000
5544449291,0.00125122,0.00306702,-1.00541687,0.305176,0.183105,-0.122070
5549403083,0.00173950,0.00302124,-1.00561523,0.244141,0.122070,-0.061035
5554435000,0.00201416,0.00251770,-1.00654602,0.305176,0.061035,-0.061035
5559554208,0.00199890,0.00216675,-1.00666809,0.366211,-0.061035,-0.122070
5564461333,0.00190735,0.00227356,-1.00584412,0.305176,0.061035,-0.061035
5569454250,0.00216675,0.00257874,-1.00563049,0.305176,0.061035,-0.122070
5574547875,0.00286865,0.00291443,-1.00651550,0.183105,0.061035,-0.061035
5579523708,0.00311279,0.00331116,-1.00714111,0.366211,0.122070,-0.061035
5584423916,0.00277710,0.00367737,-1.00636292,0.244141,0.061035,-0.183105
5589419666,0.00279236,0.00349426,-1.00521851,0.305176,0.000000,-0.061035
5594454750,0.00320435,0.00283813,-1.00527954,0.244141,0.000000,-0.122070
5599439500,0.00346375,0.00251770,-1.00602722,0.366211,0.061035,0.000000
5604440000,0.00325012,0.00268555,-1.00625610,0.366211,0.000000,-0.061035
5609448500,0.00247192,0.00267029,-1.00599670,0.366211,0.061035,0.061035
5614463291,0.00163269,0.00247192,-1.00595093,0.488281,0.183105,-0.061035
5619439333,0.00137329,0.00259399,-1.00627136,0.305176,0.061035,-0.122070
5624394166,0.00163269,0.00277710,-1.00614929,0.427246,0.122070,-0.061035
5629481166,0.00180054,0.00268555,-1.00535583,0.366211,0.000000,-0.061035
5634452083,0.00161743,0.00263977,-1.00486755,0.244141,0.061035,-0.122070
5639417500,0.00137329,0.00280762,-1.00549316,0.305176,0.122070,-0.122070
5644449208,0.00100708,0.00280762,-1.00611877,0.305176,0.061035,-0.061035
5649428458,0.00065613,0.00271606,-1.00566101,0.183105,0.183105,0.000000
5654443458,0.00080872,0.00291443,-1.00495911,0.366211,0.122070,-0.061035
5659479541,0.00129700,0.00312805,-1.00523376,0.183105,0.122070,-0.061035
5664428583,0.00163269,0.00291443,-1.00619507,0.183105,0.061035,0.000000
5669458208,0.00187683,0.00274658,-1.00665283,0.366211,0.061035,-0.061035
5674472416,0.00215149,0.00302124,-1.00610352,0.244141,0.061035,0.061035
5679515625,0.00238037,0.00318909,-1.00582886,0.244141,0.061035,-0.061035
5684436250,0.00228882,0.00291443,-1.00650024,0.366211,0.122070,0.000000
5689520791,0.00213623,0.00265503,-1.00659180,0.244141,0.061035,-0.183105
5694444208,0.00241089,0.00274658,-1.00547791,0.244141,0.061035,0.061035
5699465250,0.00268555,0.00297546,-1.00492859,0.305176,0.000000,-0.122070
5704465250,0.00241089,0.00321960,-1.00602722,0.427246,0.061035,-0.183105
5709469291,0.00190735,0.00346375,-1.00720215,0.244141,0.061035,0.000000
5714470583,0.00152588,0.00373840,-1.00671387,0.366211,0.000000,-0.122070
5719470750,0.00134277,0.00386047,-1.00555420,0.244141,0.000000,0.061035
5724460083,0.00102234,0.00361633,-1.00558472,0.305176,0.000000,-0.183105
5729444916,0.00059509,0.00320435,-1.00653076,0.244141,0.000000,0.000000
5734531916,0.00041199,0.00286865,-1.00672913,0.305176,0.000000,-0.183105
5739458375,0.00045776,0.00259399,-1.00578308,0.305176,0.122070,0.000000
5744515541,0.00077820,0.00242615,-1.00520325,0.488281,0.000000,0.122070
5749519291,0.00125122,0.00245667,-1.00584412,0.427246,0.122070,-0.061035
5754458375,0.00151062,0.00282288,-1.00648499,0.244141,0.000000,-0.061035
5759506958,0.00152588,0.00306702,-1.00625610,0.244141,0.061035,-0.122070
5764480541,0.00155640,0.00267029,-1.00573730,0.244141,0.122070,-0.061035
5769492791,0.00170898,0.00222778,-1.00559998,0.427246,0.061035,0.000000
5774473458,0.00173950,0.00225830,-1.00563049,0.183105,0.061035,0.000000
5779518541,0.00183105,0.00239563,-1.00534058,0.305176,0.061035,-0.122070
5784497166,0.00224304,0.00230408,-1.00485229,0.244141,0.061035,-0.122070
5789466166,0.00267029,0.00231934,-1.00508118,0.488281,0.061035,-0.183105
5794512041,0.00279236,0.00279236,-1.00592041,0.427246,0.000000,-0.061035
5799488916,0.00294495,0.00331116,-1.00613403,0.427246,0.000000,-0.061035
5804499000,0.00297546,0.00331116,-1.00556946,0.183105,0.061035,0.000000
5809486541,0.00244141,0.00305176,-1.00553894,0.305176,0.000000,-0.122070
5814491625,0.00170898,0.00309753,-1.00631714,0.366211,0.000000,0.000000
5819492291,0.00154114,0.00361633,-1.00657654,0.305176,0.061035,0.000000
5824470833,0.00199890,0.00421143,-1.00544739,0.244141,-0.061035,-0.183105
5829514416,0.00254822,0.00442505,-1.00422668,0.305176,0.061035,-0.183105
5834488125,0.00242615,0.00418091,-1.00444031,0.366211,0.061035,0.000000
5839456791,0.00173950,0.00392151,-1.00546265,0.244141,0.000000,-0.122070
5844504666,0.00112915,0.00379944,-1.00587463,0.183105,-0.061035,-0.122070
5849522000,0.00064087,0.00317383,-1.00588989,0.366211,0.000000,-0.122070
5854493166,0.00047302,0.00199890,-1.00624084,0.366211,0.000000,-0.061035
5859497083,0.00106812,0.00148010,-1.00653076,0.366211,0.122070,-0.183105
5864499083,0.00158691,0.00204468,-1.00602722,0.305176,0.061035,-0.061035
5869490083,0.00160217,0.00279236,-1.00532532,0.244141,0.122070,-0.061035
5874479958,0.00184631,0.00277710,-1.00540161,0.183105,0.000000,0.000000
5879528708,0.00204468,0.00222778,-1.00573730,0.427246,0.061035,0.000000
5884479541,0.00177002,0.00193787,-1.00550842,0.305176,0.061035,-0.061035
5889647000,0.00154114,0.00227356,-1.00538635,0.305176,0.244141,-0.122070
5894493541,0.00175476,0.00279236,-1.00593567,0.244141,-0.061035,0.000000
5899505333,0.00202942,0.00302124,-1.00651550,0.183105,0.061035,-0.061035
5904508250,0.00231934,0.00306702,-1.00625610,0.366211,0.000000,-0.122070
5909527958,0.00271606,0.00325012,-1.00567627,0.244141,0.000000,0.000000
5914553166,0.00270081,0.00355530,-1.00572205,0.366211,-0.061035,0.061035
5919492208,0.00234985,0.00370789,-1.00630188,0.366211,0.061035,-0.122070
5924483791,0.00228882,0.00341797,-1.00646973,0.488281,0.000000,-0.061035
5929509750,0.00257874,0.00292969,-1.00595093,0.366211,-0.061035,-0.061035
5934513208,0.00260925,0.00259399,-1.00581360,0.305176,0.122070,-0.061035
5939550875,0.00212097,0.00260925,-1.00628662,0.183105,0.000000,-0.061035
5944500583,0.00137329,0.00283813,-1.00642395,0.305176,0.061035,0.061035
5949533791,0.00102234,0.00305176,-1.00601196,0.305176,0.000000,-0.122070
5954515416,0.00115967,0.00328064,-1.00558472,0.305176,0.183105,0.000000
5959531416,0.00109863,0.00350952,-1.00563049,0.244141,0.000000,-0.122070
5964512041,0.00094604,0.00370789,-1.00608826,0.305176,0.000000,-0.244141
5969516500,0.00115967,0.00350952,-1.00619507,0.122070,0.183105,-0.122070
5974527708,0.00131226,0.00309753,-1.00572205,0.305176,0.061035,-0.061035
5979606833,0.00126648,0.00294495,-1.00567627,0.183105,0.061035,-0.122070
5984552541,0.00163269,0.00283813,-1.00648499,0.244141,0.061035,-0.122070
5989512833,0.00242615,0.00268555,-1.00712585,0.183105,-0.061035,-0.061035
5994612291,0.00263977,0.00302124,-1.00672913,0.366211,0.061035,-0.122070
5999526416,0.00202942,0.00369263,-1.00599670,0.366211,0.061035,-0.061035
6004523583,0.00157166,0.00387573,-1.00572205,0.244141,0.000000,0.000000
6009541958,0.00189209,0.00341797,-1.00572205,0.305176,0.000000,-0.061035
6014545958,0.00215149,0.00302124,-1.00537109,0.305176,0.000000,-0.061035
6019542250,0.00184631,0.00299072,-1.00494385,0.366211,0.061035,-0.061035
6024532125,0.00149536,0.00268555,-1.00534058,0.305176,0.122070,0.061035
6029574333,0.00154114,0.00234985,-1.00633240,0.366211,0.061035,0.000000
6034545916,0.00161743,0.00253296,-1.00636292,0.427246,-0.061035,-0.122070
6039558500,0.00135803,0.00288391,-1.00540161,0.305176,0.122070,0.061035
6044547250,0.00111389,0.00296021,-1.00494385,0.305176,0.061035,-0.122070
6049534916,0.00086975,0.00274658,-1.00527954,0.305176,0.183105,0.000000
6054541416,0.00074768,0.00248718,-1.00579834,0.366211,0.000000,-0.061035
6059558791,0.00094604,0.00251770,-1.00581360,0.305176,0.122070,-0.061035
6064536375,0.00125122,0.00276184,-1.00550842,0.305176,0.122070,-0.061035
6069527083,0.00123596,0.00270081,-1.00567627,0.305176,0.061035,-0.061035
6074546333,0.00103760,0.00225830,-1.00613403,0.305176,0.061035,-0.061035
6079557000,0.00102234,0.00186157,-1.00595093,0.366211,-0.061035,-0.122070
6084547458,0.00109863,0.00160217,-1.00506592,0.305176,0.000000,-0.122070
6089557083,0.00134277,0.00146484,-1.00494385,0.183105,0.061035,-0.122070
6094610166,0.00192261,0.00157166,-1.00576782,0.244141,0.122070,-0.122070
6099598833,0.00239563,0.00183105,-1.00613403,0.366211,0.000000,-0.122070
6104544916,0.00233459,0.00210571,-1.00543213,0.366211,0.000000,-0.061035
6109562166,0.00195312,0.00262451,-1.00518799,0.366211,0.061035,0.000000
6114571041,0.00175476,0.00340271,-1.00627136,0.305176,0.061035,-0.061035
6119543958,0.00215149,0.00381470,-1.00730896,0.183105,0.000000,-0.122070
6124535666,0.00276184,0.00349426,-1.00709534,0.244141,-0.061035,0.000000
6129521125,0.00297546,0.00312805,-1.00637817,0.305176,0.000000,-0.183105
6134533750,0.00238037,0.00317383,-1.00607300,0.366211,-0.061035,0.000000
6139526666,0.00140381,0.00318909,-1.00650024,0.305176,0.061035,-0.061035
6144600750,0.00109863,0.00302124,-1.00675964,0.427246,0.061035,-0.061035
6149565500,0.00167847,0.00288391,-1.00637817,0.305176,0.122070,-0.183105
6154562166,0.00225830,0.00288391,-1.00639343,0.244141,-0.061035,-0.122070
6159565000,0.00212097,0.00289917,-1.00711060,0.244141,0.122070,0.000000
6164579041,0.00141907,0.00277710,-1.00708008,0.305176,0.183105,0.061035
6169547250,0.00077820,0.00253296,-1.00607300,0.366211,0.061035,0.061035
6174548708,0.00083923,0.00239563,-1.00567627,0.244141,0.000000,0.000000
6179593666,0.00129700,0.00239563,-1.00637817,0.244141,0.000000,-0.244141
6184538625,0.00155640,0.00244141,-1.00683594,0.366211,-0.061035,0.000000
6189559541,0.00177002,0.00253296,-1.00608826,0.427246,0.061035,-0.122070
6194541000,0.00213623,0.00250244,-1.00503540,0.366211,0.061035,0.000000
6199571750,0.00215149,0.00230408,-1.00547791,0.305176,0.183105,-0.061035
6204575125,0.00146484,0.00227356,-1.00683594,0.366211,0.061035,0.000000
6209566208,0.00119019,0.00238037,-1.00689697,0.366211,-0.122070,-0.122070
6214588750,0.00195312,0.00248718,-1.00570679,0.366211,0.061035,-0.122070
6219572333,0.00283813,0.00265503,-1.00546265,0.366211,0.000000,-0.061035
6224577666,0.00315857,0.00286865,-1.00653076,0.305176,0.000000,0.000000
6229570750,0.00323486,0.00296021,-1.00711060,0.305176,0.122070,-0.122070
6234544041,0.00320435,0.00305176,-1.00624084,0.244141,0.061035,-0.061035
6239541791,0.00282288,0.00338745,-1.00537109,0.427246,0.061035,0.000000
6244551125,0.00227356,0.00386047,-1.00598145,0.427246,-0.061035,0.000000
6249589000,0.00192261,0.00421143,-1.00714111,0.427246,-0.061035,-0.122070
6254594958,0.00177002,0.00421143,-1.00708008,0.305176,0.000000,-0.122070
6259544208,0.00151062,0.00392151,-1.00608826,0.305176,0.000000,-0.122070
6264585041,0.00099182,0.00344849,-1.00613403,0.305176,0.000000,-0.183105
6269568500,0.00024414,0.00300598,-1.00740051,0.183105,0.000000,-0.122070
6274575125,-0.00025940,0.00280762,-1.00749207,0.366211,0.000000,-0.061035
6279564666,-0.00007629,0.00267029,-1.00563049,0.305176,0.122070,-0.122070
6284541666,0.00048828,0.00238037,-1.00408936,0.366211,0.000000,-0.122070
6289558083,0.00109863,0.00190735,-1.00460815,0.366211,0.122070,0.061035
6294541583,0.00172424,0.00149536,-1.00596619,0.244141,0.000000,-0.061035
6299544000,0.00216675,0.00158691,-1.00613403,0.183105,0.183105,-0.244141
6304535291,0.00222778,0.00205994,-1.00549316,0.427246,0.122070,-0.061035
6309561916,0.00245667,0.00247192,-1.00570679,0.305176,0.122070,-0.061035
6314557541,0.00303650,0.00276184,-1.00637817,0.366211,-0.061035,-0.061035
6319553458,0.00305176,0.00292969,-1.00590515,0.244141,0.000000,0.000000
6324566416,0.00221252,0.00296021,-1.00457764,0.305176,0.000000,0.000000
6329587708,0.00172424,0.00306702,-1.00457764,0.183105,0.000000,-0.122070
6334571500,0.00210571,0.00326538,-1.00613403,0.183105,0.061035,-0.061035
6339603583,0.00265503,0.00325012,-1.00700378,0.244141,0.122070,-0.061035
6344581875,0.00268555,0.00321960,-1.00648499,0.366211,0.000000,-0.122070
6349605958,0.00224304,0.00366211,-1.00630188,0.244141,-0.061035,-0.122070
6354597166,0.00184631,0.00410461,-1.00683594,0.183105,0.122070,0.000000
6359616541,0.00146484,0.00361633,-1.00657654,0.488281,0.000000,-0.061035
6364572708,0.00108337,0.00254822,-1.00523376,0.366211,0.061035,-0.122070
6369567375,0.00103760,0.00215149,-1.00416565,0.305176,0.061035,-0.061035
6374624791,0.00125122,0.00238037,-1.00422668,0.366211,-0.061035,0.000000
6379664250,0.00125122,0.00265503,-1.00559998,0.488281,0.061035,-0.183105
6384576958,0.00128174,0.00303650,-1.00648499,0.183105,0.000000,-0.061035
6389564375,0.00161743,0.00355530,-1.00555420,0.244141,0.000000,-0.122070
6394587750,0.00186157,0.00382996,-1.00473022,0.305176,0.000000,-0.244141
6399587541,0.00166321,0.00350952,-1.00563049,0.366211,0.061035,-0.061035
6404606333,0.00138855,0.00300598,-1.00654602,0.305176,0.061035,-0.122070
6409654208,0.00173950,0.00279236,-1.00633240,0.427246,0.000000,-0.061035
6414594625,0.00263977,0.00257874,-1.00590515,0.244141,0.061035,0.000000
6419580208,0.00300598,0.00219727,-1.00617981,0.305176,0.000000,0.000000
6424587666,0.00254822,0.00210571,-1.00659180,0.427246,0.122070,0.000000
6429600416,0.00195312,0.00236511,-1.00645447,0.366211,0.061035,-0.122070
6434593541,0.00166321,0.00273132,-1.00588989,0.427246,0.122070,0.000000
6439593833,0.00192261,0.00294495,-1.00575256,0.305176,0.122070,-0.122070
6444615000,0.00216675,0.00303650,-1.00625610,0.305176,0.061035,-0.122070
6449612833,0.00161743,0.00338745,-1.00633240,0.305176,0.061035,0.000000
6454614958,0.00085449,0.00401306,-1.00547791,0.366211,0.000000,-0.061035
6459609500,0.00059509,0.00424194,-1.00488281,0.427246,0.183105,-0.061035
6464590500,0.00041199,0.00389099,-1.00509644,0.305176,0.061035,-0.061035
6469607583,0.00047302,0.00363159,-1.00555420,0.183105,0.122070,-0.061035
6474621125,0.00100708,0.00347900,-1.00584412,0.366211,0.183105,-0.061035
6479634666,0.00148010,0.00300598,-1.00581360,0.244141,-0.122070,0.000000
6484583125,0.00148010,0.00256348,-1.00561523,0.305176,0.000000,-0.061035
6489607375,0.00132751,0.00248718,-1.00602722,0.366211,0.000000,-0.061035
6494626833,0.00157166,0.00239563,-1.00646973,0.488281,0.122070,0.000000
6499626541,0.00207520,0.00209045,-1.00584412,0.183105,0.000000,0.000000
6504618291,0.00221252,0.00196838,-1.00573730,0.183105,0.061035,0.000000
6509596875,0.00193787,0.00230408,-1.00747681,0.183105,-0.061035,-0.122070
6514678791,0.00158691,0.00268555,-1.00842285,0.244141,0.183105,-0.061035
6519629958,0.00157166,0.00251770,-1.00703430,0.305176,0.122070,-0.122070
6524622208,0.00213623,0.00233459,-1.00515747,0.305176,0.061035,0.000000
6529617041,0.00260925,0.00256348,-1.00462341,0.305176,0.061035,0.000000
6534605041,0.00219727,0.00265503,-1.00523376,0.305176,0.000000,-0.122070
6539592083,0.00140381,0.00245667,-1.00584412,0.244141,0.122070,-0.183105
6544599083,0.00132751,0.00227356,-1.00585938,0.183105,0.000000,-0.061035
6549625625,0.00198364,0.00242615,-1.00563049,0.061035,0.000000,-0.061035
6554626000,0.00245667,0.00309753,-1.00585938,0.183105,-0.122070,-0.183105
6559611666,0.00228882,0.00355530,-1.00631714,0.305176,0.061035,-0.061035
6564621583,0.00175476,0.00332642,-1.00613403,0.305176,0.061035,-0.061035
6569616208,0.00140381,0.00289917,-1.00572205,0.427246,0.061035,-0.061035
6574622041,0.00146484,0.00274658,-1.00596619,0.305176,0.122070,-0.061035
6579656708,0.00170898,0.00300598,-1.00645447,0.244141,0.122070,0.000000
6584650625,0.00164795,0.00332642,-1.00630188,0.244141,-0.061035,-0.122070
6589605458,0.00126648,0.00317383,-1.00590515,0.488281,0.244141,-0.061035
6594607083,0.00108337,0.00253296,-1.00590515,0.305176,0.122070,-0.183105
6599650750,0.00134277,0.00198364,-1.00595093,0.366211,-0.061035,-0.061035
6604638500,0.00177002,0.00173950,-1.00579834,0.366211,0.122070,-0.122070
6609624166,0.00205994,0.00170898,-1.00570679,0.305176,0.000000,-0.122070
6614612708,0.00212097,0.00209045,-1.00617981,0.366211,0.000000,-0.061035
6619697541,0.00186157,0.00279236,-1.00680542,0.305176,0.183105,-0.061035
6624622166,0.00152588,0.00299072,-1.00675964,0.366211,0.000000,0.000000
6629647500,0.00151062,0.00280762,-1.00640869,0.244141,0.122070,-0.183105
6634623250,0.00199890,0.00297546,-1.00639343,0.244141,0.000000,-0.122070
6639609166,0.00263977,0.00328064,-1.00662231,0.305176,0.061035,-0.061035
6644619750,0.00274658,0.00338745,-1.00662231,0.305176,0.061035,-0.061035
6649656291,0.00230408,0.00355530,-1.00657654,0.244141,0.061035,-0.183105
6654653291,0.00192261,0.00381470,-1.00657654,0.305176,0.061035,-0.061035
6659661625,0.00195312,0.00382996,-1.00663757,0.244141,0.122070,-0.122070
6664619000,0.00233459,0.00360107,-1.00643921,0.305176,0.061035,-0.061035
6669636833,0.00268555,0.00340271,-1.00592041,0.244141,0.000000,-0.061035
6674625500,0.00245667,0.00331116,-1.00563049,0.305176,0.000000,-0.061035
6679691875,0.00184631,0.00312805,-1.00573730,0.244141,0.000000,-0.122070
6684651166,0.00152588,0.00283813,-1.00592041,0.244141,0.061035,-0.122070
6689618750,0.00140381,0.00254822,-1.00617981,0.305176,0.061035,0.000000
6694625708,0.00126648,0.00228882,-1.00656128,0.305176,0.061035,0.000000
6699656416,0.00138855,0.00209045,-1.00659180,0.305176,0.000000,0.000000
6704670750,0.00193787,0.00210571,-1.00593567,0.366211,0.000000,-0.183105
6709660666,0.00250244,0.00250244,-1.00524902,0.244141,-0.061035,-0.061035
6714683125,0.00230408,0.00288391,-1.00515747,0.183105,0.000000,-0.061035
6719666333,0.00178528,0.00299072,-1.00527954,0.183105,0.061035,0.000000
6724713000,0.00170898,0.00277710,-1.00531006,0.244141,0.122070,-0.061035
6729653625,0.00173950,0.00231934,-1.00535583,0.305176,-0.061035,0.061035
6734666958,0.00146484,0.00198364,-1.00546265,0.366211,0.000000,0.000000
6739623750,0.00120544,0.00216675,-1.00587463,0.183105,0.061035,-0.061035
6744673333,0.00141907,0.00271606,-1.00651550,0.305176,0.061035,-0.061035
6749687375,0.00216675,0.00331116,-1.00645447,0.305176,0.061035,-0.061035
6754671416,0.00305176,0.00395203,-1.00538635,0.244141,0.122070,-0.122070
6759675458,0.00317383,0.00427246,-1.00476074,0.305176,0.061035,-0.183105
6764671083,0.00248718,0.00395203,-1.00541687,0.366211,0.122070,-0.122070
6769654041,0.00184631,0.00350952,-1.00627136,0.305176,0.122070,-0.061035
6774651500,0.00141907,0.00358582,-1.00595093,0.366211,0.122070,-0.061035
6779678583,0.00132751,0.00392151,-1.00517273,0.366211,0.244141,-0.122070
6784680125,0.00181580,0.00379944,-1.00561523,0.427246,0.183105,0.000000
6789670791,0.00215149,0.00346375,-1.00671387,0.305176,0.000000,-0.061035
6794677791,0.00160217,0.00318909,-1.00669861,0.366211,0.122070,-0.061035
6799687916,0.00073242,0.00277710,-1.00546265,0.244141,0.061035,-0.122070
6804684791,0.00053406,0.00244141,-1.00466919,0.366211,0.183105,0.000000
6809651583,0.00117493,0.00234985,-1.00518799,0.305176,0.061035,-0.061035
6814685833,0.00192261,0.00236511,-1.00590515,0.488281,0.000000,0.000000
6819681541,0.00230408,0.00238037,-1.00569153,0.427246,0.122070,-0.122070
6824674833,0.00218201,0.00270081,-1.00523376,0.183105,0.000000,-0.122070
6829687833,0.00175476,0.00308228,-1.00541687,0.183105,0.000000,-0.122070
6834683125,0.00154114,0.00309753,-1.00592041,0.427246,0.122070,0.061035
6839673333,0.00134277,0.00294495,-1.00619507,0.366211,0.061035,0.061035
6844662250,0.00119019,0.00294495,-1.00587463,0.366211,0.000000,-0.183105
6849675458,0.00126648,0.00314331,-1.00561523,0.427246,0.061035,-0.061035
6854684333,0.00135803,0.00312805,-1.00590515,0.244141,0.061035,-0.183105
6859661375,0.00152588,0.00262451,-1.00588989,0.305176,0.061035,0.000000
6864683416,0.00172424,0.00224304,-1.00549316,0.244141,0.061035,0.061035
6869663666,0.00166321,0.00263977,-1.00595093,0.183105,0.061035,-0.183105
6874712916,0.00151062,0.00340271,-1.00682068,0.305176,0.000000,-0.061035
6879774000,0.00161743,0.00378418,-1.00688171,0.305176,-0.061035,0.000000
6884654541,0.00187683,0.00332642,-1.00637817,0.183105,0.000000,-0.061035
6889681750,0.00213623,0.00244141,-1.00596619,0.244141,0.122070,-0.122070
6894701541,0.00225830,0.00210571,-1.00599670,0.366211,0.061035,-0.122070
6899707541,0.00199890,0.00219727,-1.00639343,0.366211,0.122070,-0.061035
6904692666,0.00157166,0.00219727,-1.00627136,0.183105,0.122070,-0.122070
6909697291,0.00138855,0.00231934,-1.00578308,0.244141,0.000000,-0.061035
6914703083,0.00146484,0.00270081,-1.00590515,0.305176,0.000000,-0.061035
6919692791,0.00170898,0.00289917,-1.00636292,0.305176,-0.061035,0.000000
6924696500,0.00180054,0.00257874,-1.00587463,0.244141,0.000000,-0.061035
6929671583,0.00170898,0.00210571,-1.00486755,0.305176,0.061035,0.000000
6934712541,0.00186157,0.00218201,-1.00477600,0.244141,0.122070,-0.061035
6939679458,0.00222778,0.00279236,-1.00572205,0.366211,0.061035,-0.183105
6944680666,0.00247192,0.00315857,-1.00651550,0.244141,0.000000,-0.183105
6949707875,0.00267029,0.00305176,-1.00595093,0.305176,0.061035,-0.061035
6954710791,0.00256348,0.00289917,-1.00473022,0.122070,0.183105,-0.122070
6959707208,0.00218201,0.00277710,-1.00483704,0.305176,0.061035,-0.122070
6964679416,0.00199890,0.00273132,-1.00621033,0.488281,0.061035,-0.122070
6969691583,0.00183105,0.00283813,-1.00680542,0.427246,0.061035,-0.061035
6974677958,0.00164795,0.00283813,-1.00567627,0.244141,0.122070,0.061035
6979718541,0.00157166,0.00260925,-1.00486755,0.305176,0.061035,0.000000
6984731291,0.00134277,0.00227356,-1.00573730,0.244141,0.061035,-0.122070
6989679916,0.00109863,0.00201416,-1.00654602,0.366211,0.061035,-0.122070
6994703666,0.00131226,0.00199890,-1.00590515,0.244141,0.183105,-0.061035
6999677208,0.00167847,0.00236511,-1.00508118,0.366211,0.122070,-0.061035
7004668958,0.00154114,0.00263977,-1.00549316,0.305176,0.000000,-0.061035
7009686416,0.00112915,0.00273132,-1.00631714,0.366211,0.122070,0.000000
7014720416,0.00091553,0.00302124,-1.00602722,0.366211,-0.061035,-0.061035
7019708208,0.00106812,0.00335693,-1.00503540,0.366211,0.061035,-0.061035
7024690125,0.00152588,0.00347900,-1.00492859,0.183105,-0.061035,-0.061035
7029708458,0.00202942,0.00343323,-1.00572205,0.366211,0.000000,-0.122070
7034803958,0.00218201,0.00338745,-1.00598145,0.366211,0.122070,-0.061035
7039708625,0.00198364,0.00320435,-1.00549316,0.183105,0.061035,0.000000
7044705250,0.00157166,0.00279236,-1.00544739,0.244141,0.122070,-0.061035
7049714166,0.00120544,0.00260925,-1.00628662,0.366211,0.061035,-0.122070
7054730583,0.00114441,0.00273132,-1.00677490,0.366211,0.000000,-0.122070
7059717875,0.00114441,0.00267029,-1.00619507,0.244141,0.122070,0.000000
7064728583,0.00134277,0.00239563,-1.00567627,0.366211,0.000000,-0.061035
7069632666,0.00175476,0.00218201,-1.00631714,0.427246,0.122070,-0.061035
7074726291,0.00213623,0.00248718,-1.00727844,0.244141,0.122070,-0.061035
7079728791,0.00238037,0.00312805,-1.00677490,0.366211,0.122070,0.000000
7084743833,0.00244141,0.00372314,-1.00524902,0.305176,0.061035,-0.061035
7089716458,0.00225830,0.00418091,-1.00505066,0.244141,0.061035,-0.061035
7094732458,0.00204468,0.00422668,-1.00642395,0.244141,0.000000,0.000000
7099751416,0.00215149,0.00378418,-1.00706482,0.366211,0.061035,-0.122070
7104718500,0.00224304,0.00338745,-1.00596619,0.427246,0.000000,-0.122070
7109712750,0.00199890,0.00317383,-1.00494385,0.305176,0.122070,-0.122070
7114709625,0.00151062,0.00291443,-1.00567627,0.244141,0.000000,0.061035
7119739625,0.00114441,0.00267029,-1.00717163,0.305176,0.061035,0.000000
7124752458,0.00131226,0.00285339,-1.00703430,0.183105,0.000000,-0.122070
7129716583,0.00178528,0.00315857,-1.00547791,0.244141,0.061035,0.000000
7134746708,0.00202942,0.00296021,-1.00469971,0.366211,0.122070,0.000000
7139762166,0.00202942,0.00267029,-1.00515747,0.183105,-0.061035,-0.061035
7144732208,0.00210571,0.00273132,-1.00561523,0.244141,0.061035,-0.122070
7149761500,0.00199890,0.00291443,-1.00535583,0.305176,0.000000,-0.183105
7154719500,0.00128174,0.00302124,-1.00514221,0.427246,-0.061035,-0.122070
7159722625,0.00041199,0.00318909,-1.00595093,0.244141,0.000000,-0.122070
7164705291,0.00030518,0.00338745,-1.00679016,0.427246,0.000000,0.000000
7169767166,0.00111389,0.00338745,-1.00625610,0.305176,0.122070,-0.183105
7174753916,0.00180054,0.00328064,-1.00547791,0.305176,0.000000,-0.122070
7179773125,0.00177002,0.00317383,-1.00596619,0.305176,0.122070,-0.061035
7184753791,0.00149536,0.00285339,-1.00660706,0.366211,0.000000,-0.122070
7189722041,0.00143433,0.00238037,-1.00598145,0.366211,0.000000,-0.061035
7194748375,0.00172424,0.00228882,-1.00524902,0.244141,0.000000,-0.183105
7199751833,0.00212097,0.00251770,-1.00584412,0.305176,0.000000,-0.122070
7204751541,0.00207520,0.00267029,-1.00715637,0.366211,0.061035,-0.061035
7209865291,0.00175476,0.00279236,-1.00747681,0.366211,0.061035,0.061035
7214738791,0.00167847,0.00289917,-1.00657654,0.305176,0.000000,-0.061035
7219712250,0.00169373,0.00291443,-1.00602722,0.427246,0.183105,0.061035
7224765500,0.00177002,0.00308228,-1.00643921,0.183105,-0.061035,-0.061035
7229748791,0.00202942,0.00341797,-1.00682068,0.305176,0.061035,0.000000
7234753833,0.00242615,0.00355530,-1.00611877,0.244141,0.061035,-0.122070
7239721916,0.00241089,0.00309753,-1.00515747,0.244141,0.061035,-0.122070
7244734166,0.00167847,0.00251770,-1.00552368,0.244141,0.000000,-0.061035
7249776666,0.00099182,0.00247192,-1.00634766,0.366211,0.061035,-0.183105
7254756541,0.00074768,0.00282288,-1.00607300,0.305176,0.061035,-0.061035
7259740833,0.00050354,0.00302124,-1.00532532,0.244141,0.061035,0.000000
7264745458,0.00016785,0.00297546,-1.00552368,0.183105,0.000000,-0.061035
7269760333,0.00053406,0.00291443,-1.00636292,0.244141,-0.061035,-0.061035
7274737833,0.00149536,0.00289917,-1.00656128,0.244141,0.000000,-0.061035
7279751333,0.00228882,0.00292969,-1.00608826,0.305176,0.061035,-0.061035
7284727833,0.00288391,0.00306702,-1.00559998,0.366211,0.061035,0.000000
7289732708,0.00289917,0.00334167,-1.00563049,0.427246,-0.061035,-0.122070
7294787125,0.00215149,0.00331116,-1.00576782,0.427246,0.122070,-0.122070
7299766666,0.00172424,0.00289917,-1.00549316,0.305176,0.122070,-0.122070
7304735500,0.00193787,0.00271606,-1.00529480,0.244141,0.122070,-0.061035
7309762250,0.00210571,0.00268555,-1.00540161,0.305176,0.000000,-0.061035
7314724291,0.00212097,0.00248718,-1.00550842,0.244141,0.061035,0.000000
7319742166,0.00239563,0.00248718,-1.00546265,0.244141,0.000000,-0.061035
7324720625,0.00268555,0.00288391,-1.00538635,0.305176,0.000000,0.061035
7329745958,0.00244141,0.00288391,-1.00531006,0.305176,0.000000,0.000000
7335024083,0.00180054,0.00251770,-1.00498962,0.427246,0.000000,0.000000
7339724791,0.00122070,0.00244141,-1.00457764,0.305176,0.000000,-0.061035
7344864708,0.00093079,0.00289917,-1.00471497,0.183105,0.061035,-0.122070
7349751625,0.00093079,0.00337219,-1.00558472,0.244141,0.061035,-0.183105
7354786458,0.00115967,0.00347900,-1.00634766,0.183105,0.061035,-0.122070
7359780750,0.00140381,0.00323486,-1.00645447,0.366211,0.061035,-0.122070
7364749666,0.00151062,0.00282288,-1.00599670,0.366211,-0.122070,-0.244141
7369797416,0.00146484,0.00248718,-1.00552368,0.366211,0.000000,-0.122070
7374762250,0.00129700,0.00238037,-1.00559998,0.305176,-0.061035,0.000000
7379795958,0.00106812,0.00245667,-1.00607300,0.366211,0.061035,0.061035
7384757416,0.00128174,0.00276184,-1.00607300,0.244141,0.122070,-0.122070
7389751833,0.00169373,0.00329590,-1.00561523,0.244141,0.061035,-0.122070
7394799375,0.00177002,0.00357056,-1.00543213,0.183105,0.061035,-0.122070
7399795083,0.00199890,0.00334167,-1.00570679,0.427246,0.061035,-0.122070
7404795458,0.00250244,0.00321960,-1.00564575,0.366211,0.000000,-0.122070
7409772958,0.00241089,0.00350952,-1.00520325,0.366211,0.122070,-0.122070
7414750833,0.00210571,0.00370789,-1.00521851,0.244141,0.000000,-0.122070
7419786125,0.00259399,0.00352478,-1.00588989,0.366211,0.000000,-0.122070
7424783541,0.00309753,0.00334167,-1.00639343,0.427246,0.061035,-0.061035
7429799583,0.00267029,0.00321960,-1.00605774,0.366211,0.061035,-0.061035
7434798333,0.00192261,0.00309753,-1.00543213,0.366211,0.061035,0.000000
7439760416,0.00148010,0.00280762,-1.00537109,0.183105,0.122070,0.000000
7444820166,0.00138855,0.00219727,-1.00578308,0.305176,0.061035,-0.061035
7449874500,0.00143433,0.00181580,-1.00627136,0.244141,0.061035,0.000000
7454807166,0.00149536,0.00201416,-1.00656128,0.183105,-0.061035,0.000000
7459815958,0.00175476,0.00227356,-1.00669861,0.305176,0.061035,-0.122070
7464765208,0.00215149,0.00218201,-1.00663757,0.305176,-0.061035,-0.122070
7469803916,0.00202942,0.00210571,-1.00646973,0.305176,0.000000,0.000000
7474789791,0.00148010,0.00219727,-1.00657654,0.488281,0.061035,-0.061035
7479810833,0.00132751,0.00222778,-1.00700378,0.366211,0.061035,-0.122070
7484791333,0.00177002,0.00245667,-1.00704956,0.366211,0.061035,-0.061035
7489785541,0.00213623,0.00292969,-1.00646973,0.427246,0.061035,0.000000
7494810541,0.00190735,0.00315857,-1.00561523,0.305176,0.061035,0.061035
7499821458,0.00132751,0.00286865,-1.00521851,0.305176,0.000000,-0.061035
7504808000,0.00106812,0.00265503,-1.00582886,0.244141,0.183105,-0.061035
7509805666,0.00154114,0.00297546,-1.00646973,0.305176,0.000000,-0.183105
7514766916,0.00241089,0.00355530,-1.00602722,0.244141,0.000000,-0.183105
7519834416,0.00291443,0.00370789,-1.00521851,0.427246,0.061035,-0.122070
7524824916,0.00268555,0.00314331,-1.00509644,0.305176,0.122070,-0.122070
7529799166,0.00222778,0.00231934,-1.00540161,0.366211,0.183105,-0.061035
7534818166,0.00231934,0.00202942,-1.00534058,0.366211,0.122070,-0.122070
7539789666,0.00241089,0.00212097,-1.00512695,0.183105,0.000000,0.061035
7544824875,0.00157166,0.00207520,-1.00563049,0.244141,0.122070,0.061035
7549805375,0.00073242,0.00187683,-1.00666809,0.305176,0.061035,-0.122070
7554851166,0.00083923,0.00190735,-1.00698853,0.366211,0.061035,-0.061035
7559811500,0.00120544,0.00230408,-1.00627136,0.244141,0.122070,0.000000
7564796541,0.00108337,0.00248718,-1.00576782,0.366211,-0.061035,-0.183105
7569790916,0.00038147,0.00238037,-1.00614929,0.305176,0.000000,-0.061035
7574790666,-0.00012207,0.00222778,-1.00654602,0.244141,0.000000,-0.122070
7579813916,0.00021362,0.00204468,-1.00605774,0.244141,0.000000,0.000000
7584826083,0.00077820,0.00195312,-1.00509644,0.244141,-0.061035,-0.061035
7589853541,0.00077820,0.00224304,-1.00498962,0.366211,0.122070,0.000000
7594826791,0.00054932,0.00289917,-1.00555420,0.366211,-0.061035,-0.122070
7599795333,0.00071716,0.00341797,-1.00553894,0.366211,0.000000,-0.122070
7604790875,0.00122070,0.00341797,-1.00517273,0.305176,0.122070,0.000000
7609832500,0.00152588,0.00297546,-1.00546265,0.122070,0.122070,0.061035
7614807666,0.00148010,0.00270081,-1.00640869,0.183105,0.061035,-0.061035
7619788375,0.00143433,0.00292969,-1.00704956,0.244141,0.122070,-0.183105
7624794833,0.00207520,0.00302124,-1.00659180,0.305176,0.122070,-0.061035
7629822916,0.00309753,0.00268555,-1.00610352,0.183105,0.000000,-0.183105
7634802833,0.00311279,0.00239563,-1.00645447,0.244141,0.061035,-0.061035
7639786083,0.00216675,0.00233459,-1.00627136,0.305176,0.061035,-0.061035
7644844875,0.00172424,0.00231934,-1.00500488,0.305176,0.183105,-0.122070
7649802208,0.00207520,0.00236511,-1.00427246,0.244141,0.122070,-0.122070
7654790000,0.00228882,0.00267029,-1.00494385,0.427246,0.183105,-0.183105
7659922625,0.00192261,0.00314331,-1.00596619,0.366211,-0.061035,-0.061035
7664877833,0.00134277,0.00335693,-1.00614929,0.366211,-0.061035,-0.244141
7669819125,0.00100708,0.00323486,-1.00596619,0.366211,0.000000,-0.122070
7674853208,0.00112915,0.00312805,-1.00653076,0.244141,0.122070,-0.183105
7679908041,0.00152588,0.00285339,-1.00753784,0.427246,0.000000,-0.061035
7684848333,0.00167847,0.00262451,-1.00738525,0.427246,0.000000,-0.061035
7689845208,0.00154114,0.00286865,-1.00588989,0.305176,0.000000,-0.061035
7694820750,0.00140381,0.00309753,-1.00515747,0.183105,-0.061035,-0.061035
7699819791,0.00123596,0.00276184,-1.00608826,0.427246,0.122070,-0.122070
7704835458,0.00117493,0.00218201,-1.00675964,0.366211,0.061035,0.061035
7709841916,0.00152588,0.00205994,-1.00605774,0.244141,0.061035,-0.061035
7714843625,0.00192261,0.00230408,-1.00523376,0.366211,0.000000,-0.061035
7719849625,0.00202942,0.00242615,-1.00575256,0.183105,0.000000,-0.122070
7724860125,0.00196838,0.00230408,-1.00717163,0.305176,0.122070,-0.183105
7729877125,0.00187683,0.00205994,-1.00778198,0.427246,0.061035,0.000000
7734854250,0.00166321,0.00193787,-1.00648499,0.305176,0.122070,-0.122070
7739873625,0.00137329,0.00222778,-1.00433350,0.427246,0.122070,-0.061035
7744851833,0.00102234,0.00270081,-1.00398254,0.366211,0.122070,-0.061035
7749846791,0.00062561,0.00279236,-1.00532532,0.305176,0.061035,-0.122070
7754820708,0.00065613,0.00263977,-1.00608826,0.244141,0.122070,-0.061035
7759823208,0.00158691,0.00265503,-1.00646973,0.305176,0.183105,-0.061035
7764842916,0.00265503,0.00260925,-1.00733948,0.305176,0.061035,0.000000
7769828416,0.00288391,0.00234985,-1.00747681,0.244141,0.061035,-0.183105
7774820041,0.00228882,0.00231934,-1.00610352,0.305176,0.000000,-0.122070
7779833958,0.00161743,0.00268555,-1.00500488,0.488281,0.061035,0.000000
7784833541,0.00158691,0.00312805,-1.00547791,0.366211,0.122070,0.000000
7789853958,0.00202942,0.00357056,-1.00669861,0.366211,0.061035,-0.122070
7794841916,0.00219727,0.00387573,-1.00704956,0.366211,0.000000,-0.061035
7799841958,0.00199890,0.00390625,-1.00627136,0.305176,-0.061035,0.061035
7804825458,0.00157166,0.00364685,-1.00578308,0.244141,0.061035,-0.061035
7809842041,0.00109863,0.00341797,-1.00639343,0.366211,0.061035,0.000000
7814897000,0.00083923,0.00335693,-1.00663757,0.366211,0.000000,-0.122070
7819876208,0.00065613,0.00338745,-1.00570679,0.244141,-0.061035,-0.122070
7824834250,0.00054932,0.00334167,-1.00518799,0.305176,0.000000,-0.183105
7829844791,0.00071716,0.00294495,-1.00611877,0.244141,0.000000,0.000000
7834836458,0.00103760,0.00228882,-1.00712585,0.427246,0.122070,-0.122070
7839850208,0.00138855,0.00190735,-1.00660706,0.427246,0.061035,0.000000
7844855375,0.00169373,0.00204468,-1.00540161,0.244141,-0.061035,-0.183105
7849857000,0.00154114,0.00236511,-1.00552368,0.366211,0.061035,-0.122070
7854918333,0.00120544,0.00248718,-1.00675964,0.183105,0.000000,-0.061035
7859848875,0.00170898,0.00248718,-1.00682068,0.366211,0.000000,-0.122070
7864861000,0.00299072,0.00262451,-1.00538635,0.183105,0.122070,-0.061035
7869860666,0.00364685,0.00285339,-1.00489807,0.183105,0.000000,-0.122070
7874862791,0.00299072,0.00292969,-1.00588989,0.183105,0.061035,-0.122070
7879863375,0.00187683,0.00274658,-1.00643921,0.305176,0.061035,-0.061035
7884839833,0.00135803,0.00262451,-1.00592041,0.244141,-0.122070,0.000000
7889856458,0.00172424,0.00297546,-1.00549316,0.244141,0.061035,0.000000
7894849541,0.00262451,0.00338745,-1.00590515,0.244141,0.000000,-0.122070
7899856083,0.00317383,0.00352478,-1.00642395,0.366211,-0.122070,0.000000
7904841125,0.00271606,0.00375366,-1.00590515,0.244141,0.061035,-0.061035
7909875208,0.00192261,0.00422668,-1.00495911,0.366211,0.122070,-0.122070
7914860375,0.00189209,0.00410461,-1.00521851,0.305176,0.000000,0.000000
7919846541,0.00209045,0.00309753,-1.00672913,0.366211,0.061035,-0.122070
7924877333,0.00157166,0.00215149,-1.00749207,0.366211,0.061035,0.000000
7929870333,0.00073242,0.00216675,-1.00675964,0.427246,0.061035,0.000000
7934853833,0.00036621,0.00262451,-1.00595093,0.244141,0.061035,-0.122070
7939844916,0.00067139,0.00268555,-1.00608826,0.244141,0.000000,0.000000
7944884208,0.00117493,0.00257874,-1.00651550,0.244141,0.122070,-0.061035
7949874125,0.00100708,0.00263977,-1.00634766,0.427246,0.061035,0.000000
7955022333,0.00027466,0.00242615,-1.00581360,0.488281,0.061035,-0.061035
7959856416,0.00022888,0.00193787,-1.00567627,0.366211,0.000000,0.000000
7964877041,0.00134277,0.00195312,-1.00608826,0.244141,0.061035,-0.244141
7969929791,0.00260925,0.00251770,-1.00633240,0.244141,0.122070,-0.122070
7974877083,0.00306702,0.00285339,-1.00596619,0.183105,0.122070,0.000000
7979927625,0.00283813,0.00256348,-1.00559998,0.305176,0.000000,-0.061035
7984912291,0.00247192,0.00228882,-1.00566101,0.122070,0.061035,-0.061035
7989861208,0.00213623,0.00277710,-1.00570679,0.244141,0.122070,0.122070
7994874583,0.00219727,0.00329590,-1.00537109,0.244141,0.061035,0.000000
7999881083,0.00250244,0.00325012,-1.00527954,0.366211,0.183105,-0.122070
8004867875,0.00239563,0.00318909,-1.00607300,0.427246,0.122070,-0.061035
8009896750,0.00216675,0.00332642,-1.00712585,0.366211,0.000000,0.000000
8014895125,0.00224304,0.00344849,-1.00697327,0.244141,0.061035,-0.061035
8019882791,0.00224304,0.00355530,-1.00578308,0.183105,0.061035,-0.122070
8024895208,0.00141907,0.00358582,-1.00503540,0.305176,0.122070,-0.061035
8029893458,0.00024414,0.00337219,-1.00547791,0.244141,0.000000,-0.061035
8034892416,0.00003052,0.00321960,-1.00590515,0.366211,0.061035,0.061035
8039871666,0.00079346,0.00328064,-1.00531006,0.366211,0.061035,-0.061035
8044878166,0.00151062,0.00326538,-1.00471497,0.305176,0.000000,-0.061035
8049894541,0.00180054,0.00291443,-1.00527954,0.244141,0.061035,-0.183105
8054884958,0.00195312,0.00257874,-1.00610352,0.305176,0.000000,-0.122070
8059910708,0.00216675,0.00276184,-1.00585938,0.183105,0.122070,-0.061035
8064880458,0.00239563,0.00318909,-1.00558472,0.305176,0.061035,0.061035
8069913083,0.00259399,0.00312805,-1.00645447,0.305176,0.122070,-0.061035
8074977333,0.00297546,0.00267029,-1.00714111,0.244141,0.061035,-0.122070
8079914041,0.00326538,0.00245667,-1.00622559,0.305176,0.061035,-0.061035
8084892333,0.00321960,0.00265503,-1.00491333,0.305176,0.122070,-0.061035
8089902416,0.00328064,0.00277710,-1.00518799,0.183105,0.000000,-0.122070
8094908791,0.00344849,0.00273132,-1.00660706,0.183105,-0.061035,-0.122070
8099897083,0.00299072,0.00247192,-1.00715637,0.244141,-0.061035,-0.061035
8104874458,0.00209045,0.00210571,-1.00633240,0.427246,0.000000,-0.061035
8109898708,0.00167847,0.00215149,-1.00543213,0.427246,0.061035,-0.183105
8114904708,0.00192261,0.00276184,-1.00520325,0.427246,-0.061035,-0.061035
8119899291,0.00198364,0.00352478,-1.00534058,0.488281,0.061035,-0.122070
8124943250,0.00146484,0.00381470,-1.00553894,0.366211,0.183105,-0.061035
8129923166,0.00079346,0.00360107,-1.00566101,0.427246,0.122070,-0.122070
8134910750,0.00038147,0.00335693,-1.00569153,0.488281,0.122070,-0.061035
8139911708,0.00015259,0.00321960,-1.00604248,0.244141,0.122070,0.000000
8144922083,0.00019836,0.00343323,-1.00630188,0.366211,0.061035,-0.061035
8149911250,0.00070190,0.00398254,-1.00627136,0.427246,0.061035,0.000000
8154901166,0.00129700,0.00410461,-1.00662231,0.244141,0.061035,0.061035
8159896000,0.00161743,0.00349426,-1.00738525,0.366211,0.122070,-0.061035
8164901541,0.00198364,0.00273132,-1.00721741,0.305176,0.061035,0.061035
8169903333,0.00271606,0.00239563,-1.00588989,0.305176,0.122070,-0.061035
8174933375,0.00334167,0.00254822,-1.00488281,0.122070,0.000000,-0.061035
8179925250,0.00341797,0.00286865,-1.00518799,0.244141,0.061035,-0.122070
