timestamp_ns,accel_x,accel_y,accel_z,gyro_x,gyro_y,gyro_z
58846875,0.00411987,0.00209045,-1.00935364,0.061035,0.061035,-0.061035
63814125,0.00343323,0.00163269,-1.00415039,0.427246,0.061035,0.000000
68806333,0.00291443,0.00134277,-1.00340271,0.427246,0.122070,-0.061035
73834875,0.00280762,0.00096130,-1.00732422,0.183105,0.122070,0.000000
79179750,0.00277710,0.00041199,-1.00651550,0.244141,0.122070,0.000000
84275000,0.00245667,0.00019836,-1.00544739,0.366211,-0.061035,-0.183105
88853958,0.00193787,0.00082397,-1.00680542,0.366211,0.122070,0.000000
94059458,0.00137329,0.00193787,-1.00593567,0.244141,0.061035,0.000000
103888791,0.00083923,0.00311279,-1.00512695,0.366211,0.000000,-0.183105
103914250,0.00076294,0.00390625,-1.00660706,0.244141,0.061035,-0.122070
109642791,0.00103760,0.00427246,-1.00627136,0.183105,0.061035,-0.122070
115959708,0.00099182,0.00457764,-1.00489807,0.549316,-0.061035,-0.061035
119131666,0.00079346,0.00483704,-1.00555420,0.183105,0.000000,0.000000
124705291,0.00083923,0.00483704,-1.00575256,0.244141,0.183105,0.000000
129265083,0.00106812,0.00471497,-1.00549316,0.305176,0.061035,-0.061035
134556958,0.00152588,0.00480652,-1.00610352,0.305176,0.000000,0.122070
139757916,0.00227356,0.00502014,-1.00527954,0.244141,0.000000,-0.061035
143833916,0.00286865,0.00538635,-1.00466919,0.305176,-0.122070,-0.122070
148887208,0.00305176,0.00564575,-1.00622559,0.305176,-0.061035,0.061035
153929500,0.00314331,0.00532532,-1.00685120,0.366211,0.061035,-0.061035
158815125,0.00355530,0.00466919,-1.00592041,0.244141,0.061035,-0.122070
163825291,0.00425720,0.00410461,-1.00572205,0.488281,0.122070,-0.061035
168847625,0.00462341,0.00349426,-1.00642395,0.244141,0.000000,-0.122070
173882583,0.00413513,0.00280762,-1.00692749,0.122070,0.000000,0.000000
178856875,0.00338745,0.00209045,-1.00614929,0.305176,0.061035,0.000000
183848583,0.00326538,0.00148010,-1.00477600,0.366211,0.061035,-0.122070
188868208,0.00320435,0.00097656,-1.00486755,0.244141,0.061035,-0.122070
193874750,0.00244141,0.00047302,-1.00643921,0.244141,0.122070,-0.061035
198844291,0.00146484,0.00042725,-1.00694275,0.244141,0.122070,0.000000
203856625,0.00112915,0.00099182,-1.00558472,0.305176,0.122070,-0.061035
208860208,0.00123596,0.00177002,-1.00512695,0.305176,0.061035,-0.122070
213906791,0.00090027,0.00254822,-1.00645447,0.305176,0.000000,-0.183105
218851416,0.00036621,0.00326538,-1.00721741,0.305176,0.000000,-0.061035
223908625,0.00042725,0.00390625,-1.00639343,0.183105,0.000000,-0.122070
228855958,0.00093079,0.00428772,-1.00502014,0.427246,0.122070,-0.061035
233900000,0.00137329,0.00434875,-1.00488281,0.183105,0.000000,-0.061035
238892958,0.00144958,0.00434875,-1.00625610,0.366211,0.000000,0.000000
243918916,0.00108337,0.00444031,-1.00674438,0.305176,0.183105,0.000000
248926791,0.00065613,0.00480652,-1.00564575,0.244141,0.122070,0.000000
253881166,0.00083923,0.00526428,-1.00512695,0.366211,0.122070,-0.122070
258933166,0.00175476,0.00505066,-1.00616455,0.305176,0.061035,0.000000
263885416,0.00288391,0.00390625,-1.00700378,0.366211,0.122070,-0.061035
268862666,0.00357056,0.00254822,-1.00628662,0.244141,0.061035,0.000000
273888208,0.00390625,0.00196838,-1.00541687,0.244141,0.122070,-0.061035
278871875,0.00422668,0.00230408,-1.00582886,0.427246,0.000000,-0.061035
283877833,0.00442505,0.00282288,-1.00660706,0.183105,-0.061035,-0.183105
288876166,0.00448608,0.00302124,-1.00637817,0.183105,-0.061035,-0.122070
293898416,0.00463867,0.00291443,-1.00564575,0.305176,0.061035,0.000000
298872166,0.00457764,0.00263977,-1.00592041,0.305176,0.122070,0.000000
303886000,0.00399780,0.00241089,-1.00683594,0.305176,0.000000,-0.122070
308866583,0.00341797,0.00215149,-1.00627136,0.366211,0.061035,-0.061035
313890208,0.00305176,0.00172424,-1.00476074,0.427246,0.000000,-0.061035
318883583,0.00242615,0.00122070,-1.00482178,0.427246,0.061035,-0.122070
323907125,0.00157166,0.00102234,-1.00671387,0.305176,0.061035,-0.061035
328866500,0.00083923,0.00140381,-1.00784302,0.427246,0.000000,-0.061035
333891416,0.00024414,0.00213623,-1.00660706,0.244141,0.000000,-0.122070
338880125,-0.00012207,0.00279236,-1.00486755,0.305176,0.000000,-0.061035
343959625,-0.00009155,0.00315857,-1.00485229,0.244141,-0.061035,-0.183105
348901208,0.00027466,0.00370789,-1.00588989,0.244141,0.122070,-0.061035
353902333,0.00070190,0.00463867,-1.00622559,0.366211,0.061035,0.000000
358878125,0.00077820,0.00531006,-1.00566101,0.366211,0.000000,0.000000
363980000,0.00091553,0.00527954,-1.00564575,0.305176,0.183105,-0.122070
368924166,0.00160217,0.00477600,-1.00651550,0.244141,0.000000,-0.122070
373918750,0.00234985,0.00450134,-1.00660706,0.305176,0.000000,-0.122070
378927333,0.00277710,0.00476074,-1.00549316,0.488281,0.061035,0.000000
383902416,0.00306702,0.00488281,-1.00476074,0.366211,0.122070,0.000000
388969166,0.00328064,0.00439453,-1.00544739,0.305176,0.061035,-0.122070
393907833,0.00346375,0.00363159,-1.00630188,0.549316,0.061035,-0.061035
398916625,0.00384521,0.00282288,-1.00602722,0.427246,0.061035,-0.061035
403920625,0.00431824,0.00216675,-1.00584412,0.427246,0.000000,0.000000
408944416,0.00445557,0.00210571,-1.00665283,0.244141,0.000000,0.000000
413926750,0.00418091,0.00270081,-1.00740051,0.244141,0.000000,-0.122070
418957333,0.00370789,0.00312805,-1.00682068,0.305176,0.000000,0.000000
423929083,0.00315857,0.00288391,-1.00564575,0.488281,0.183105,-0.122070
428922875,0.00259399,0.00260925,-1.00587463,0.366211,0.061035,0.000000
433951500,0.00181580,0.00271606,-1.00733948,0.427246,0.122070,-0.061035
438926125,0.00074768,0.00273132,-1.00744629,0.488281,0.000000,-0.061035
443958083,-0.00015259,0.00245667,-1.00611877,0.610352,0.122070,0.000000
448920708,-0.00041199,0.00231934,-1.00552368,0.488281,0.000000,-0.061035
453925458,-0.00036621,0.00239563,-1.00558472,0.488281,0.061035,0.000000
458936583,-0.00041199,0.00263977,-1.00587463,0.244141,0.122070,-0.122070
463955750,-0.00042725,0.00314331,-1.00636292,0.488281,0.122070,-0.061035
468922166,-0.00003052,0.00369263,-1.00639343,0.305176,0.061035,0.000000
473925208,0.00071716,0.00407410,-1.00654602,0.305176,0.061035,-0.122070
478921458,0.00180054,0.00457764,-1.00759888,0.427246,0.000000,-0.061035
483954416,0.00302124,0.00506592,-1.00767517,0.610352,0.122070,-0.122070
488939500,0.00358582,0.00511169,-1.00526428,0.488281,0.183105,-0.061035
493974000,0.00363159,0.00480652,-1.00222778,0.427246,0.305176,-0.122070
498948000,0.00398254,0.00418091,-1.00209045,0.366211,0.122070,0.000000
503914083,0.00500488,0.00338745,-1.00526428,0.122070,0.061035,0.000000
508924625,0.00602722,0.00285339,-1.00897217,0.427246,0.061035,0.000000
513936833,0.00576782,0.00247192,-1.01097107,0.427246,-0.061035,-0.061035
518980791,0.00418091,0.00180054,-1.00962830,0.305176,0.000000,0.061035
523960125,0.00268555,0.00125122,-1.00570679,0.366211,0.122070,0.000000
528924416,0.00231934,0.00151062,-1.00354004,0.549316,0.183105,-0.061035
533961333,0.00251770,0.00199890,-1.00482178,0.488281,0.000000,-0.061035
538932500,0.00212097,0.00222778,-1.00646973,0.427246,0.000000,-0.122070
543986541,0.00125122,0.00271606,-1.00706482,0.366211,-0.122070,-0.122070
548969750,0.00059509,0.00367737,-1.00680542,0.366211,0.000000,-0.183105
553965375,0.00038147,0.00457764,-1.00508118,0.427246,0.061035,-0.122070
559042625,0.00033569,0.00495911,-1.00389099,0.427246,0.061035,-0.122070
563951375,0.00025940,0.00494385,-1.00544739,0.549316,0.122070,-0.122070
568938125,0.00033569,0.00469971,-1.00677490,0.488281,0.000000,-0.122070
573955208,0.00065613,0.00427246,-1.00569153,0.427246,0.000000,-0.122070
578946625,0.00088501,0.00399780,-1.00477600,0.488281,0.122070,0.000000
583942708,0.00076294,0.00404358,-1.00567627,0.488281,0.061035,-0.122070
588950041,0.00067139,0.00381470,-1.00646973,0.488281,0.122070,-0.061035
593952208,0.00128174,0.00296021,-1.00567627,0.427246,0.061035,0.061035
598935041,0.00234985,0.00198364,-1.00515747,0.366211,0.183105,0.000000
603985458,0.00311279,0.00175476,-1.00654602,0.366211,0.122070,-0.122070
608977208,0.00355530,0.00204468,-1.00796509,0.366211,0.061035,-0.061035
613980166,0.00398254,0.00210571,-1.00741577,0.549316,0.061035,-0.122070
618953166,0.00405884,0.00196838,-1.00613403,0.244141,0.000000,-0.122070
624045541,0.00364685,0.00177002,-1.00579834,0.305176,0.122070,-0.122070
628964666,0.00292969,0.00144958,-1.00656128,0.366211,0.061035,0.000000
633960000,0.00210571,0.00119019,-1.00730896,0.427246,0.000000,-0.061035
638962291,0.00138855,0.00112915,-1.00651550,0.427246,0.122070,0.000000
643958125,0.00097656,0.00085449,-1.00498962,0.183105,0.122070,0.000000
648951625,0.00094604,0.00041199,-1.00521851,0.366211,0.183105,0.000000
653948666,0.00120544,0.00051880,-1.00712585,0.305176,0.061035,0.061035
659022041,0.00146484,0.00117493,-1.00799561,0.183105,0.000000,0.000000
663969500,0.00160217,0.00207520,-1.00682068,0.305176,0.122070,0.000000
668955708,0.00158691,0.00314331,-1.00561523,0.366211,0.000000,-0.061035
674016166,0.00149536,0.00393677,-1.00579834,0.244141,-0.061035,-0.122070
679010041,0.00155640,0.00447083,-1.00614929,0.427246,0.000000,0.000000
683967041,0.00199890,0.00512695,-1.00541687,0.366211,0.122070,-0.122070
689053875,0.00277710,0.00553894,-1.00465393,0.366211,0.000000,-0.061035
693990875,0.00390625,0.00518799,-1.00494385,0.427246,0.061035,0.061035
698943875,0.00488281,0.00424194,-1.00543213,0.427246,0.000000,-0.122070
703961875,0.00494385,0.00340271,-1.00573730,0.427246,0.183105,-0.122070
708972291,0.00408936,0.00294495,-1.00613403,0.488281,0.061035,0.000000
713989416,0.00312805,0.00271606,-1.00650024,0.305176,0.000000,-0.061035
718977083,0.00270081,0.00213623,-1.00675964,0.244141,0.000000,-0.061035
724010875,0.00256348,0.00140381,-1.00668335,0.244141,0.000000,-0.122070
728985000,0.00234985,0.00144958,-1.00628662,0.366211,-0.061035,-0.061035
733977666,0.00187683,0.00198364,-1.00625610,0.122070,0.000000,-0.061035
738988875,0.00123596,0.00215149,-1.00659180,0.305176,0.061035,0.061035
744005291,0.00085449,0.00212097,-1.00654602,0.305176,0.122070,-0.061035
748973291,0.00090027,0.00250244,-1.00572205,0.183105,0.000000,-0.061035
753988791,0.00106812,0.00309753,-1.00460815,0.244141,0.061035,-0.183105
758970041,0.00093079,0.00323486,-1.00421143,0.122070,0.122070,0.061035
764010375,0.00059509,0.00292969,-1.00471497,0.427246,0.000000,-0.122070
768988500,0.00044250,0.00279236,-1.00561523,0.305176,0.000000,-0.061035
774004750,0.00057983,0.00296021,-1.00636292,0.244141,-0.061035,-0.061035
779041791,0.00093079,0.00320435,-1.00631714,0.366211,0.122070,-0.122070
783978833,0.00143433,0.00325012,-1.00585938,0.244141,-0.061035,0.000000
789038875,0.00209045,0.00314331,-1.00607300,0.366211,-0.061035,0.000000
794015958,0.00303650,0.00286865,-1.00668335,0.305176,0.000000,-0.061035
798967583,0.00399780,0.00276184,-1.00695801,0.366211,0.061035,-0.061035
803980458,0.00447083,0.00341797,-1.00675964,0.305176,0.061035,-0.061035
808973000,0.00440979,0.00434875,-1.00601196,0.366211,0.122070,-0.061035
813977583,0.00381470,0.00439453,-1.00547791,0.427246,0.061035,-0.061035
819038416,0.00299072,0.00379944,-1.00576782,0.366211,0.061035,-0.122070
824004916,0.00273132,0.00357056,-1.00617981,0.305176,0.061035,0.000000
828981291,0.00300598,0.00361633,-1.00602722,0.305176,0.244141,-0.061035
834010166,0.00294495,0.00328064,-1.00590515,0.488281,0.061035,0.000000
838986125,0.00227356,0.00250244,-1.00630188,0.427246,0.061035,-0.061035
844009541,0.00135803,0.00196838,-1.00680542,0.488281,0.122070,-0.122070
848987541,0.00064087,0.00207520,-1.00669861,0.305176,0.183105,-0.061035
854094041,0.00024414,0.00233459,-1.00614929,0.427246,0.061035,0.061035
858998875,0.00021362,0.00222778,-1.00596619,0.427246,0.061035,-0.061035
864009875,0.00090027,0.00201416,-1.00631714,0.305176,0.061035,-0.122070
868979750,0.00170898,0.00212097,-1.00636292,0.305176,0.000000,-0.122070
874001291,0.00193787,0.00263977,-1.00576782,0.183105,-0.061035,-0.122070
878991666,0.00186157,0.00309753,-1.00527954,0.122070,0.000000,-0.061035
884025625,0.00183105,0.00311279,-1.00556946,0.305176,0.000000,-0.061035
888972208,0.00216675,0.00294495,-1.00572205,0.183105,0.000000,-0.122070
894013625,0.00297546,0.00277710,-1.00480652,0.366211,0.122070,-0.061035
898994250,0.00355530,0.00239563,-1.00399780,0.244141,0.000000,-0.183105
904011708,0.00338745,0.00193787,-1.00480652,0.305176,0.000000,-0.122070
908987958,0.00311279,0.00201416,-1.00590515,0.305176,0.000000,-0.122070
914031666,0.00320435,0.00257874,-1.00587463,0.183105,0.122070,-0.061035
919022750,0.00320435,0.00320435,-1.00534058,0.366211,0.000000,0.061035
924122791,0.00274658,0.00363159,-1.00503540,0.305176,0.061035,-0.061035
929039416,0.00207520,0.00404358,-1.00537109,0.366211,0.061035,-0.244141
934011708,0.00169373,0.00448608,-1.00616455,0.427246,0.000000,-0.061035
938981166,0.00172424,0.00460815,-1.00636292,0.244141,-0.061035,-0.061035
944024291,0.00172424,0.00463867,-1.00595093,0.366211,0.000000,-0.061035
949005500,0.00140381,0.00473022,-1.00602722,0.427246,0.061035,-0.122070
954045875,0.00115967,0.00451660,-1.00608826,0.183105,0.061035,0.000000
959038375,0.00141907,0.00424194,-1.00524902,0.305176,0.061035,-0.061035
964032083,0.00172424,0.00424194,-1.00445557,0.305176,0.122070,-0.122070
968994458,0.00167847,0.00413513,-1.00485229,0.183105,0.061035,0.000000
974087458,0.00172424,0.00341797,-1.00607300,0.366211,-0.061035,0.000000
979023291,0.00207520,0.00256348,-1.00680542,0.244141,0.183105,0.061035
984035458,0.00215149,0.00213623,-1.00608826,0.427246,0.244141,0.000000
989123708,0.00177002,0.00213623,-1.00509644,0.488281,0.122070,-0.183105
994050791,0.00164795,0.00259399,-1.00532532,0.366211,0.122070,0.000000
999026916,0.00199890,0.00302124,-1.00570679,0.244141,0.183105,0.000000
1004057250,0.00219727,0.00265503,-1.00515747,0.244141,0.122070,0.000000
1009039833,0.00227356,0.00161743,-1.00476074,0.244141,0.122070,-0.061035
1014045333,0.00230408,0.00099182,-1.00541687,0.366211,0.061035,-0.183105
1019074541,0.00215149,0.00112915,-1.00645447,0.244141,-0.061035,-0.061035
1024179875,0.00219727,0.00148010,-1.00662231,0.305176,0.061035,-0.183105
1029065000,0.00256348,0.00181580,-1.00582886,0.366211,0.061035,-0.122070
1034041625,0.00260925,0.00224304,-1.00547791,0.488281,0.183105,-0.122070
1039210291,0.00202942,0.00253296,-1.00611877,0.366211,0.183105,-0.122070
1044054375,0.00146484,0.00276184,-1.00637817,0.122070,0.000000,-0.122070
1049043166,0.00135803,0.00305176,-1.00550842,0.366211,0.122070,0.061035
1054097166,0.00167847,0.00379944,-1.00463867,0.427246,0.122070,-0.183105
1059070750,0.00227356,0.00503540,-1.00497437,0.305176,0.061035,-0.122070
1064040916,0.00292969,0.00588989,-1.00607300,0.366211,0.122070,-0.122070
1069075375,0.00331116,0.00581360,-1.00654602,0.427246,0.183105,-0.122070
1074082708,0.00331116,0.00498962,-1.00634766,0.366211,0.122070,-0.061035
1079054083,0.00329590,0.00411987,-1.00592041,0.244141,0.061035,-0.061035
1084034291,0.00317383,0.00367737,-1.00576782,0.122070,0.061035,0.061035
1089160833,0.00285339,0.00346375,-1.00587463,0.244141,0.122070,-0.061035
1094091708,0.00250244,0.00312805,-1.00582886,0.183105,0.000000,0.061035
1099042958,0.00227356,0.00241089,-1.00624084,0.427246,0.122070,-0.122070
1104100125,0.00207520,0.00129700,-1.00743103,0.305176,0.122070,0.000000
1109059750,0.00184631,0.00027466,-1.00801086,0.244141,0.061035,0.000000
1114048000,0.00161743,0.00004578,-1.00735474,0.305176,0.061035,0.000000
1119063375,0.00172424,0.00068665,-1.00639343,0.122070,-0.061035,0.061035
1124109666,0.00205994,0.00138855,-1.00616455,0.183105,0.000000,-0.122070
1129043750,0.00195312,0.00175476,-1.00669861,0.366211,0.000000,0.000000
1134056791,0.00161743,0.00209045,-1.00674438,0.488281,0.061035,0.000000
1139074416,0.00164795,0.00239563,-1.00604248,0.244141,0.122070,-0.061035
1144076416,0.00195312,0.00256348,-1.00587463,0.366211,0.000000,-0.122070
1149037125,0.00245667,0.00291443,-1.00656128,0.366211,0.183105,-0.122070
1154113541,0.00306702,0.00354004,-1.00675964,0.305176,0.122070,-0.122070
1159150541,0.00314331,0.00395203,-1.00587463,0.244141,0.061035,-0.061035
1164068208,0.00259399,0.00398254,-1.00526428,0.366211,0.000000,-0.061035
1169124833,0.00233459,0.00373840,-1.00585938,0.366211,0.000000,-0.183105
1174095916,0.00280762,0.00335693,-1.00682068,0.366211,0.000000,-0.183105
1179070583,0.00323486,0.00329590,-1.00675964,0.427246,0.122070,0.000000
1184044750,0.00314331,0.00361633,-1.00581360,0.305176,0.000000,-0.122070
1189163750,0.00286865,0.00360107,-1.00538635,0.427246,0.061035,-0.122070
1194162208,0.00253296,0.00300598,-1.00598145,0.366211,-0.061035,-0.061035
1199075500,0.00228882,0.00256348,-1.00648499,0.427246,-0.122070,-0.305176
1204117041,0.00233459,0.00254822,-1.00579834,0.488281,0.061035,0.000000
1209134708,0.00218201,0.00253296,-1.00477600,0.366211,0.183105,-0.122070
1214070791,0.00193787,0.00233459,-1.00547791,0.305176,0.061035,-0.061035
1219128458,0.00187683,0.00181580,-1.00708008,0.488281,0.122070,0.000000
1224158791,0.00187683,0.00097656,-1.00714111,0.305176,0.000000,-0.244141
1229056541,0.00169373,0.00053406,-1.00640869,0.366211,0.122070,0.000000
1234124125,0.00143433,0.00080872,-1.00656128,0.305176,0.122070,-0.061035
1239124250,0.00134277,0.00128174,-1.00692749,0.305176,0.000000,-0.183105
1244094083,0.00134277,0.00143433,-1.00624084,0.366211,-0.061035,0.061035
1249067500,0.00146484,0.00161743,-1.00479126,0.366211,-0.061035,-0.183105
1254167416,0.00193787,0.00239563,-1.00428772,0.305176,0.061035,-0.122070
1259103708,0.00250244,0.00373840,-1.00526428,0.488281,0.122070,0.000000
1264137833,0.00262451,0.00460815,-1.00584412,0.244141,0.183105,0.000000
1269065166,0.00228882,0.00448608,-1.00517273,0.427246,0.122070,-0.061035
1274153666,0.00202942,0.00430298,-1.00503540,0.305176,-0.061035,0.000000
1279062083,0.00196838,0.00447083,-1.00625610,0.122070,0.000000,-0.122070
1284103041,0.00204468,0.00451660,-1.00726318,0.427246,0.000000,0.122070
1289148458,0.00224304,0.00450134,-1.00651550,0.122070,-0.061035,0.000000
1294138625,0.00271606,0.00447083,-1.00500488,0.305176,0.000000,-0.061035
1299141250,0.00312805,0.00398254,-1.00483704,0.305176,-0.122070,-0.061035
1304215208,0.00286865,0.00303650,-1.00595093,0.305176,-0.061035,-0.061035
1309096291,0.00222778,0.00221252,-1.00657654,0.244141,0.000000,-0.122070
1314108916,0.00193787,0.00186157,-1.00628662,0.244141,0.122070,0.000000
1319147375,0.00180054,0.00192261,-1.00616455,0.244141,0.061035,0.061035
1324256500,0.00144958,0.00219727,-1.00656128,0.366211,0.000000,0.000000
1329120000,0.00129700,0.00241089,-1.00645447,0.366211,0.000000,0.000000
1334106458,0.00131226,0.00227356,-1.00558472,0.305176,-0.061035,-0.122070
1339198708,0.00097656,0.00204468,-1.00540161,0.366211,0.061035,-0.061035
1344105000,0.00038147,0.00190735,-1.00669861,0.366211,-0.244141,-0.183105
1349193333,0.00024414,0.00169373,-1.00752258,0.122070,0.061035,0.000000
1354209958,0.00077820,0.00152588,-1.00656128,0.183105,0.122070,-0.061035
1359152916,0.00157166,0.00167847,-1.00518799,0.122070,0.122070,-0.061035
1364109083,0.00202942,0.00189209,-1.00547791,0.305176,0.061035,0.000000
1369113125,0.00215149,0.00192261,-1.00761414,0.366211,-0.061035,-0.122070
1374144500,0.00242615,0.00215149,-1.00791931,0.244141,0.000000,-0.061035
1379130625,0.00280762,0.00270081,-1.00456238,0.366211,0.000000,0.000000
1384129625,0.00302124,0.00325012,-1.00238037,0.244141,0.000000,-0.061035
1389224416,0.00315857,0.00389099,-1.00427246,0.244141,0.061035,-0.122070
1394167166,0.00328064,0.00462341,-1.00720215,0.427246,0.122070,-0.183105
1399146625,0.00328064,0.00521851,-1.00837708,0.305176,-0.061035,-0.122070
1404263250,0.00305176,0.00556946,-1.00750732,0.244141,0.000000,-0.061035
1409140583,0.00256348,0.00559998,-1.00585938,0.183105,0.061035,-0.122070
1414132250,0.00236511,0.00517273,-1.00489807,0.427246,0.061035,-0.061035
1419151208,0.00271606,0.00448608,-1.00480652,0.488281,0.183105,0.061035
1424210458,0.00303650,0.00363159,-1.00471497,0.427246,0.000000,0.061035
1429156916,0.00273132,0.00282288,-1.00494385,0.366211,0.122070,-0.061035
1434111875,0.00187683,0.00212097,-1.00540161,0.366211,0.000000,0.061035
1439218083,0.00111389,0.00158691,-1.00473022,0.305176,-0.061035,-0.061035
1444143375,0.00097656,0.00137329,-1.00415039,0.366211,0.061035,0.000000
1449108541,0.00128174,0.00146484,-1.00489807,0.427246,0.000000,0.000000
1454327333,0.00149536,0.00189209,-1.00573730,0.366211,0.000000,-0.122070
1459166791,0.00141907,0.00251770,-1.00628662,0.183105,0.000000,-0.122070
1464136333,0.00132751,0.00274658,-1.00685120,0.366211,0.000000,-0.122070
1469229208,0.00158691,0.00239563,-1.00698853,0.366211,0.061035,0.000000
1474180000,0.00177002,0.00215149,-1.00677490,0.366211,0.061035,0.000000
1479144458,0.00164795,0.00228882,-1.00642395,0.305176,0.183105,0.061035
1484185958,0.00154114,0.00244141,-1.00558472,0.488281,0.122070,-0.061035
1489216083,0.00158691,0.00247192,-1.00502014,0.366211,0.061035,0.061035
1494133583,0.00184631,0.00254822,-1.00578308,0.366211,0.000000,0.000000
1499139166,0.00224304,0.00294495,-1.00642395,0.488281,0.000000,-0.122070
1504258083,0.00233459,0.00350952,-1.00460815,0.366211,0.000000,-0.122070
1509150000,0.00213623,0.00395203,-1.00140381,0.000000,-0.061035,-0.061035
1514122708,0.00205994,0.00450134,-1.00239563,0.061035,0.061035,-0.183105
1519165541,0.00202942,0.00488281,-1.00910950,0.122070,0.000000,0.061035
1524180166,0.00199890,0.00469971,-1.01350403,0.122070,0.000000,-0.122070
1529128416,0.00251770,0.00439453,-1.01046753,0.183105,-0.061035,-0.061035
1534151791,0.00317383,0.00431824,-1.00503540,0.183105,0.061035,-0.061035
1539192125,0.00312805,0.00434875,-1.00250244,0.183105,0.183105,0.061035
1544180958,0.00250244,0.00415039,-1.00338745,0.305176,0.122070,-0.061035
1549156208,0.00172424,0.00340271,-1.00592041,0.305176,-0.061035,0.000000
1554233250,0.00112915,0.00265503,-1.00685120,0.305176,0.000000,-0.061035
1559211958,0.00112915,0.00247192,-1.00546265,0.305176,0.122070,0.000000
1564175125,0.00160217,0.00222778,-1.00527954,0.244141,0.061035,0.000000
1569182125,0.00198364,0.00166321,-1.00680542,0.305176,-0.061035,-0.122070
1574169833,0.00202942,0.00151062,-1.00737000,0.183105,0.000000,-0.061035
1579137333,0.00195312,0.00198364,-1.00689697,0.244141,0.061035,0.000000
1584140500,0.00186157,0.00260925,-1.00639343,0.366211,0.000000,-0.061035
1589224208,0.00160217,0.00296021,-1.00566101,0.305176,0.122070,0.061035
1594191625,0.00167847,0.00302124,-1.00546265,0.244141,0.061035,-0.122070
1599163208,0.00262451,0.00312805,-1.00616455,0.183105,0.061035,-0.061035
1604378541,0.00354004,0.00314331,-1.00657654,0.366211,0.000000,0.061035
1609174666,0.00338745,0.00274658,-1.00645447,0.244141,0.122070,-0.061035
1614194625,0.00254822,0.00244141,-1.00563049,0.183105,0.061035,-0.061035
1619401875,0.00218201,0.00256348,-1.00503540,0.244141,0.000000,-0.061035
1624273958,0.00256348,0.00282288,-1.00587463,0.427246,0.000000,-0.061035
1629186833,0.00289917,0.00299072,-1.00634766,0.183105,0.061035,-0.122070
1634163583,0.00274658,0.00320435,-1.00573730,0.427246,0.122070,0.000000
1639274416,0.00245667,0.00338745,-1.00598145,0.183105,0.000000,-0.122070
1644184083,0.00236511,0.00335693,-1.00663757,0.366211,0.061035,-0.061035
1649145125,0.00241089,0.00303650,-1.00614929,0.244141,-0.061035,-0.122070
1654245208,0.00254822,0.00283813,-1.00541687,0.427246,0.000000,0.000000
1659282750,0.00288391,0.00326538,-1.00509644,0.366211,0.122070,-0.061035
1664201333,0.00305176,0.00398254,-1.00495911,0.427246,0.061035,-0.061035
1669191583,0.00263977,0.00410461,-1.00564575,0.305176,0.000000,-0.122070
1674199583,0.00212097,0.00355530,-1.00608826,0.305176,0.000000,0.000000
1679206583,0.00212097,0.00256348,-1.00474548,0.244141,0.061035,0.000000
1684203666,0.00254822,0.00148010,-1.00389099,0.305176,0.000000,-0.061035
1689263583,0.00277710,0.00082397,-1.00497437,0.427246,0.000000,0.061035
1694226208,0.00254822,0.00056458,-1.00590515,0.366211,0.122070,0.000000
1699204791,0.00212097,0.00053406,-1.00579834,0.305176,0.000000,-0.061035
1704234208,0.00190735,0.00082397,-1.00529480,0.244141,0.061035,-0.061035
1709170708,0.00186157,0.00132751,-1.00521851,0.305176,-0.061035,-0.122070
1714215541,0.00152588,0.00189209,-1.00604248,0.366211,0.061035,-0.122070
1719233000,0.00149536,0.00254822,-1.00668335,0.244141,0.122070,-0.122070
1724239958,0.00244141,0.00346375,-1.00643921,0.305176,0.122070,-0.061035
1729196416,0.00375366,0.00453186,-1.00610352,0.366211,0.000000,-0.061035
1734170208,0.00427246,0.00544739,-1.00599670,0.427246,0.122070,0.000000
1739266875,0.00355530,0.00607300,-1.00572205,0.305176,0.000000,0.000000
1744221083,0.00241089,0.00627136,-1.00537109,0.427246,0.122070,-0.061035
1749176375,0.00204468,0.00593567,-1.00514221,0.244141,0.000000,-0.061035
1754215708,0.00247192,0.00543213,-1.00523376,0.366211,0.122070,-0.061035
1759258375,0.00273132,0.00500488,-1.00566101,0.366211,0.122070,0.000000
1764242208,0.00254822,0.00442505,-1.00564575,0.610352,0.122070,-0.061035
1769240250,0.00248718,0.00382996,-1.00532532,0.488281,0.183105,0.000000
1774230791,0.00263977,0.00384521,-1.00619507,0.427246,0.000000,-0.122070
1779177416,0.00238037,0.00410461,-1.00781250,0.366211,0.061035,-0.061035
1784210708,0.00173950,0.00404358,-1.00769043,0.305176,0.000000,-0.122070
1789262208,0.00126648,0.00401306,-1.00572205,0.366211,0.061035,-0.061035
1794219750,0.00138855,0.00427246,-1.00468445,0.732422,0.183105,-0.183105
1799235041,0.00149536,0.00401306,-1.00578308,0.671387,-0.061035,0.122070
1804213541,0.00074768,0.00288391,-1.00595093,0.244141,-0.061035,-0.122070
1809383125,-0.00019836,0.00175476,-1.00265503,-0.061035,0.183105,-0.061035
1814205333,-0.00033569,0.00131226,-1.00381470,0.244141,0.061035,-0.061035
1819199708,0.00006104,0.00128174,-1.01307678,0.305176,0.183105,0.000000
1824224000,0.00050354,0.00099182,-1.01458740,0.183105,0.122070,0.000000
1829211958,0.00070190,0.00036621,-1.00410461,0.122070,-0.061035,-0.061035
1834264916,0.00083923,0.00007629,-0.99989319,0.366211,0.122070,0.000000
1839238458,0.00180054,0.00074768,-1.00524902,0.061035,-0.061035,-0.122070
1844252916,0.00358582,0.00228882,-1.00827026,0.244141,0.122070,0.000000
1849224416,0.00489807,0.00366211,-1.00756836,0.244141,0.183105,-0.122070
1854242333,0.00515747,0.00434875,-1.00595093,0.061035,0.061035,-0.061035
1859265541,0.00508118,0.00497437,-1.00381470,0.305176,0.000000,-0.061035
1864223125,0.00497437,0.00582886,-1.00523376,0.061035,0.000000,-0.122070
1869320000,0.00431824,0.00636292,-1.00929260,0.000000,-0.061035,-0.061035
1874200250,0.00337219,0.00619507,-1.00831604,0.061035,0.122070,-0.122070
1879189291,0.00296021,0.00555420,-1.00390625,0.427246,0.000000,-0.122070
1884244833,0.00251770,0.00471497,-1.00430298,0.366211,0.061035,-0.122070
1889229791,0.00134277,0.00366211,-1.00756836,0.244141,0.000000,-0.122070
1894231000,-0.00003052,0.00268555,-1.00711060,0.366211,0.061035,-0.122070
1899194625,-0.00061035,0.00209045,-1.00450134,0.366211,0.000000,0.000000
1904216208,-0.00036621,0.00175476,-1.00396729,0.183105,-0.122070,-0.183105
1909245458,0.00013733,0.00131226,-1.00538635,0.244141,0.061035,-0.061035
1914229166,0.00083923,0.00102234,-1.00648499,0.122070,-0.061035,-0.061035
1919249833,0.00149536,0.00119019,-1.00585938,0.244141,0.122070,0.000000
1924304916,0.00166321,0.00160217,-1.00474548,0.183105,0.061035,-0.122070
1929223833,0.00169373,0.00186157,-1.00552368,0.183105,-0.122070,0.000000
1934269958,0.00224304,0.00199890,-1.00718689,0.244141,0.122070,0.000000
1939248291,0.00323486,0.00225830,-1.00662231,0.366211,0.000000,-0.061035
1944236250,0.00379944,0.00280762,-1.00466919,0.366211,0.122070,0.000000
1949234000,0.00381470,0.00344849,-1.00465393,0.244141,0.061035,-0.183105
1954228375,0.00386047,0.00390625,-1.00622559,0.122070,0.061035,-0.122070
1959238000,0.00408936,0.00428772,-1.00654602,0.305176,0.122070,-0.183105
1964225333,0.00436401,0.00485229,-1.00556946,0.244141,0.122070,-0.061035
1969243583,0.00456238,0.00547791,-1.00534058,0.305176,0.061035,-0.061035
1974361708,0.00440979,0.00563049,-1.00665283,0.305176,0.061035,0.061035
1979260500,0.00390625,0.00514221,-1.00801086,0.183105,0.000000,-0.122070
1984253875,0.00321960,0.00450134,-1.00749207,0.244141,0.061035,-0.122070
1989247250,0.00257874,0.00407410,-1.00584412,0.000000,0.000000,0.000000
1994258500,0.00216675,0.00375366,-1.00566101,0.244141,0.122070,0.000000
1999254666,0.00175476,0.00312805,-1.00665283,0.244141,0.122070,-0.061035
2004245166,0.00122070,0.00230408,-1.00662231,0.427246,0.061035,0.000000
2009260958,0.00064087,0.00178528,-1.00587463,0.366211,0.183105,0.000000
2014258125,0.00004578,0.00154114,-1.00592041,0.366211,-0.061035,-0.122070
2019260250,-0.00045776,0.00120544,-1.00648499,0.427246,0.122070,-0.061035
2024258333,-0.00045776,0.00083923,-1.00680542,0.305176,0.061035,0.061035
2029277083,0.00007629,0.00120544,-1.00669861,0.183105,0.122070,0.000000
2034247625,0.00051880,0.00242615,-1.00617981,0.244141,0.183105,0.000000
2039277625,0.00057983,0.00337219,-1.00569153,0.183105,0.000000,0.061035
2044289625,0.00062561,0.00375366,-1.00556946,0.427246,0.183105,-0.061035
2049285625,0.00117493,0.00419617,-1.00521851,0.366211,0.183105,-0.061035
2054278625,0.00236511,0.00482178,-1.00459290,0.244141,0.183105,-0.061035
2059256083,0.00379944,0.00549316,-1.00483704,0.488281,0.183105,-0.122070
2064271416,0.00492859,0.00595093,-1.00601196,0.366211,0.061035,-0.061035
2069252583,0.00508118,0.00595093,-1.00624084,0.427246,0.183105,-0.122070
2074252708,0.00439453,0.00538635,-1.00514221,0.366211,0.183105,-0.183105
2079285250,0.00378418,0.00457764,-1.00442505,0.183105,0.061035,-0.061035
2084281708,0.00349426,0.00384521,-1.00581360,0.305176,0.000000,0.000000
2089320625,0.00318909,0.00314331,-1.00984192,0.427246,0.061035,0.061035
2094274833,0.00259399,0.00234985,-1.01229858,0.244141,0.183105,-0.122070
2099285166,0.00202942,0.00152588,-1.00897217,0.183105,0.061035,0.000000
2104262666,0.00187683,0.00061035,-1.00437927,0.488281,0.000000,0.000000
2109299791,0.00186157,0.00001526,-1.00384521,0.366211,0.183105,-0.061035
2114262208,0.00169373,0.00015259,-1.00549316,0.366211,0.061035,0.061035
2119366208,0.00154114,0.00077820,-1.00659180,0.244141,0.000000,0.000000
2124299333,0.00128174,0.00143433,-1.00694275,0.366211,-0.061035,-0.061035
2129313250,0.00103760,0.00215149,-1.00650024,0.305176,0.000000,-0.183105
2134254125,0.00132751,0.00294495,-1.00628662,0.305176,0.000000,0.000000
2139287583,0.00202942,0.00361633,-1.00665283,0.305176,0.000000,-0.061035
2144255416,0.00225830,0.00418091,-1.00602722,0.244141,0.183105,-0.061035
2149267541,0.00187683,0.00471497,-1.00474548,0.244141,0.061035,-0.061035
2154337958,0.00175476,0.00485229,-1.00463867,0.488281,0.061035,0.000000
2159365916,0.00234985,0.00457764,-1.00543213,0.427246,0.122070,-0.061035
2164292416,0.00309753,0.00444031,-1.00608826,0.488281,0.061035,-0.183105
2169285875,0.00347900,0.00459290,-1.00643921,0.305176,-0.061035,-0.061035
2174250541,0.00349426,0.00451660,-1.00607300,0.549316,0.061035,0.000000
2179239041,0.00350952,0.00411987,-1.00578308,0.366211,0.000000,-0.122070
2184242916,0.00376892,0.00384521,-1.00578308,0.427246,0.000000,-0.061035
2189318291,0.00425720,0.00372314,-1.00633240,0.244141,0.061035,-0.061035
2194341000,0.00465393,0.00341797,-1.00814819,0.305176,-0.061035,0.000000
2199287708,0.00428772,0.00294495,-1.00833130,0.244141,0.122070,-0.122070
2204325166,0.00308228,0.00231934,-1.00686646,0.305176,0.000000,-0.061035
2209298458,0.00201416,0.00138855,-1.00714111,0.488281,0.061035,-0.061035
2214281041,0.00172424,0.00045776,-1.00737000,0.366211,0.061035,-0.122070
2219291083,0.00169373,-0.00016785,-1.00541687,0.488281,0.183105,-0.061035
2224301541,0.00132751,-0.00051880,-1.00418091,0.305176,0.061035,0.000000
2229285958,0.00074768,-0.00048828,-1.00477600,0.427246,0.122070,0.000000
2234351666,0.00032043,-0.00003052,-1.00540161,0.305176,0.122070,-0.061035
2239315708,0.00007629,0.00079346,-1.00570679,0.305176,0.122070,0.061035
2244293000,0.00000000,0.00199890,-1.00540161,0.305176,0.061035,0.000000
2249279458,0.00013733,0.00341797,-1.00456238,0.427246,0.000000,0.061035
2254290083,0.00062561,0.00468445,-1.00509644,0.366211,0.000000,-0.183105
2259308041,0.00119019,0.00543213,-1.00668335,0.427246,0.000000,-0.122070
2264288166,0.00132751,0.00570679,-1.00672913,0.244141,0.000000,0.000000
2269278125,0.00135803,0.00579834,-1.00546265,0.366211,0.061035,-0.061035
2274285083,0.00193787,0.00555420,-1.00506592,0.183105,0.122070,0.000000
2279313708,0.00280762,0.00486755,-1.00592041,0.427246,0.061035,-0.061035
2284308666,0.00337219,0.00379944,-1.00668335,0.549316,0.061035,0.000000
2289318041,0.00344849,0.00260925,-1.00643921,0.366211,0.122070,-0.183105
2294325291,0.00318909,0.00169373,-1.00604248,0.427246,0.061035,0.000000
2299327625,0.00311279,0.00103760,-1.00656128,0.305176,0.000000,-0.061035
2304325250,0.00350952,0.00054932,-1.00706482,0.366211,-0.061035,-0.122070
2309296208,0.00376892,0.00079346,-1.00665283,0.305176,0.061035,-0.061035
2314323083,0.00332642,0.00189209,-1.00636292,0.366211,0.000000,-0.061035
2319301458,0.00248718,0.00297546,-1.00637817,0.488281,0.000000,-0.122070
2324365958,0.00213623,0.00364685,-1.00596619,0.305176,0.122070,-0.122070
2329317500,0.00248718,0.00418091,-1.00532532,0.305176,0.000000,-0.183105
2334355500,0.00259399,0.00453186,-1.00505066,0.244141,-0.061035,-0.061035
2339343958,0.00183105,0.00453186,-1.00540161,0.366211,0.000000,0.061035
2344335833,0.00065613,0.00421143,-1.00625610,0.305176,0.000000,-0.122070
2349339208,0.00013733,0.00370789,-1.00708008,0.305176,0.061035,0.000000
2354302875,0.00048828,0.00337219,-1.00683594,0.488281,0.000000,-0.122070
2359332041,0.00108337,0.00329590,-1.00605774,0.122070,0.061035,-0.122070
2364330333,0.00123596,0.00306702,-1.00625610,0.244141,0.000000,0.000000
2369348000,0.00115967,0.00241089,-1.00669861,0.305176,0.061035,0.000000
2374330000,0.00146484,0.00173950,-1.00640869,0.244141,-0.061035,0.000000
2379342083,0.00209045,0.00161743,-1.00611877,0.244141,0.122070,-0.183105
2384294166,0.00257874,0.00175476,-1.00631714,0.305176,-0.061035,-0.122070
2389344166,0.00283813,0.00172424,-1.00648499,0.244141,0.061035,-0.122070
2394360625,0.00277710,0.00183105,-1.00642395,0.183105,-0.061035,-0.122070
2399349750,0.00241089,0.00221252,-1.00634766,0.366211,0.122070,-0.061035
2404340666,0.00228882,0.00247192,-1.00631714,0.488281,0.061035,-0.122070
2409337666,0.00259399,0.00259399,-1.00607300,0.366211,0.061035,-0.061035
2414367458,0.00291443,0.00282288,-1.00572205,0.366211,0.122070,-0.061035
2419350750,0.00296021,0.00321960,-1.00588989,0.366211,0.061035,0.061035
2424366041,0.00273132,0.00372314,-1.00668335,0.305176,0.122070,-0.122070
2429309833,0.00233459,0.00413513,-1.00695801,0.305176,-0.061035,-0.122070
2434378000,0.00196838,0.00411987,-1.00636292,0.305176,-0.061035,0.000000
2439435500,0.00163269,0.00395203,-1.00590515,0.183105,0.061035,-0.061035
2444371333,0.00125122,0.00405884,-1.00639343,0.305176,0.061035,0.000000
2449368541,0.00114441,0.00466919,-1.00755310,0.366211,-0.061035,-0.183105
2454330208,0.00144958,0.00515747,-1.00802612,0.244141,0.000000,0.000000
2459348208,0.00195312,0.00492859,-1.00697327,0.183105,0.183105,-0.244141
2464356791,0.00231934,0.00424194,-1.00567627,0.366211,0.061035,-0.061035
2469343416,0.00221252,0.00328064,-1.00556946,0.305176,0.122070,-0.061035
2474321708,0.00172424,0.00207520,-1.00619507,0.549316,0.061035,-0.061035
2479323000,0.00105286,0.00079346,-1.00617981,0.427246,0.244141,0.000000
2484357583,0.00065613,-0.00013733,-1.00549316,0.488281,0.000000,-0.183105
2489369541,0.00093079,-0.00033569,-1.00534058,0.427246,0.183105,0.061035
2494339250,0.00164795,-0.00022888,-1.00627136,0.366211,0.183105,-0.244141
2499356750,0.00244141,-0.00010681,-1.00735474,0.488281,0.061035,-0.061035
2504338416,0.00314331,0.00018311,-1.00737000,0.305176,0.183105,0.000000
2509331458,0.00329590,0.00091553,-1.00653076,0.305176,0.061035,0.000000
2514352541,0.00296021,0.00190735,-1.00602722,0.305176,0.183105,-0.061035
2519367500,0.00294495,0.00259399,-1.00608826,0.305176,0.061035,0.000000
2524395041,0.00328064,0.00329590,-1.00584412,0.366211,0.061035,-0.061035
2529372125,0.00346375,0.00436401,-1.00549316,0.244141,0.061035,-0.244141
2534381291,0.00344849,0.00524902,-1.00573730,0.366211,0.061035,0.061035
2539371916,0.00320435,0.00552368,-1.00608826,0.305176,0.061035,-0.183105
2544392083,0.00270081,0.00535583,-1.00599670,0.305176,0.183105,0.000000
2549361541,0.00215149,0.00492859,-1.00544739,0.305176,0.061035,0.000000
2554358666,0.00195312,0.00445557,-1.00479126,0.427246,0.122070,-0.122070
2559378416,0.00222778,0.00401306,-1.00492859,0.427246,0.000000,-0.122070
2564379291,0.00256348,0.00357056,-1.00553894,0.488281,0.122070,-0.061035
2569367625,0.00273132,0.00320435,-1.00553894,0.305176,0.122070,0.000000
2574401125,0.00286865,0.00291443,-1.00521851,0.427246,0.000000,-0.122070
2579364958,0.00285339,0.00250244,-1.00524902,0.305176,0.000000,0.061035
2584384500,0.00238037,0.00196838,-1.00567627,0.244141,0.061035,-0.061035
2589382458,0.00169373,0.00187683,-1.00587463,0.427246,0.061035,-0.122070
2594434875,0.00134277,0.00234985,-1.00531006,0.305176,0.061035,0.000000
2599370958,0.00134277,0.00265503,-1.00506592,0.305176,0.122070,-0.122070
2604388833,0.00125122,0.00213623,-1.00599670,0.427246,-0.061035,0.061035
2609343166,0.00112915,0.00137329,-1.00657654,0.427246,0.122070,-0.061035
2614392833,0.00134277,0.00144958,-1.00541687,0.366211,-0.122070,-0.061035
2619370708,0.00170898,0.00210571,-1.00398254,0.305176,0.061035,0.061035
2624371125,0.00183105,0.00233459,-1.00450134,0.427246,-0.061035,0.000000
2629393666,0.00218201,0.00224304,-1.00633240,0.305176,0.000000,0.000000
2634396666,0.00289917,0.00230408,-1.00697327,0.244141,0.061035,-0.061035
2639367958,0.00309753,0.00247192,-1.00646973,0.305176,0.000000,0.000000
2644658708,0.00292969,0.00251770,-1.00643921,0.244141,0.000000,0.000000
2649382416,0.00328064,0.00253296,-1.00675964,0.305176,0.000000,0.000000
2654362666,0.00379944,0.00305176,-1.00640869,0.122070,0.061035,-0.061035
2659413458,0.00386047,0.00421143,-1.00549316,0.244141,0.122070,-0.122070
2664386291,0.00355530,0.00544739,-1.00505066,0.305176,0.000000,-0.061035
2669379583,0.00329590,0.00593567,-1.00540161,0.244141,0.061035,-0.061035
2674361833,0.00288391,0.00556946,-1.00569153,0.366211,0.000000,-0.122070
2679397541,0.00213623,0.00498962,-1.00538635,0.305176,0.000000,-0.061035
2684382666,0.00151062,0.00463867,-1.00495911,0.305176,0.061035,-0.122070
2689389916,0.00128174,0.00418091,-1.00480652,0.305176,0.061035,-0.122070
2694381708,0.00120544,0.00346375,-1.00466919,0.366211,0.061035,-0.122070
2699367791,0.00126648,0.00276184,-1.00428772,0.305176,0.061035,0.000000
2704408208,0.00141907,0.00218201,-1.00425720,0.366211,0.000000,-0.061035
2709407500,0.00157166,0.00175476,-1.00523376,0.427246,0.122070,0.000000
2714411125,0.00178528,0.00163269,-1.00648499,0.244141,0.183105,0.061035
2719399083,0.00181580,0.00143433,-1.00671387,0.244141,0.000000,-0.183105
2724379208,0.00158691,0.00109863,-1.00595093,0.122070,-0.122070,-0.061035
2729360791,0.00134277,0.00108337,-1.00559998,0.366211,0.061035,-0.061035
2734429916,0.00122070,0.00151062,-1.00624084,0.305176,-0.061035,-0.122070
2739429291,0.00170898,0.00193787,-1.00665283,0.366211,0.000000,-0.122070
2744428958,0.00274658,0.00225830,-1.00587463,0.122070,0.061035,0.000000
2749489750,0.00331116,0.00289917,-1.00482178,0.366211,0.000000,-0.122070
2754383875,0.00294495,0.00346375,-1.00485229,0.305176,0.061035,-0.122070
2759433166,0.00241089,0.00320435,-1.00572205,0.244141,0.061035,-0.183105
2764423500,0.00213623,0.00282288,-1.00595093,0.366211,0.000000,-0.061035
2769398916,0.00222778,0.00317383,-1.00537109,0.305176,0.000000,-0.122070
2774452708,0.00282288,0.00408936,-1.00543213,0.427246,0.061035,0.000000
2779386291,0.00315857,0.00506592,-1.00633240,0.183105,0.061035,0.000000
2784415541,0.00271606,0.00564575,-1.00685120,0.366211,0.000000,0.061035
2789434875,0.00234985,0.00549316,-1.00657654,0.183105,0.061035,0.061035
2794421666,0.00262451,0.00500488,-1.00625610,0.305176,0.122070,-0.061035
2799412000,0.00265503,0.00453186,-1.00624084,0.122070,-0.061035,-0.061035
2804405541,0.00227356,0.00389099,-1.00604248,0.427246,0.061035,-0.122070
2809437166,0.00212097,0.00296021,-1.00576782,0.305176,0.000000,0.000000
2814450541,0.00224304,0.00198364,-1.00576782,0.427246,0.122070,-0.061035
2819369250,0.00239563,0.00132751,-1.00602722,0.427246,0.183105,0.000000
2824437500,0.00234985,0.00094604,-1.00654602,0.427246,0.122070,-0.122070
2829453875,0.00205994,0.00053406,-1.00679016,0.366211,0.000000,-0.061035
2834420375,0.00164795,0.00022888,-1.00607300,0.305176,0.000000,-0.122070
2839416416,0.00114441,0.00021362,-1.00520325,0.610352,0.122070,0.000000
2844434000,0.00103760,0.00019836,-1.00543213,0.305176,0.122070,-0.183105
2849465583,0.00152588,0.00032043,-1.00636292,0.183105,0.000000,-0.122070
2854473625,0.00218201,0.00083923,-1.00662231,0.366211,0.061035,-0.061035
2859448500,0.00241089,0.00169373,-1.00604248,0.366211,0.122070,-0.061035
2864458375,0.00218201,0.00248718,-1.00581360,0.366211,0.122070,0.000000
2869434666,0.00193787,0.00294495,-1.00624084,0.427246,0.000000,-0.061035
2874473791,0.00202942,0.00315857,-1.00624084,0.305176,0.000000,-0.183105
2879416958,0.00230408,0.00341797,-1.00559998,0.244141,0.122070,-0.061035
2884468125,0.00238037,0.00387573,-1.00566101,0.183105,0.000000,-0.061035
2889429208,0.00228882,0.00454712,-1.00675964,0.427246,0.000000,0.000000
2894464833,0.00215149,0.00500488,-1.00729370,0.427246,0.000000,-0.122070
2899447416,0.00192261,0.00479126,-1.00630188,0.366211,0.061035,0.000000
2904424166,0.00163269,0.00418091,-1.00512695,0.183105,0.061035,-0.122070
2909425541,0.00149536,0.00363159,-1.00515747,0.366211,0.000000,-0.122070
2914422000,0.00154114,0.00363159,-1.00622559,0.366211,0.000000,0.000000
2919435458,0.00173950,0.00422668,-1.00685120,0.366211,-0.061035,0.061035
2924452083,0.00236511,0.00463867,-1.00643921,0.305176,0.122070,-0.061035
2929456041,0.00283813,0.00434875,-1.00611877,0.305176,0.122070,-0.122070
2934463250,0.00238037,0.00386047,-1.00625610,0.549316,0.061035,-0.183105
2939428208,0.00172424,0.00344849,-1.00625610,0.305176,0.000000,-0.183105
2944454166,0.00149536,0.00286865,-1.00622559,0.366211,0.061035,0.000000
2949411083,0.00146484,0.00219727,-1.00636292,0.366211,0.000000,-0.122070
2954514041,0.00151062,0.00187683,-1.00662231,0.183105,0.061035,-0.122070
2959545125,0.00170898,0.00201416,-1.00656128,0.488281,0.183105,0.000000
2964454541,0.00198364,0.00247192,-1.00614929,0.366211,0.000000,-0.061035
2969477416,0.00215149,0.00286865,-1.00596619,0.244141,0.061035,-0.244141
2974528083,0.00198364,0.00303650,-1.00621033,0.488281,0.122070,0.061035
2979538375,0.00146484,0.00302124,-1.00624084,0.427246,0.061035,-0.061035
2984520083,0.00129700,0.00297546,-1.00581360,0.305176,0.122070,0.000000
2989499083,0.00181580,0.00317383,-1.00558472,0.183105,0.000000,-0.061035
2994448708,0.00224304,0.00372314,-1.00581360,0.366211,0.122070,0.000000
2999441000,0.00202942,0.00407410,-1.00621033,0.366211,0.061035,-0.061035
3004457375,0.00170898,0.00364685,-1.00640869,0.427246,0.061035,0.061035
3009445166,0.00218201,0.00267029,-1.00643921,0.427246,0.061035,0.061035
3014454958,0.00314331,0.00189209,-1.00657654,0.366211,-0.122070,-0.183105
3019467416,0.00331116,0.00143433,-1.00672913,0.183105,0.000000,-0.122070
3024470958,0.00263977,0.00096130,-1.00650024,0.244141,0.122070,-0.061035
3029431750,0.00202942,0.00056458,-1.00590515,0.244141,0.061035,-0.061035
3034510333,0.00167847,0.00061035,-1.00558472,0.366211,0.000000,-0.061035
3039493791,0.00152588,0.00088501,-1.00575256,0.305176,0.061035,-0.061035
3044491291,0.00169373,0.00122070,-1.00604248,0.305176,0.000000,0.061035
3049503375,0.00196838,0.00170898,-1.00590515,0.366211,0.061035,0.000000
3054477041,0.00204468,0.00242615,-1.00543213,0.305176,0.183105,0.000000
3059513916,0.00192261,0.00323486,-1.00556946,0.244141,0.061035,-0.122070
3064549500,0.00166321,0.00386047,-1.00648499,0.305176,0.122070,-0.061035
3069471958,0.00144958,0.00424194,-1.00694275,0.427246,0.061035,-0.061035
3074509375,0.00128174,0.00433350,-1.00643921,0.366211,0.061035,-0.183105
3079517250,0.00125122,0.00430298,-1.00601196,0.244141,0.122070,0.000000
3084485750,0.00155640,0.00427246,-1.00604248,0.244141,0.061035,0.000000
3089506166,0.00167847,0.00393677,-1.00570679,0.366211,0.061035,0.000000
3094492166,0.00132751,0.00337219,-1.00492859,0.183105,0.061035,0.000000
3099495708,0.00112915,0.00318909,-1.00488281,0.183105,0.061035,-0.061035
3104509500,0.00149536,0.00346375,-1.00575256,0.305176,0.000000,0.061035
3109493083,0.00207520,0.00375366,-1.00650024,0.183105,0.000000,-0.061035
3114505791,0.00225830,0.00346375,-1.00675964,0.366211,0.061035,0.122070
3119473458,0.00196838,0.00251770,-1.00665283,0.427246,0.000000,0.000000
3124525375,0.00187683,0.00160217,-1.00627136,0.427246,0.061035,0.000000
3129494625,0.00234985,0.00126648,-1.00584412,0.305176,-0.061035,-0.061035
3134544583,0.00256348,0.00117493,-1.00549316,0.366211,0.061035,-0.122070
3139513875,0.00224304,0.00093079,-1.00549316,0.366211,0.122070,0.000000
3144516875,0.00193787,0.00047302,-1.00617981,0.305176,0.061035,-0.061035
3149481083,0.00205994,0.00000000,-1.00663757,0.305176,0.122070,-0.183105
3154556708,0.00224304,0.00007629,-1.00592041,0.366211,0.122070,-0.122070
3159549791,0.00196838,0.00114441,-1.00514221,0.244141,-0.061035,0.061035
3164519041,0.00158691,0.00270081,-1.00537109,0.305176,0.000000,-0.122070
3169512625,0.00152588,0.00366211,-1.00610352,0.244141,0.122070,0.000000
3174533500,0.00175476,0.00386047,-1.00634766,0.366211,0.061035,0.000000
3179510333,0.00230408,0.00442505,-1.00611877,0.244141,0.000000,-0.061035
3184524458,0.00277710,0.00541687,-1.00636292,0.244141,0.122070,-0.122070
3189506625,0.00279236,0.00584412,-1.00724792,0.305176,0.000000,-0.122070
3194480958,0.00299072,0.00531006,-1.00737000,0.305176,0.061035,-0.061035
3199490083,0.00375366,0.00457764,-1.00614929,0.305176,-0.061035,-0.061035
3204503083,0.00408936,0.00428772,-1.00529480,0.366211,-0.061035,-0.122070
3209524000,0.00334167,0.00393677,-1.00604248,0.366211,0.061035,0.061035
3214537791,0.00228882,0.00312805,-1.00715637,0.366211,0.000000,0.000000
3219542583,0.00202942,0.00195312,-1.00682068,0.305176,0.000000,-0.061035
3224474750,0.00230408,0.00068665,-1.00579834,0.427246,0.061035,-0.183105
3229488625,0.00238037,0.00006104,-1.00578308,0.305176,0.061035,0.122070
3234503416,0.00199890,0.00021362,-1.00636292,0.244141,-0.061035,-0.061035
3239506166,0.00152588,0.00068665,-1.00579834,0.305176,0.122070,0.000000
3244523333,0.00163269,0.00119019,-1.00439453,0.244141,0.000000,-0.244141
3249507958,0.00228882,0.00154114,-1.00439453,0.305176,0.122070,-0.183105
3254497875,0.00253296,0.00184631,-1.00596619,0.366211,0.183105,0.000000
3259533375,0.00210571,0.00230408,-1.00677490,0.427246,0.000000,-0.061035
3264502166,0.00170898,0.00283813,-1.00592041,0.427246,0.183105,-0.061035
3269516750,0.00178528,0.00335693,-1.00518799,0.366211,0.061035,-0.122070
3274507875,0.00215149,0.00392151,-1.00559998,0.366211,0.183105,-0.061035
3279519958,0.00254822,0.00453186,-1.00621033,0.305176,0.000000,0.061035
3284489416,0.00257874,0.00511169,-1.00602722,0.244141,-0.061035,-0.122070
3289501750,0.00262451,0.00540161,-1.00556946,0.305176,0.061035,-0.061035
3294506041,0.00300598,0.00526428,-1.00605774,0.122070,-0.061035,-0.122070
3299531833,0.00315857,0.00477600,-1.00692749,0.366211,0.305176,-0.061035
3304509208,0.00288391,0.00439453,-1.00675964,0.366211,-0.061035,-0.122070
3309498541,0.00250244,0.00416565,-1.00573730,0.305176,-0.122070,-0.122070
3314532500,0.00231934,0.00355530,-1.00535583,0.305176,0.000000,0.000000
3319514083,0.00274658,0.00238037,-1.00578308,0.366211,0.061035,-0.061035
3324540500,0.00332642,0.00134277,-1.00572205,0.366211,0.244141,0.000000
3329549625,0.00349426,0.00108337,-1.00494385,0.366211,0.061035,-0.122070
3334506166,0.00315857,0.00115967,-1.00500488,0.305176,0.122070,0.000000
3339517833,0.00242615,0.00082397,-1.00624084,0.366211,0.122070,-0.061035
3344540541,0.00148010,0.00027466,-1.00706482,0.366211,0.061035,-0.061035
3349533333,0.00068665,0.00042725,-1.00650024,0.366211,0.000000,0.000000
3354541625,0.00064087,0.00138855,-1.00549316,0.244141,0.061035,-0.061035
3359572083,0.00102234,0.00225830,-1.00546265,0.305176,-0.061035,-0.122070
3364539875,0.00112915,0.00239563,-1.00625610,0.305176,0.122070,-0.244141
3369522375,0.00091553,0.00241089,-1.00642395,0.244141,0.000000,-0.061035
3374764666,0.00059509,0.00294495,-1.00563049,0.183105,0.122070,0.183105
3379535958,0.00068665,0.00363159,-1.00538635,0.305176,0.061035,-0.061035
3384512333,0.00117493,0.00384521,-1.00643921,0.244141,0.000000,0.061035
3389558041,0.00158691,0.00369263,-1.00712585,0.122070,0.183105,-0.183105
3394510541,0.00199890,0.00370789,-1.00593567,0.244141,0.122070,-0.061035
3399517541,0.00263977,0.00405884,-1.00434875,0.366211,0.122070,0.000000
3404544583,0.00320435,0.00450134,-1.00466919,0.244141,0.061035,-0.061035
3409543083,0.00315857,0.00437927,-1.00630188,0.366211,0.000000,-0.061035
3414530250,0.00253296,0.00346375,-1.00697327,0.488281,0.122070,-0.122070
3419552041,0.00227356,0.00256348,-1.00627136,0.305176,0.000000,0.000000
3424600291,0.00285339,0.00222778,-1.00570679,0.366211,-0.061035,-0.061035
3429588458,0.00344849,0.00222778,-1.00598145,0.488281,0.000000,-0.122070
3434531291,0.00337219,0.00234985,-1.00633240,0.366211,0.122070,-0.122070
3439588750,0.00321960,0.00250244,-1.00608826,0.305176,0.122070,0.000000
3444554708,0.00331116,0.00277710,-1.00561523,0.183105,0.000000,-0.061035
3449581958,0.00294495,0.00291443,-1.00572205,0.122070,0.000000,-0.122070
3454574875,0.00222778,0.00250244,-1.00602722,0.244141,0.122070,-0.122070
3459557875,0.00196838,0.00209045,-1.00546265,0.122070,0.000000,-0.061035
3464569083,0.00201416,0.00216675,-1.00469971,0.244141,0.122070,-0.122070
3469659791,0.00161743,0.00245667,-1.00518799,0.366211,0.183105,0.122070
3474625833,0.00108337,0.00274658,-1.00645447,0.427246,-0.061035,0.061035
3479655958,0.00108337,0.00292969,-1.00686646,0.183105,0.000000,-0.061035
3484551333,0.00144958,0.00315857,-1.00610352,0.122070,-0.183105,-0.061035
3489626125,0.00163269,0.00355530,-1.00558472,0.305176,0.061035,-0.183105
3494622916,0.00166321,0.00367737,-1.00613403,0.366211,0.000000,-0.061035
3499557500,0.00177002,0.00332642,-1.00657654,0.427246,0.122070,0.000000
3504616125,0.00183105,0.00286865,-1.00582886,0.305176,0.183105,-0.061035
3509721541,0.00219727,0.00280762,-1.00503540,0.488281,0.061035,-0.122070
3514569833,0.00296021,0.00308228,-1.00561523,0.305176,0.122070,-0.122070
3519756625,0.00346375,0.00308228,-1.00657654,0.122070,0.122070,-0.061035
3524602500,0.00320435,0.00285339,-1.00628662,0.244141,0.122070,0.000000
3529566291,0.00247192,0.00257874,-1.00547791,0.366211,0.061035,-0.122070
3534549375,0.00218201,0.00231934,-1.00570679,0.366211,0.061035,-0.061035
3539591333,0.00236511,0.00193787,-1.00654602,0.244141,0.061035,-0.061035
3544619416,0.00248718,0.00173950,-1.00637817,0.244141,0.000000,0.061035
3549567500,0.00245667,0.00212097,-1.00538635,0.427246,0.061035,0.061035
3554817375,0.00216675,0.00273132,-1.00497437,0.244141,0.000000,0.000000
3559625375,0.00151062,0.00292969,-1.00526428,0.305176,-0.061035,-0.183105
3564590375,0.00112915,0.00265503,-1.00559998,0.305176,0.061035,-0.061035
3569677250,0.00158691,0.00247192,-1.00587463,0.305176,0.061035,0.061035
3574589833,0.00224304,0.00276184,-1.00634766,0.366211,0.061035,0.000000
3579625875,0.00224304,0.00347900,-1.00685120,0.305176,0.061035,-0.061035
3584768500,0.00177002,0.00413513,-1.00640869,0.183105,0.000000,-0.061035
3589612416,0.00146484,0.00404358,-1.00537109,0.244141,0.000000,-0.061035
3594603000,0.00149536,0.00317383,-1.00500488,0.305176,0.122070,0.061035
3599569791,0.00161743,0.00242615,-1.00543213,0.305176,0.000000,-0.183105
3604627208,0.00202942,0.00227356,-1.00601196,0.183105,-0.061035,-0.183105
3609586958,0.00250244,0.00239563,-1.00599670,0.244141,-0.061035,-0.061035
3614585791,0.00244141,0.00253296,-1.00540161,0.305176,0.061035,0.061035
3619626583,0.00219727,0.00248718,-1.00511169,0.244141,0.183105,-0.061035
3624678250,0.00248718,0.00236511,-1.00570679,0.488281,0.244141,-0.122070
3629604666,0.00335693,0.00282288,-1.00642395,0.305176,0.061035,-0.061035
3634590125,0.00419617,0.00367737,-1.00654602,0.366211,0.122070,0.061035
3639583208,0.00430298,0.00386047,-1.00624084,0.244141,0.061035,0.000000
3644587583,0.00367737,0.00334167,-1.00614929,0.305176,0.000000,0.000000
3649569291,0.00282288,0.00300598,-1.00645447,0.427246,0.183105,-0.061035
3654598916,0.00233459,0.00305176,-1.00628662,0.305176,0.061035,-0.122070
3659614541,0.00209045,0.00297546,-1.00552368,0.366211,-0.061035,-0.061035
3664669166,0.00158691,0.00248718,-1.00512695,0.427246,0.061035,-0.061035
3669661375,0.00119019,0.00193787,-1.00555420,0.427246,0.000000,-0.122070
3674623833,0.00141907,0.00180054,-1.00582886,0.366211,0.000000,0.061035
3679652250,0.00166321,0.00175476,-1.00547791,0.366211,0.061035,-0.061035
3684657875,0.00160217,0.00181580,-1.00547791,0.427246,0.183105,0.000000
3689674458,0.00181580,0.00253296,-1.00621033,0.366211,0.000000,-0.061035
3694642000,0.00227356,0.00352478,-1.00672913,0.305176,0.000000,-0.122070
3699600791,0.00256348,0.00402832,-1.00617981,0.427246,0.061035,-0.061035
3704613625,0.00253296,0.00401306,-1.00520325,0.183105,0.061035,-0.061035
3709634541,0.00238037,0.00392151,-1.00558472,0.244141,0.061035,-0.061035
3714597583,0.00263977,0.00398254,-1.00712585,0.366211,0.122070,-0.061035
3719597708,0.00309753,0.00393677,-1.00767517,0.305176,0.122070,-0.061035
3724671416,0.00297546,0.00366211,-1.00665283,0.366211,0.061035,-0.183105
3729636250,0.00256348,0.00332642,-1.00540161,0.244141,0.061035,0.061035
3734683833,0.00231934,0.00276184,-1.00494385,0.305176,0.061035,0.000000
3739651875,0.00209045,0.00198364,-1.00505066,0.244141,0.000000,-0.122070
3744629583,0.00193787,0.00169373,-1.00483704,0.366211,0.122070,-0.061035
3749599875,0.00202942,0.00189209,-1.00473022,0.305176,0.122070,0.000000
3754644250,0.00254822,0.00187683,-1.00572205,0.366211,0.000000,0.000000
3759622250,0.00320435,0.00192261,-1.00694275,0.305176,0.122070,0.000000
3764650083,0.00341797,0.00215149,-1.00656128,0.366211,0.061035,-0.122070
3769629708,0.00314331,0.00221252,-1.00511169,0.305176,0.000000,-0.183105
3774599500,0.00273132,0.00224304,-1.00489807,0.366211,0.122070,-0.061035
3779667958,0.00227356,0.00233459,-1.00572205,0.183105,0.183105,0.061035
3784669791,0.00198364,0.00231934,-1.00592041,0.244141,0.061035,-0.122070
3789691791,0.00207520,0.00256348,-1.00566101,0.122070,-0.122070,-0.183105
3794649500,0.00225830,0.00308228,-1.00593567,0.427246,0.000000,-0.061035
3799619833,0.00215149,0.00323486,-1.00657654,0.366211,0.061035,0.000000
3804637083,0.00196838,0.00267029,-1.00642395,0.427246,0.061035,0.000000
3809649333,0.00199890,0.00231934,-1.00540161,0.305176,0.122070,-0.061035
3814658041,0.00239563,0.00274658,-1.00511169,0.488281,0.000000,-0.122070
3819629541,0.00283813,0.00315857,-1.00588989,0.305176,0.183105,0.061035
3824645958,0.00299072,0.00321960,-1.00631714,0.427246,0.061035,-0.061035
3829650375,0.00296021,0.00335693,-1.00575256,0.366211,0.000000,-0.061035
3834627083,0.00291443,0.00341797,-1.00526428,0.366211,0.061035,-0.122070
3839661166,0.00291443,0.00300598,-1.00572205,0.244141,0.061035,-0.122070
3844662625,0.00285339,0.00222778,-1.00637817,0.244141,0.061035,-0.122070
3849635083,0.00239563,0.00161743,-1.00601196,0.183105,0.122070,0.000000
3854641000,0.00160217,0.00154114,-1.00521851,0.244141,0.000000,-0.183105
3859713291,0.00146484,0.00198364,-1.00532532,0.366211,0.061035,0.000000
3864672291,0.00245667,0.00238037,-1.00611877,0.305176,0.122070,-0.122070
3869671083,0.00354004,0.00234985,-1.00663757,0.427246,0.061035,-0.122070
3874650291,0.00334167,0.00222778,-1.00604248,0.244141,0.000000,0.122070
3879656291,0.00213623,0.00244141,-1.00468445,0.305176,0.061035,-0.122070
3884652125,0.00141907,0.00291443,-1.00440979,0.366211,0.122070,-0.122070
3889698250,0.00202942,0.00303650,-1.00552368,0.427246,0.061035,-0.061035
3894717791,0.00321960,0.00273132,-1.00628662,0.244141,0.122070,-0.061035
3899640958,0.00328064,0.00265503,-1.00636292,0.427246,-0.061035,-0.061035
3904644125,0.00204468,0.00317383,-1.00675964,0.305176,0.122070,0.000000
3909638583,0.00099182,0.00389099,-1.00746155,0.305176,0.061035,0.000000
3914619125,0.00103760,0.00396729,-1.00747681,0.244141,0.061035,-0.061035
3919652708,0.00166321,0.00335693,-1.00686646,0.244141,0.122070,0.122070
3924664458,0.00190735,0.00285339,-1.00653076,0.305176,0.000000,-0.122070
3929627375,0.00152588,0.00260925,-1.00631714,0.427246,0.000000,0.061035
3934631666,0.00125122,0.00247192,-1.00563049,0.366211,0.061035,0.000000
3939608041,0.00164795,0.00236511,-1.00485229,0.061035,0.000000,-0.183105
3944665333,0.00248718,0.00231934,-1.00489807,0.305176,0.122070,-0.122070
3949649416,0.00302124,0.00251770,-1.00559998,0.427246,0.122070,0.000000
3954626958,0.00323486,0.00268555,-1.00564575,0.366211,0.061035,-0.122070
3959646291,0.00334167,0.00274658,-1.00491333,0.488281,0.183105,-0.183105
3964657166,0.00312805,0.00285339,-1.00465393,0.488281,-0.061035,-0.061035
3969621208,0.00267029,0.00289917,-1.00535583,0.305176,0.122070,0.061035
3974664166,0.00244141,0.00268555,-1.00619507,0.305176,0.061035,-0.061035
3979636666,0.00238037,0.00225830,-1.00588989,0.366211,0.061035,-0.061035
3984645708,0.00219727,0.00221252,-1.00492859,0.305176,-0.061035,-0.061035
3989644125,0.00251770,0.00257874,-1.00514221,0.244141,-0.061035,-0.122070
3994632500,0.00305176,0.00282288,-1.00614929,0.366211,0.061035,-0.061035
3999732458,0.00262451,0.00314331,-1.00617981,0.305176,0.000000,-0.122070
4004610083,0.00175476,0.00364685,-1.00546265,0.488281,0.061035,-0.061035
4009648250,0.00154114,0.00381470,-1.00555420,0.183105,-0.061035,-0.244141
4014652250,0.00161743,0.00364685,-1.00653076,0.427246,0.183105,-0.061035
4019623583,0.00120544,0.00367737,-1.00685120,0.244141,0.122070,0.000000
4024655791,0.00076294,0.00402832,-1.00590515,0.244141,0.061035,-0.183105
4029644833,0.00119019,0.00436401,-1.00488281,0.488281,0.183105,-0.061035
4034642375,0.00198364,0.00433350,-1.00488281,0.183105,0.000000,-0.061035
4039635916,0.00215149,0.00378418,-1.00535583,0.244141,0.061035,-0.122070
4044659541,0.00205994,0.00306702,-1.00518799,0.305176,0.000000,-0.122070
4049650583,0.00209045,0.00270081,-1.00471497,0.244141,0.061035,-0.122070
4054628875,0.00180054,0.00274658,-1.00495911,0.183105,0.061035,0.000000
4059623041,0.00119019,0.00263977,-1.00584412,0.366211,0.000000,-0.183105
4064611708,0.00094604,0.00204468,-1.00645447,0.305176,0.000000,-0.183105
4069617041,0.00158691,0.00141907,-1.00628662,0.244141,0.061035,0.061035
4074624833,0.00251770,0.00109863,-1.00575256,0.305176,0.000000,-0.122070
4079656291,0.00292969,0.00120544,-1.00566101,0.305176,0.061035,0.000000
4084608916,0.00300598,0.00172424,-1.00566101,0.305176,0.000000,-0.122070
4089656000,0.00320435,0.00234985,-1.00480652,0.427246,0.061035,-0.061035
4094641791,0.00331116,0.00271606,-1.00402832,0.488281,0.061035,0.000000
4099636625,0.00285339,0.00292969,-1.00469971,0.305176,0.061035,-0.061035
4104656666,0.00183105,0.00328064,-1.00605774,0.427246,0.183105,-0.061035
4109635125,0.00083923,0.00349426,-1.00642395,0.305176,0.061035,-0.061035
4114649416,0.00051880,0.00328064,-1.00601196,0.244141,0.000000,-0.183105
4119637583,0.00096130,0.00308228,-1.00587463,0.366211,0.183105,-0.122070
4124641458,0.00175476,0.00321960,-1.00624084,0.305176,0.244141,-0.061035
4129625791,0.00213623,0.00326538,-1.00648499,0.366211,0.061035,-0.122070
4134634625,0.00178528,0.00303650,-1.00602722,0.305176,-0.061035,0.000000
4139656625,0.00148010,0.00282288,-1.00549316,0.183105,0.061035,-0.122070
4144665916,0.00205994,0.00270081,-1.00540161,0.366211,0.061035,-0.061035
4149626958,0.00288391,0.00209045,-1.00515747,0.244141,0.122070,-0.122070
4154702291,0.00257874,0.00106812,-1.00462341,0.427246,0.061035,-0.122070
4159633916,0.00164795,0.00106812,-1.00436401,0.183105,0.000000,0.000000
4164624666,0.00172424,0.00216675,-1.00469971,0.244141,0.122070,-0.122070
4169660875,0.00274658,0.00282288,-1.00558472,0.183105,0.061035,-0.061035
4174682666,0.00349426,0.00273132,-1.00616455,0.244141,0.061035,0.000000
4179608833,0.00350952,0.00257874,-1.00576782,0.305176,0.122070,-0.061035
4184665375,0.00297546,0.00244141,-1.00540161,0.305176,0.000000,-0.061035
4189617083,0.00225830,0.00230408,-1.00570679,0.183105,-0.061035,-0.061035
4194662041,0.00189209,0.00259399,-1.00569153,0.305176,0.122070,-0.061035
4199617833,0.00213623,0.00326538,-1.00500488,0.183105,-0.122070,-0.061035
4204629166,0.00248718,0.00386047,-1.00486755,0.305176,0.122070,0.000000
4209636041,0.00209045,0.00416565,-1.00575256,0.244141,0.061035,-0.061035
4214627083,0.00109863,0.00428772,-1.00650024,0.427246,0.122070,-0.061035
4219651916,0.00071716,0.00436401,-1.00631714,0.244141,0.061035,-0.061035
4224644291,0.00149536,0.00424194,-1.00573730,0.305176,0.122070,-0.061035
4230140791,0.00262451,0.00366211,-1.00570679,0.366211,0.183105,0.000000
4234664208,0.00321960,0.00300598,-1.00601196,0.244141,0.122070,-0.061035
4239643500,0.00308228,0.00265503,-1.00582886,0.305176,0.061035,-0.122070
4244653791,0.00244141,0.00239563,-1.00556946,0.366211,0.061035,0.000000
4249629916,0.00180054,0.00184631,-1.00617981,0.244141,0.183105,-0.122070
4255164041,0.00157166,0.00122070,-1.00698853,0.427246,0.000000,0.000000
4259689333,0.00204468,0.00125122,-1.00686646,0.366211,0.000000,-0.061035
4265293083,0.00288391,0.00177002,-1.00581360,0.244141,0.061035,-0.061035
4270152333,0.00326538,0.00186157,-1.00502014,0.244141,0.122070,-0.061035
4275165041,0.00288391,0.00180054,-1.00643921,0.488281,0.061035,0.000000
4280140250,0.00244141,0.00244141,-1.00816345,0.183105,0.000000,-0.061035
4285146375,0.00236511,0.00349426,-1.00711060,0.122070,0.000000,0.000000
4290188125,0.00259399,0.00401306,-1.00515747,0.305176,0.061035,-0.122070
4295207166,0.00273132,0.00401306,-1.00471497,0.427246,0.061035,0.000000
4300177500,0.00253296,0.00404358,-1.00512695,0.366211,0.183105,-0.061035
4305160541,0.00204468,0.00378418,-1.00547791,0.488281,0.122070,-0.122070
4310232916,0.00152588,0.00318909,-1.00587463,0.305176,0.122070,-0.061035
4315166750,0.00166321,0.00270081,-1.00654602,0.366211,0.122070,0.061035
4320146666,0.00231934,0.00248718,-1.00706482,0.366211,0.061035,0.000000
4325252166,0.00260925,0.00268555,-1.00677490,0.366211,0.122070,0.061035
4330214291,0.00254822,0.00309753,-1.00553894,0.244141,-0.061035,-0.122070
4335182541,0.00267029,0.00300598,-1.00451660,0.427246,0.000000,0.000000
4340228833,0.00294495,0.00257874,-1.00503540,0.244141,0.061035,-0.061035
4345194500,0.00270081,0.00248718,-1.00621033,0.427246,0.000000,0.000000
4350232416,0.00218201,0.00276184,-1.00654602,0.427246,-0.061035,0.000000
4355117291,0.00210571,0.00296021,-1.00613403,0.244141,0.000000,0.061035
4360213583,0.00231934,0.00296021,-1.00622559,0.305176,0.122070,0.000000
4365382166,0.00225830,0.00292969,-1.00732422,0.244141,0.000000,-0.122070
4370181958,0.00178528,0.00289917,-1.00767517,0.305176,-0.122070,-0.122070
4375159250,0.00140381,0.00283813,-1.00630188,0.122070,0.000000,-0.061035
4380201791,0.00169373,0.00273132,-1.00526428,0.427246,0.061035,-0.061035
4385144750,0.00227356,0.00280762,-1.00592041,0.305176,0.122070,0.000000
4390203291,0.00241089,0.00294495,-1.00675964,0.305176,0.000000,-0.122070
4395200250,0.00198364,0.00314331,-1.00616455,0.305176,0.122070,0.000000
4400203958,0.00178528,0.00331116,-1.00473022,0.244141,0.000000,0.000000
4405220708,0.00225830,0.00308228,-1.00430298,0.427246,0.061035,-0.122070
4410157875,0.00251770,0.00263977,-1.00549316,0.305176,0.000000,0.000000
4415227125,0.00236511,0.00245667,-1.00665283,0.244141,0.000000,-0.061035
4420221083,0.00248718,0.00268555,-1.00637817,0.244141,-0.061035,-0.122070
4425211333,0.00279236,0.00283813,-1.00558472,0.244141,-0.061035,-0.183105
4430160833,0.00280762,0.00267029,-1.00570679,0.183105,-0.122070,0.000000
4435171666,0.00260925,0.00262451,-1.00627136,0.122070,0.061035,-0.122070
4440228958,0.00242615,0.00280762,-1.00656128,0.183105,0.000000,-0.122070
4445241541,0.00225830,0.00285339,-1.00682068,0.366211,0.061035,-0.061035
4450193208,0.00204468,0.00262451,-1.00709534,0.305176,0.000000,-0.122070
4455142625,0.00192261,0.00245667,-1.00675964,0.244141,-0.061035,-0.061035
4460177333,0.00190735,0.00280762,-1.00582886,0.305176,0.183105,-0.122070
4465416750,0.00184631,0.00379944,-1.00511169,0.244141,0.000000,-0.061035
4470199083,0.00161743,0.00462341,-1.00527954,0.244141,0.000000,-0.061035
4475225833,0.00144958,0.00471497,-1.00598145,0.427246,0.244141,0.000000
4480146666,0.00158691,0.00445557,-1.00643921,0.488281,0.061035,-0.061035
4485144916,0.00202942,0.00431824,-1.00640869,0.305176,0.000000,0.000000
4490163708,0.00231934,0.00425720,-1.00622559,0.488281,0.061035,0.061035
4495162125,0.00219727,0.00405884,-1.00637817,0.244141,-0.061035,-0.122070
4500181333,0.00215149,0.00384521,-1.00648499,0.244141,0.000000,0.000000
4505169125,0.00242615,0.00378418,-1.00614929,0.244141,0.061035,-0.061035
4510186250,0.00239563,0.00373840,-1.00625610,0.183105,0.000000,0.000000
4515220083,0.00219727,0.00337219,-1.00708008,0.305176,0.061035,-0.061035
4520148916,0.00254822,0.00286865,-1.00717163,0.183105,0.183105,-0.061035
4525158125,0.00321960,0.00241089,-1.00617981,0.305176,0.061035,-0.183105
4530152083,0.00355530,0.00205994,-1.00538635,0.427246,0.244141,0.000000
4535163500,0.00369263,0.00204468,-1.00553894,0.427246,0.061035,-0.061035
4540208500,0.00381470,0.00233459,-1.00602722,0.366211,0.061035,0.000000
4545222916,0.00372314,0.00257874,-1.00575256,0.366211,0.000000,-0.183105
4550202625,0.00341797,0.00256348,-1.00494385,0.244141,0.061035,-0.061035
4555210833,0.00283813,0.00244141,-1.00489807,0.244141,0.000000,0.000000
4560206416,0.00196838,0.00241089,-1.00570679,0.305176,0.061035,-0.122070
4565355041,0.00122070,0.00251770,-1.00637817,0.427246,0.061035,-0.061035
4570254875,0.00083923,0.00280762,-1.00633240,0.244141,0.000000,0.000000
4575205708,0.00062561,0.00323486,-1.00607300,0.427246,-0.061035,-0.061035
4580137708,0.00048828,0.00363159,-1.00604248,0.427246,0.061035,0.000000
4585202500,0.00050354,0.00376892,-1.00587463,0.305176,0.061035,0.000000
4590143916,0.00082397,0.00341797,-1.00559998,0.305176,-0.061035,0.000000
4595175416,0.00131226,0.00303650,-1.00592041,0.366211,0.061035,-0.122070
4600147708,0.00172424,0.00311279,-1.00688171,0.183105,0.061035,-0.183105
4605130750,0.00195312,0.00349426,-1.00691223,0.244141,0.061035,-0.061035
4610159000,0.00216675,0.00350952,-1.00550842,0.427246,0.061035,-0.061035
4615137458,0.00263977,0.00289917,-1.00488281,0.305176,0.061035,-0.061035
4620167416,0.00320435,0.00204468,-1.00581360,0.427246,-0.061035,-0.061035
4625213041,0.00335693,0.00166321,-1.00634766,0.427246,0.183105,0.061035
4630173500,0.00314331,0.00192261,-1.00569153,0.488281,0.061035,-0.061035
4635163875,0.00314331,0.00205994,-1.00531006,0.305176,0.061035,-0.122070
4640187166,0.00334167,0.00205994,-1.00611877,0.305176,0.061035,-0.061035
4645202041,0.00344849,0.00257874,-1.00697327,0.366211,-0.061035,0.061035
4650220916,0.00337219,0.00332642,-1.00642395,0.183105,0.000000,-0.061035
4655182041,0.00299072,0.00340271,-1.00550842,0.366211,0.061035,-0.061035
4660203500,0.00250244,0.00296021,-1.00588989,0.244141,-0.061035,-0.122070
4665347833,0.00230408,0.00292969,-1.00697327,0.244141,0.122070,-0.122070
4670124250,0.00263977,0.00341797,-1.00727844,0.305176,-0.061035,-0.061035
4675182208,0.00296021,0.00363159,-1.00648499,0.305176,0.061035,0.000000
4680165250,0.00263977,0.00299072,-1.00546265,0.122070,-0.122070,-0.122070
4685119208,0.00173950,0.00219727,-1.00511169,0.366211,0.061035,0.061035
4690169208,0.00079346,0.00215149,-1.00526428,0.244141,0.061035,0.061035
4695144375,0.00056458,0.00259399,-1.00534058,0.366211,-0.061035,0.061035
4700154166,0.00115967,0.00262451,-1.00541687,0.305176,0.061035,0.000000
4705161000,0.00157166,0.00225830,-1.00593567,0.366211,0.000000,-0.183105
4710170416,0.00123596,0.00230408,-1.00683594,0.244141,0.122070,-0.183105
4715179958,0.00119019,0.00277710,-1.00726318,0.427246,0.122070,-0.122070
4720110916,0.00183105,0.00315857,-1.00691223,0.366211,0.122070,-0.122070
4725138291,0.00265503,0.00312805,-1.00663757,0.366211,-0.061035,-0.061035
4730119041,0.00325012,0.00289917,-1.00683594,0.305176,0.000000,-0.061035
4735107291,0.00347900,0.00268555,-1.00656128,0.122070,0.061035,-0.244141
4740140666,0.00349426,0.00292969,-1.00572205,0.366211,0.122070,-0.122070
4745178666,0.00361633,0.00347900,-1.00561523,0.366211,0.000000,-0.122070
4750140916,0.00382996,0.00364685,-1.00650024,0.305176,0.000000,0.000000
4755220333,0.00381470,0.00349426,-1.00703430,0.305176,0.000000,-0.061035
4760141833,0.00332642,0.00332642,-1.00639343,0.305176,0.000000,-0.061035
4765328416,0.00250244,0.00311279,-1.00559998,0.244141,0.000000,0.000000
4770138333,0.00181580,0.00292969,-1.00561523,0.244141,0.061035,0.000000
4775162708,0.00183105,0.00276184,-1.00627136,0.305176,-0.061035,0.000000
4780173333,0.00222778,0.00271606,-1.00671387,0.244141,0.000000,-0.061035
4785089500,0.00215149,0.00283813,-1.00645447,0.305176,0.000000,-0.122070
4790129958,0.00137329,0.00286865,-1.00608826,0.305176,0.000000,0.000000
4795132500,0.00065613,0.00251770,-1.00646973,0.366211,0.183105,0.061035
4800111875,0.00065613,0.00180054,-1.00701904,0.427246,0.000000,0.000000
4805148958,0.00114441,0.00163269,-1.00656128,0.366211,-0.183105,0.000000
4810138250,0.00135803,0.00227356,-1.00567627,0.366211,0.122070,0.061035
4815173500,0.00117493,0.00267029,-1.00585938,0.305176,0.000000,0.000000
4820110208,0.00128174,0.00247192,-1.00657654,0.244141,0.000000,-0.061035
4825138291,0.00207520,0.00230408,-1.00631714,0.366211,-0.061035,-0.061035
4830121750,0.00297546,0.00233459,-1.00558472,0.305176,0.000000,-0.061035
4835114375,0.00321960,0.00244141,-1.00558472,0.244141,0.122070,-0.122070
4840099833,0.00302124,0.00286865,-1.00607300,0.305176,0.061035,-0.122070
4845169958,0.00294495,0.00355530,-1.00614929,0.366211,0.122070,-0.122070
4850137875,0.00334167,0.00396729,-1.00563049,0.366211,0.000000,-0.122070
4855356541,0.00404358,0.00401306,-1.00534058,0.427246,0.061035,0.000000
4860122791,0.00439453,0.00408936,-1.00596619,0.183105,0.061035,-0.061035
4865252458,0.00416565,0.00410461,-1.00622559,0.244141,-0.061035,0.000000
4870129541,0.00366211,0.00369263,-1.00502014,0.366211,0.122070,-0.122070
4875121750,0.00331116,0.00343323,-1.00415039,0.366211,0.122070,0.000000
4880181250,0.00300598,0.00357056,-1.00524902,0.244141,0.000000,-0.183105
4885174750,0.00245667,0.00352478,-1.00691223,0.366211,-0.061035,0.122070
4890117958,0.00178528,0.00296021,-1.00708008,0.366211,0.122070,-0.061035
4895161375,0.00146484,0.00205994,-1.00581360,0.366211,-0.061035,-0.183105
4900161250,0.00126648,0.00143433,-1.00508118,0.244141,0.000000,-0.122070
4905150833,0.00108337,0.00149536,-1.00608826,0.244141,0.061035,0.061035
4910172166,0.00103760,0.00210571,-1.00712585,0.305176,0.122070,0.000000
4915121583,0.00088501,0.00276184,-1.00634766,0.427246,0.122070,-0.061035
4920113458,0.00073242,0.00303650,-1.00514221,0.305176,0.000000,-0.061035
4925164291,0.00112915,0.00318909,-1.00559998,0.366211,0.122070,-0.061035
4930193125,0.00196838,0.00370789,-1.00692749,0.183105,0.061035,-0.061035
4935152041,0.00244141,0.00428772,-1.00686646,0.366211,0.122070,0.000000
4940175916,0.00228882,0.00442505,-1.00537109,0.305176,0.000000,0.000000
4945195041,0.00207520,0.00395203,-1.00469971,0.244141,-0.061035,-0.122070
4950191583,0.00221252,0.00299072,-1.00564575,0.488281,0.061035,-0.061035
4955394750,0.00254822,0.00233459,-1.00656128,0.366211,0.061035,0.122070
4960186708,0.00299072,0.00248718,-1.00625610,0.244141,0.061035,0.000000
4965333750,0.00321960,0.00289917,-1.00575256,0.183105,0.000000,-0.183105
4970146791,0.00289917,0.00320435,-1.00593567,0.305176,0.061035,-0.183105
4975175541,0.00257874,0.00338745,-1.00619507,0.488281,0.122070,0.000000
4980122375,0.00267029,0.00354004,-1.00585938,0.366211,0.061035,0.061035
4985133125,0.00289917,0.00379944,-1.00558472,0.305176,0.000000,0.061035
4990146458,0.00289917,0.00411987,-1.00610352,0.366211,0.061035,-0.122070
4995208208,0.00256348,0.00398254,-1.00648499,0.427246,0.061035,-0.183105
5000195833,0.00219727,0.00320435,-1.00605774,0.366211,0.061035,-0.061035
5005196333,0.00201416,0.00230408,-1.00563049,0.305176,0.061035,-0.061035
5010185250,0.00180054,0.00199890,-1.00561523,0.366211,0.000000,0.000000
5015223500,0.00154114,0.00233459,-1.00572205,0.427246,0.122070,-0.122070
5020161916,0.00141907,0.00285339,-1.00555420,0.244141,0.183105,0.000000
5025226291,0.00141907,0.00283813,-1.00491333,0.244141,0.000000,-0.122070
5030149500,0.00144958,0.00201416,-1.00492859,0.244141,0.000000,-0.061035
5035139625,0.00148010,0.00144958,-1.00634766,0.305176,0.061035,-0.122070
5040238833,0.00160217,0.00180054,-1.00761414,0.366211,0.000000,-0.244141
5045206000,0.00183105,0.00236511,-1.00708008,0.305176,0.122070,0.000000
5050217666,0.00198364,0.00263977,-1.00555420,0.366211,0.061035,0.000000
5055532708,0.00205994,0.00282288,-1.00488281,0.305176,0.061035,-0.061035
5060213500,0.00241089,0.00306702,-1.00555420,0.366211,0.122070,-0.122070
5065311916,0.00279236,0.00341797,-1.00634766,0.305176,0.122070,-0.061035
5070179083,0.00276184,0.00370789,-1.00654602,0.366211,0.183105,0.061035
5075152083,0.00268555,0.00347900,-1.00657654,0.488281,0.122070,-0.122070
5080190791,0.00276184,0.00280762,-1.00689697,0.427246,0.000000,0.000000
5085152625,0.00257874,0.00236511,-1.00683594,0.305176,0.061035,0.061035
5090185958,0.00218201,0.00231934,-1.00573730,0.244141,-0.061035,-0.061035
5095187041,0.00189209,0.00224304,-1.00473022,0.244141,0.061035,-0.122070
5100195583,0.00167847,0.00195312,-1.00520325,0.427246,0.000000,-0.122070
5105212916,0.00166321,0.00181580,-1.00651550,0.366211,0.000000,0.000000
5110181000,0.00177002,0.00190735,-1.00704956,0.244141,0.000000,-0.122070
5115218666,0.00178528,0.00230408,-1.00665283,0.244141,-0.061035,-0.122070
5120203333,0.00175476,0.00297546,-1.00614929,0.244141,0.061035,0.000000
5125246750,0.00161743,0.00335693,-1.00619507,0.366211,0.000000,-0.122070
5130189916,0.00151062,0.00309753,-1.00650024,0.244141,0.000000,-0.061035
5135163416,0.00169373,0.00259399,-1.00633240,0.366211,0.061035,0.000000
5140197458,0.00204468,0.00238037,-1.00605774,0.488281,0.000000,-0.122070
5145285875,0.00222778,0.00263977,-1.00640869,0.305176,0.061035,-0.122070
5150205958,0.00213623,0.00326538,-1.00663757,0.366211,0.122070,0.000000
5155617583,0.00219727,0.00384521,-1.00587463,0.366211,-0.061035,-0.122070
5160206000,0.00260925,0.00419617,-1.00506592,0.183105,0.000000,-0.061035
5165364750,0.00294495,0.00457764,-1.00541687,0.366211,0.122070,-0.061035
5170194583,0.00299072,0.00459290,-1.00643921,0.244141,0.000000,-0.061035
5175238625,0.00292969,0.00396729,-1.00685120,0.305176,0.000000,-0.061035
5180213958,0.00289917,0.00338745,-1.00651550,0.305176,-0.061035,-0.061035
5185166541,0.00285339,0.00317383,-1.00636292,0.427246,0.061035,0.000000
5190167625,0.00251770,0.00291443,-1.00642395,0.244141,-0.061035,-0.061035
5195192000,0.00204468,0.00262451,-1.00617981,0.427246,0.000000,0.000000
5200155208,0.00160217,0.00254822,-1.00592041,0.244141,0.061035,0.000000
5205210041,0.00097656,0.00245667,-1.00613403,0.305176,0.061035,0.000000
5210180166,0.00050354,0.00218201,-1.00679016,0.427246,-0.061035,0.000000
5215172541,0.00051880,0.00195312,-1.00701904,0.427246,0.061035,0.061035
5220170291,0.00086975,0.00198364,-1.00631714,0.183105,0.061035,-0.061035
5225224833,0.00135803,0.00225830,-1.00590515,0.183105,0.000000,-0.061035
5230144000,0.00202942,0.00247192,-1.00637817,0.305176,0.000000,-0.061035
5235155666,0.00233459,0.00265503,-1.00659180,0.244141,-0.061035,-0.183105
5240202875,0.00219727,0.00317383,-1.00619507,0.305176,0.061035,-0.122070
5245194000,0.00224304,0.00398254,-1.00587463,0.427246,0.000000,-0.061035
5250213041,0.00263977,0.00459290,-1.00599670,0.366211,0.122070,-0.061035
5255577208,0.00321960,0.00479126,-1.00613403,0.366211,0.061035,0.000000
5260202916,0.00386047,0.00459290,-1.00561523,0.427246,0.183105,0.061035
5265297083,0.00396729,0.00425720,-1.00491333,0.427246,0.000000,0.000000
5270149625,0.00361633,0.00370789,-1.00521851,0.427246,0.122070,0.000000
5275175166,0.00341797,0.00311279,-1.00624084,0.305176,0.000000,-0.061035
5280149791,0.00340271,0.00289917,-1.00642395,0.183105,0.061035,0.000000
5285160208,0.00340271,0.00289917,-1.00578308,0.305176,0.122070,-0.061035
5290201625,0.00325012,0.00234985,-1.00572205,0.366211,0.061035,0.000000
5295204500,0.00285339,0.00163269,-1.00604248,0.366211,0.122070,-0.061035
5300289541,0.00219727,0.00172424,-1.00614929,0.305176,-0.061035,0.000000
5305206250,0.00144958,0.00242615,-1.00585938,0.122070,-0.122070,-0.183105
5310214541,0.00077820,0.00262451,-1.00555420,0.366211,0.000000,-0.061035
5315226875,0.00024414,0.00247192,-1.00564575,0.366211,0.183105,-0.061035
5320165916,0.00019836,0.00263977,-1.00587463,0.305176,0.061035,-0.061035
5325250916,0.00080872,0.00280762,-1.00590515,0.305176,0.122070,-0.122070
5330228875,0.00115967,0.00265503,-1.00572205,0.305176,0.000000,-0.183105
5335184208,0.00106812,0.00244141,-1.00566101,0.427246,0.061035,0.000000
5340145291,0.00157166,0.00251770,-1.00582886,0.122070,0.122070,-0.122070
5345202083,0.00273132,0.00282288,-1.00581360,0.488281,0.000000,0.000000
5350221708,0.00331116,0.00317383,-1.00569153,0.427246,0.000000,-0.061035
5355665916,0.00296021,0.00354004,-1.00587463,0.366211,0.061035,-0.122070
5360213041,0.00270081,0.00382996,-1.00607300,0.366211,0.122070,0.061035
5365340125,0.00296021,0.00393677,-1.00578308,0.183105,-0.061035,-0.061035
5370213250,0.00315857,0.00381470,-1.00541687,0.244141,0.000000,-0.061035
5375204333,0.00315857,0.00347900,-1.00543213,0.244141,-0.061035,0.000000
5380207916,0.00321960,0.00332642,-1.00593567,0.305176,0.061035,0.000000
5385159833,0.00285339,0.00358582,-1.00653076,0.244141,-0.122070,-0.122070
5390209541,0.00184631,0.00378418,-1.00648499,0.427246,-0.122070,0.061035
5395197833,0.00102234,0.00332642,-1.00601196,0.305176,0.061035,0.000000
5400184000,0.00099182,0.00263977,-1.00614929,0.366211,-0.061035,-0.061035
5405263583,0.00125122,0.00234985,-1.00685120,0.427246,0.061035,0.000000
5410192333,0.00131226,0.00178528,-1.00701904,0.366211,0.183105,-0.183105
5415177083,0.00152588,0.00105286,-1.00624084,0.366211,0.061035,-0.122070
5420221416,0.00177002,0.00112915,-1.00576782,0.244141,0.000000,-0.061035
5425231541,0.00167847,0.00173950,-1.00642395,0.366211,0.000000,-0.061035
5430153041,0.00154114,0.00205994,-1.00686646,0.366211,0.061035,-0.183105
5435177625,0.00164795,0.00202942,-1.00593567,0.488281,0.000000,0.000000
5440234083,0.00172424,0.00202942,-1.00477600,0.366211,0.183105,0.000000
5445212000,0.00180054,0.00230408,-1.00479126,0.366211,0.122070,-0.122070
5450200208,0.00218201,0.00282288,-1.00541687,0.366211,0.122070,-0.122070
5455798083,0.00276184,0.00352478,-1.00531006,0.305176,0.061035,-0.122070
5460211500,0.00328064,0.00404358,-1.00477600,0.305176,0.061035,0.000000
5465332625,0.00312805,0.00430298,-1.00503540,0.244141,0.122070,-0.061035
5470215416,0.00242615,0.00474548,-1.00602722,0.183105,0.000000,-0.061035
5475222291,0.00216675,0.00503540,-1.00637817,0.183105,0.061035,-0.061035
5480171541,0.00254822,0.00466919,-1.00588989,0.305176,0.000000,-0.122070
5485165541,0.00270081,0.00405884,-1.00553894,0.427246,-0.061035,-0.061035
5490223041,0.00233459,0.00363159,-1.00601196,0.244141,0.000000,-0.183105
5495228458,0.00209045,0.00325012,-1.00662231,0.366211,0.122070,-0.061035
5500205250,0.00178528,0.00297546,-1.00637817,0.305176,0.061035,-0.061035
5505216041,0.00093079,0.00297546,-1.00550842,0.305176,-0.122070,-0.183105
5510165375,0.00042725,0.00270081,-1.00523376,0.305176,0.061035,-0.183105
5515236458,0.00106812,0.00184631,-1.00578308,0.061035,-0.122070,-0.305176
5520203625,0.00196838,0.00132751,-1.00608826,0.366211,0.183105,0.000000
5525224458,0.00204468,0.00170898,-1.00592041,0.305176,0.122070,-0.122070
5530210083,0.00173950,0.00230408,-1.00605774,0.305176,0.183105,-0.061035
5535160916,0.00144958,0.00238037,-1.00653076,0.427246,0.183105,-0.122070
5540151375,0.00103760,0.00230408,-1.00662231,0.183105,0.061035,-0.061035
5545188958,0.00074768,0.00250244,-1.00621033,0.122070,0.122070,-0.122070
5550222708,0.00122070,0.00270081,-1.00613403,0.305176,0.122070,-0.183105
5555875208,0.00241089,0.00306702,-1.00657654,0.305176,0.061035,-0.061035
5560268958,0.00315857,0.00361633,-1.00660706,0.488281,0.122070,0.000000
5565375875,0.00282288,0.00399780,-1.00582886,0.366211,0.122070,-0.061035
5570202583,0.00210571,0.00416565,-1.00512695,0.244141,0.000000,-0.122070
5575228375,0.00166321,0.00392151,-1.00546265,0.122070,0.061035,-0.061035
5580206916,0.00172424,0.00329590,-1.00628662,0.244141,0.000000,-0.183105
5585178000,0.00215149,0.00277710,-1.00608826,0.366211,0.122070,-0.122070
5590173791,0.00236511,0.00239563,-1.00529480,0.305176,0.122070,0.000000
5595242000,0.00216675,0.00193787,-1.00556946,0.366211,0.061035,-0.122070
5600202250,0.00173950,0.00172424,-1.00659180,0.366211,0.183105,0.000000
5605212083,0.00123596,0.00201416,-1.00654602,0.366211,0.000000,-0.061035
5610225583,0.00088501,0.00227356,-1.00553894,0.366211,-0.061035,0.061035
5615216791,0.00076294,0.00205994,-1.00505066,0.427246,0.061035,0.000000
5620155958,0.00114441,0.00149536,-1.00587463,0.549316,0.061035,-0.061035
5625235208,0.00170898,0.00094604,-1.00706482,0.305176,0.000000,0.000000
5630202833,0.00192261,0.00111389,-1.00674438,0.488281,0.122070,0.000000
5635191041,0.00221252,0.00196838,-1.00537109,0.366211,0.122070,0.000000
5640210458,0.00263977,0.00279236,-1.00520325,0.244141,0.122070,0.000000
5645195833,0.00268555,0.00303650,-1.00601196,0.366211,0.000000,-0.061035
5650188500,0.00250244,0.00279236,-1.00607300,0.366211,0.061035,-0.122070
5655918833,0.00253296,0.00254822,-1.00558472,0.549316,0.122070,0.061035
5660209750,0.00277710,0.00283813,-1.00578308,0.427246,0.000000,0.000000
5665359083,0.00291443,0.00364685,-1.00663757,0.427246,0.000000,0.061035
5670165041,0.00303650,0.00405884,-1.00686646,0.183105,-0.061035,-0.061035
5675167500,0.00312805,0.00350952,-1.00592041,0.305176,0.061035,0.000000
5680231583,0.00291443,0.00292969,-1.00488281,0.183105,0.000000,0.000000
5685152583,0.00254822,0.00302124,-1.00508118,0.366211,0.000000,-0.061035
5690179083,0.00247192,0.00335693,-1.00613403,0.244141,-0.061035,-0.061035
5695228625,0.00259399,0.00347900,-1.00643921,0.488281,0.061035,0.000000
5700195250,0.00250244,0.00331116,-1.00585938,0.244141,0.061035,-0.122070
5705226291,0.00215149,0.00273132,-1.00529480,0.366211,0.061035,-0.061035
5710225208,0.00190735,0.00213623,-1.00531006,0.244141,-0.061035,-0.061035
5715276500,0.00189209,0.00205994,-1.00543213,0.305176,0.244141,-0.061035
5720212500,0.00187683,0.00212097,-1.00529480,0.244141,0.061035,-0.061035
5725166166,0.00158691,0.00184631,-1.00518799,0.305176,0.000000,-0.061035
5730160500,0.00102234,0.00161743,-1.00578308,0.244141,-0.122070,0.000000
5735169000,0.00068665,0.00199890,-1.00662231,0.244141,0.061035,0.061035
5740243166,0.00099182,0.00274658,-1.00639343,0.305176,0.000000,-0.122070
5745243500,0.00167847,0.00328064,-1.00541687,0.183105,0.000000,-0.183105
5750241916,0.00260925,0.00332642,-1.00503540,0.305176,0.061035,-0.183105
5755498208,0.00331116,0.00312805,-1.00544739,0.366211,0.122070,-0.061035
5760233625,0.00314331,0.00323486,-1.00605774,0.305176,0.000000,-0.122070
5765412500,0.00265503,0.00354004,-1.00628662,0.305176,-0.061035,-0.061035
5770217291,0.00253296,0.00357056,-1.00608826,0.244141,0.000000,-0.061035
5775175083,0.00238037,0.00352478,-1.00602722,0.244141,0.000000,-0.122070
5780172708,0.00231934,0.00361633,-1.00581360,0.366211,0.061035,0.000000
5785157416,0.00259399,0.00350952,-1.00512695,0.366211,0.122070,-0.183105
5790193833,0.00270081,0.00317383,-1.00485229,0.305176,0.122070,-0.122070
5795237333,0.00254822,0.00280762,-1.00549316,0.427246,-0.122070,-0.122070
5800219458,0.00224304,0.00239563,-1.00633240,0.427246,0.000000,-0.061035
5805246458,0.00193787,0.00210571,-1.00634766,0.305176,0.061035,0.000000
5810213458,0.00172424,0.00219727,-1.00582886,0.244141,0.000000,-0.061035
5815264000,0.00187683,0.00231934,-1.00592041,0.366211,0.061035,-0.122070
5820230791,0.00233459,0.00215149,-1.00683594,0.366211,0.000000,-0.122070
5825220791,0.00238037,0.00189209,-1.00750732,0.305176,0.061035,-0.061035
5830184458,0.00207520,0.00169373,-1.00706482,0.305176,0.244141,-0.122070
5835179666,0.00186157,0.00170898,-1.00624084,0.366211,0.183105,0.000000
5840221375,0.00164795,0.00175476,-1.00598145,0.366211,0.122070,-0.122070
5845225125,0.00141907,0.00164795,-1.00578308,0.427246,0.000000,-0.061035
5850233291,0.00154114,0.00181580,-1.00515747,0.366211,0.061035,-0.061035
5855567166,0.00186157,0.00248718,-1.00494385,0.305176,0.000000,0.000000
5860218791,0.00210571,0.00338745,-1.00627136,0.183105,0.000000,-0.183105
5865342708,0.00230408,0.00395203,-1.00778198,0.305176,0.000000,-0.061035
5870240208,0.00247192,0.00404358,-1.00712585,0.366211,0.061035,0.000000
5875195708,0.00267029,0.00422668,-1.00546265,0.366211,0.183105,0.000000
5880143500,0.00297546,0.00477600,-1.00555420,0.366211,0.061035,0.061035
5885205750,0.00337219,0.00523376,-1.00695801,0.183105,-0.061035,-0.061035
5890186333,0.00373840,0.00492859,-1.00726318,0.305176,-0.061035,-0.122070
5895245875,0.00364685,0.00386047,-1.00616455,0.244141,0.000000,0.000000
5900204375,0.00317383,0.00262451,-1.00538635,0.244141,0.122070,0.000000
5905149000,0.00283813,0.00189209,-1.00585938,0.183105,0.000000,-0.061035
5910185750,0.00268555,0.00167847,-1.00674438,0.366211,-0.122070,0.000000
5915186958,0.00242615,0.00138855,-1.00669861,0.427246,0.000000,0.000000
5920213000,0.00186157,0.00120544,-1.00605774,0.244141,0.061035,-0.183105
5925169000,0.00137329,0.00149536,-1.00573730,0.244141,0.122070,-0.061035
5930211625,0.00152588,0.00193787,-1.00564575,0.305176,-0.061035,-0.061035
5935171291,0.00210571,0.00209045,-1.00535583,0.244141,0.061035,-0.122070
5940227083,0.00230408,0.00202942,-1.00486755,0.244141,0.000000,-0.122070
5945237000,0.00173950,0.00224304,-1.00524902,0.366211,0.122070,-0.061035
5950180708,0.00086975,0.00288391,-1.00663757,0.305176,0.122070,-0.061035
5955587541,0.00065613,0.00334167,-1.00704956,0.305176,0.122070,-0.061035
5960201416,0.00109863,0.00311279,-1.00593567,0.244141,0.000000,-0.061035
5965349500,0.00131226,0.00260925,-1.00523376,0.305176,-0.122070,-0.183105
5970161708,0.00125122,0.00256348,-1.00579834,0.427246,0.061035,0.061035
5975246708,0.00132751,0.00303650,-1.00660706,0.305176,0.061035,0.000000
5980181166,0.00146484,0.00369263,-1.00669861,0.244141,0.061035,-0.061035
5985159625,0.00166321,0.00415039,-1.00637817,0.244141,0.000000,0.000000
5990223166,0.00207520,0.00413513,-1.00636292,0.427246,0.000000,-0.061035
5995233750,0.00267029,0.00393677,-1.00636292,0.427246,0.122070,0.061035
6000216083,0.00334167,0.00381470,-1.00617981,0.366211,0.061035,-0.061035
6005224791,0.00378418,0.00343323,-1.00578308,0.305176,0.061035,0.000000
6010214041,0.00349426,0.00263977,-1.00532532,0.244141,-0.061035,-0.122070
6015158916,0.00248718,0.00181580,-1.00573730,0.427246,0.122070,0.000000
6020154666,0.00172424,0.00137329,-1.00646973,0.183105,0.000000,0.061035
6025333416,0.00175476,0.00114441,-1.00607300,0.244141,0.061035,0.000000
6030153375,0.00180054,0.00086975,-1.00559998,0.244141,0.061035,-0.061035
6035146125,0.00166321,0.00059509,-1.00636292,0.305176,0.000000,0.061035
6040245541,0.00167847,0.00079346,-1.00692749,0.366211,0.122070,0.061035
6045196583,0.00148010,0.00161743,-1.00625610,0.427246,0.122070,-0.061035
6050243875,0.00097656,0.00242615,-1.00550842,0.305176,0.000000,-0.122070
6055183833,0.00074768,0.00296021,-1.00590515,0.244141,0.000000,-0.122070
6060183000,0.00097656,0.00349426,-1.00688171,0.244141,0.122070,0.000000
6065330958,0.00157166,0.00395203,-1.00701904,0.122070,0.061035,0.061035
6070225208,0.00196838,0.00447083,-1.00602722,0.427246,0.061035,-0.061035
6075142375,0.00186157,0.00502014,-1.00518799,0.366211,0.183105,-0.122070
6080160958,0.00209045,0.00482178,-1.00558472,0.427246,-0.061035,-0.122070
6085099083,0.00289917,0.00386047,-1.00648499,0.244141,0.061035,-0.061035
6090224375,0.00328064,0.00329590,-1.00660706,0.122070,-0.061035,0.000000
6095215416,0.00286865,0.00347900,-1.00616455,0.305176,0.061035,-0.061035
6100195083,0.00242615,0.00343323,-1.00592041,0.305176,0.000000,-0.122070
6105205416,0.00236511,0.00268555,-1.00596619,0.244141,0.000000,-0.183105
6110215125,0.00270081,0.00186157,-1.00634766,0.183105,0.000000,-0.183105
6115193041,0.00309753,0.00177002,-1.00677490,0.305176,0.061035,-0.122070
6120201708,0.00300598,0.00207520,-1.00683594,0.305176,0.000000,-0.122070
6125212708,0.00262451,0.00172424,-1.00645447,0.427246,0.061035,0.000000
6130264250,0.00231934,0.00080872,-1.00587463,0.305176,0.000000,0.061035
6135109250,0.00207520,0.00045776,-1.00543213,0.244141,-0.061035,0.000000
6140210791,0.00192261,0.00093079,-1.00518799,0.366211,0.122070,-0.061035
6145249791,0.00181580,0.00143433,-1.00483704,0.366211,0.000000,-0.061035
6150198708,0.00161743,0.00160217,-1.00447083,0.305176,0.061035,-0.061035
6155138541,0.00146484,0.00186157,-1.00453186,0.366211,0.122070,-0.061035
6160119000,0.00161743,0.00267029,-1.00518799,0.244141,0.061035,0.000000
6165289875,0.00219727,0.00338745,-1.00596619,0.183105,0.061035,0.000000
6170202875,0.00282288,0.00364685,-1.00630188,0.244141,0.061035,-0.061035
6175178000,0.00292969,0.00401306,-1.00598145,0.366211,0.061035,-0.183105
6180137833,0.00270081,0.00466919,-1.00556946,0.183105,0.122070,-0.061035
6185193833,0.00274658,0.00511169,-1.00559998,0.366211,0.000000,-0.122070
6190124041,0.00308228,0.00521851,-1.00558472,0.305176,0.061035,-0.122070
6195199958,0.00338745,0.00498962,-1.00508118,0.366211,0.122070,-0.183105
6200145708,0.00346375,0.00416565,-1.00476074,0.488281,0.000000,0.000000
6205117000,0.00323486,0.00285339,-1.00523376,0.305176,0.122070,-0.183105
6210142666,0.00280762,0.00157166,-1.00613403,0.183105,0.122070,0.000000
6215227541,0.00265503,0.00093079,-1.00639343,0.305176,0.122070,-0.061035
6220152041,0.00267029,0.00111389,-1.00608826,0.488281,0.061035,0.000000
6225212083,0.00242615,0.00154114,-1.00611877,0.305176,0.061035,-0.122070
6230168250,0.00204468,0.00135803,-1.00656128,0.366211,0.183105,-0.061035
6235192375,0.00187683,0.00119019,-1.00668335,0.305176,0.122070,-0.122070
6240180708,0.00190735,0.00184631,-1.00627136,0.305176,0.061035,-0.061035
6245156750,0.00204468,0.00270081,-1.00601196,0.244141,-0.061035,-0.122070
6250206083,0.00227356,0.00286865,-1.00605774,0.122070,0.061035,-0.061035
6255158000,0.00239563,0.00259399,-1.00575256,0.305176,-0.122070,0.061035
6260129750,0.00221252,0.00263977,-1.00500488,0.366211,0.000000,-0.061035
6265245875,0.00199890,0.00308228,-1.00448608,0.366211,0.061035,-0.061035
6270176000,0.00193787,0.00331116,-1.00459290,0.122070,0.000000,-0.244141
6275153500,0.00187683,0.00299072,-1.00505066,0.244141,0.183105,-0.122070
6280129833,0.00193787,0.00271606,-1.00544739,0.305176,0.000000,-0.061035
6285124041,0.00234985,0.00299072,-1.00581360,0.427246,0.061035,-0.061035
6290162583,0.00271606,0.00341797,-1.00621033,0.366211,-0.061035,0.000000
6295161250,0.00256348,0.00349426,-1.00651550,0.305176,0.061035,0.061035
6300153833,0.00230408,0.00321960,-1.00646973,0.305176,0.000000,0.000000
6305175416,0.00260925,0.00282288,-1.00593567,0.244141,0.061035,-0.061035
6310175916,0.00325012,0.00291443,-1.00558472,0.366211,0.183105,-0.061035
6315189625,0.00341797,0.00366211,-1.00590515,0.427246,0.061035,-0.122070
6320166250,0.00311279,0.00401306,-1.00613403,0.366211,0.061035,-0.122070
6325194583,0.00282288,0.00331116,-1.00576782,0.305176,0.061035,0.000000
6330183500,0.00259399,0.00218201,-1.00540161,0.427246,0.122070,-0.061035
6335167875,0.00238037,0.00140381,-1.00549316,0.244141,-0.061035,0.000000
6340131500,0.00215149,0.00126648,-1.00553894,0.427246,0.183105,0.061035
6345144833,0.00209045,0.00170898,-1.00477600,0.305176,0.061035,0.000000
6350165958,0.00236511,0.00218201,-1.00405884,0.427246,0.000000,-0.122070
6355195791,0.00262451,0.00265503,-1.00474548,0.122070,0.000000,-0.061035
6360164541,0.00242615,0.00325012,-1.00613403,0.183105,0.122070,-0.183105
6365278125,0.00187683,0.00390625,-1.00666809,0.366211,0.061035,-0.122070
6370175416,0.00155640,0.00419617,-1.00614929,0.244141,0.000000,-0.122070
6375147791,0.00160217,0.00378418,-1.00576782,0.305176,0.000000,-0.061035
6380156416,0.00178528,0.00314331,-1.00622559,0.305176,-0.061035,-0.183105
6385167375,0.00193787,0.00296021,-1.00659180,0.244141,0.061035,-0.061035
6390279375,0.00196838,0.00321960,-1.00616455,0.366211,0.000000,-0.183105
6395186291,0.00195312,0.00343323,-1.00541687,0.305176,0.183105,-0.061035
6400138083,0.00196838,0.00334167,-1.00541687,0.305176,0.061035,-0.061035
6405164500,0.00213623,0.00286865,-1.00585938,0.183105,0.061035,-0.183105
6410143791,0.00236511,0.00231934,-1.00547791,0.427246,0.122070,0.122070
6415158125,0.00233459,0.00201416,-1.00476074,0.305176,0.061035,-0.061035
6420150041,0.00216675,0.00222778,-1.00508118,0.427246,0.061035,0.000000
6425174708,0.00222778,0.00271606,-1.00633240,0.305176,0.000000,-0.122070
6430138916,0.00241089,0.00292969,-1.00703430,0.244141,-0.061035,-0.061035
6435183791,0.00247192,0.00282288,-1.00637817,0.305176,0.061035,-0.122070
6440178250,0.00244141,0.00291443,-1.00535583,0.183105,0.061035,-0.061035
6445153750,0.00244141,0.00326538,-1.00540161,0.305176,0.000000,-0.061035
6450164625,0.00253296,0.00349426,-1.00616455,0.244141,0.061035,-0.061035
6455191583,0.00245667,0.00349426,-1.00602722,0.366211,0.061035,-0.061035
6460169416,0.00169373,0.00325012,-1.00518799,0.366211,0.061035,0.000000
6465281250,0.00074768,0.00296021,-1.00527954,0.427246,0.000000,0.061035
6470165500,0.00051880,0.00271606,-1.00599670,0.244141,0.000000,0.000000
6475173083,0.00100708,0.00250244,-1.00570679,0.244141,0.000000,-0.183105
6480150083,0.00134277,0.00241089,-1.00457764,0.244141,0.061035,0.061035
6485167541,0.00117493,0.00245667,-1.00430298,0.305176,0.061035,-0.061035
6490220250,0.00096130,0.00270081,-1.00532532,0.366211,0.000000,-0.061035
6495281000,0.00091553,0.00289917,-1.00610352,0.244141,0.061035,-0.061035
6500171958,0.00108337,0.00274658,-1.00576782,0.305176,0.061035,-0.061035
6505233291,0.00155640,0.00212097,-1.00534058,0.244141,0.122070,-0.122070
6510188291,0.00216675,0.00187683,-1.00566101,0.305176,0.061035,-0.061035
6515166375,0.00250244,0.00221252,-1.00569153,0.366211,0.122070,-0.061035
6520207708,0.00251770,0.00228882,-1.00483704,0.305176,-0.061035,-0.061035
6525199000,0.00253296,0.00204468,-1.00437927,0.183105,0.122070,-0.122070
6530186250,0.00276184,0.00192261,-1.00521851,0.244141,0.000000,-0.244141
6535180666,0.00273132,0.00216675,-1.00648499,0.244141,0.061035,0.000000
6540194083,0.00228882,0.00263977,-1.00697327,0.244141,0.000000,0.000000
6545232500,0.00192261,0.00296021,-1.00680542,0.183105,0.122070,-0.122070
6550202708,0.00186157,0.00299072,-1.00665283,0.244141,0.061035,-0.183105
6555272166,0.00192261,0.00302124,-1.00648499,0.305176,0.000000,-0.122070
6560174625,0.00195312,0.00329590,-1.00617981,0.366211,0.061035,-0.061035
6565297041,0.00207520,0.00387573,-1.00578308,0.305176,0.000000,0.000000
6570188625,0.00245667,0.00463867,-1.00572205,0.305176,0.000000,0.000000
6575163875,0.00267029,0.00500488,-1.00613403,0.427246,0.061035,0.000000
6580196541,0.00225830,0.00462341,-1.00636292,0.305176,0.122070,-0.061035
6585188041,0.00163269,0.00392151,-1.00578308,0.244141,0.000000,-0.061035
6590156916,0.00135803,0.00346375,-1.00503540,0.244141,0.061035,-0.061035
6595225791,0.00149536,0.00326538,-1.00494385,0.366211,0.061035,-0.122070
6600292125,0.00192261,0.00285339,-1.00547791,0.427246,0.000000,-0.061035
6605189458,0.00233459,0.00224304,-1.00588989,0.244141,-0.061035,-0.122070
6610189166,0.00230408,0.00230408,-1.00582886,0.305176,0.000000,0.000000
6615197583,0.00204468,0.00279236,-1.00593567,0.488281,0.061035,-0.061035
6620215291,0.00187683,0.00256348,-1.00662231,0.244141,-0.061035,-0.061035
6625187666,0.00172424,0.00173950,-1.00686646,0.366211,0.122070,-0.061035
6630191166,0.00151062,0.00135803,-1.00622559,0.366211,-0.061035,-0.122070
6635186958,0.00167847,0.00187683,-1.00555420,0.183105,0.122070,-0.122070
6640191833,0.00186157,0.00274658,-1.00556946,0.244141,0.061035,0.000000
6645217166,0.00173950,0.00317383,-1.00585938,0.183105,0.061035,-0.122070
6650223541,0.00196838,0.00311279,-1.00619507,0.305176,0.061035,-0.122070
6655161208,0.00267029,0.00308228,-1.00657654,0.305176,0.122070,0.000000
6660205750,0.00291443,0.00309753,-1.00665283,0.305176,0.000000,-0.061035
6665345958,0.00270081,0.00289917,-1.00630188,0.427246,0.122070,-0.122070
6670170291,0.00260925,0.00289917,-1.00561523,0.305176,0.122070,-0.183105
6675230166,0.00241089,0.00318909,-1.00529480,0.366211,0.000000,-0.061035
6680170333,0.00218201,0.00343323,-1.00585938,0.244141,0.122070,-0.122070
6685168666,0.00238037,0.00347900,-1.00628662,0.427246,0.122070,-0.183105
6690171375,0.00299072,0.00357056,-1.00593567,0.366211,0.122070,0.000000
6695221875,0.00332642,0.00389099,-1.00552368,0.305176,-0.061035,-0.061035
6700205875,0.00279236,0.00404358,-1.00555420,0.366211,0.000000,0.000000
6705238500,0.00177002,0.00370789,-1.00566101,0.427246,0.000000,-0.061035
6710204583,0.00143433,0.00335693,-1.00581360,0.366211,0.000000,-0.122070
6715194875,0.00177002,0.00329590,-1.00596619,0.366211,0.000000,-0.122070
6720209125,0.00180054,0.00317383,-1.00567627,0.305176,0.183105,-0.061035
6725166291,0.00143433,0.00254822,-1.00524902,0.427246,0.000000,0.000000
6730158875,0.00088501,0.00170898,-1.00538635,0.366211,0.061035,0.000000
6735185791,0.00064087,0.00132751,-1.00593567,0.305176,0.000000,-0.122070
6740226291,0.00119019,0.00135803,-1.00604248,0.305176,-0.061035,-0.122070
6745245000,0.00207520,0.00151062,-1.00593567,0.427246,0.061035,-0.061035
6750211958,0.00254822,0.00173950,-1.00657654,0.305176,0.061035,0.000000
6755190333,0.00253296,0.00193787,-1.00756836,0.305176,0.061035,-0.061035
6760196750,0.00228882,0.00199890,-1.00720215,0.183105,0.000000,-0.061035
6765335916,0.00209045,0.00210571,-1.00553894,0.244141,0.061035,-0.122070
6770200500,0.00230408,0.00236511,-1.00454712,0.305176,0.061035,-0.122070
6775218708,0.00276184,0.00292969,-1.00477600,0.244141,0.122070,-0.061035
6780198416,0.00286865,0.00379944,-1.00497437,0.305176,0.061035,-0.122070
6785189666,0.00274658,0.00416565,-1.00483704,0.366211,-0.061035,-0.122070
6790190375,0.00282288,0.00363159,-1.00502014,0.305176,0.000000,0.000000
6795230833,0.00279236,0.00320435,-1.00534058,0.366211,0.061035,-0.122070
6800169375,0.00241089,0.00347900,-1.00526428,0.244141,-0.061035,0.000000
6805208458,0.00228882,0.00384521,-1.00482178,0.305176,0.061035,-0.061035
6810220916,0.00280762,0.00367737,-1.00480652,0.305176,0.000000,-0.061035
6815228291,0.00315857,0.00302124,-1.00564575,0.305176,0.122070,0.122070
6820201416,0.00268555,0.00245667,-1.00654602,0.244141,0.122070,-0.122070
6825234416,0.00210571,0.00219727,-1.00637817,0.305176,0.061035,-0.122070
6830163791,0.00202942,0.00215149,-1.00599670,0.366211,0.183105,-0.061035
6835180333,0.00195312,0.00230408,-1.00639343,0.366211,0.061035,0.000000
6840215916,0.00190735,0.00253296,-1.00657654,0.305176,0.122070,-0.183105
6845242916,0.00218201,0.00277710,-1.00555420,0.366211,0.122070,0.061035
6850181166,0.00205994,0.00274658,-1.00468445,0.244141,0.061035,0.000000
6855224833,0.00138855,0.00193787,-1.00520325,0.305176,0.000000,-0.122070
6860292208,0.00108337,0.00097656,-1.00656128,0.122070,0.061035,-0.122070
6865320708,0.00131226,0.00122070,-1.00730896,0.366211,0.000000,-0.061035
6870200458,0.00170898,0.00227356,-1.00680542,0.183105,0.000000,-0.244141
6875182416,0.00216675,0.00257874,-1.00587463,0.305176,0.122070,-0.061035
6880179583,0.00248718,0.00224304,-1.00558472,0.305176,-0.061035,-0.122070
6885164625,0.00250244,0.00248718,-1.00576782,0.305176,0.000000,-0.183105
6890204791,0.00234985,0.00340271,-1.00575256,0.427246,-0.061035,-0.061035
6895162666,0.00250244,0.00407410,-1.00550842,0.427246,0.061035,0.000000
6900163375,0.00306702,0.00398254,-1.00570679,0.244141,-0.122070,-0.061035
6905363500,0.00358582,0.00340271,-1.00636292,0.366211,0.061035,-0.061035
6910226166,0.00352478,0.00318909,-1.00656128,0.122070,-0.122070,-0.061035
6915205958,0.00311279,0.00367737,-1.00625610,0.244141,-0.061035,-0.061035
6920215083,0.00299072,0.00399780,-1.00614929,0.366211,0.000000,0.000000
6925225458,0.00312805,0.00369263,-1.00608826,0.305176,0.061035,-0.183105
6930204000,0.00291443,0.00325012,-1.00552368,0.427246,0.061035,-0.061035
6935188916,0.00241089,0.00315857,-1.00479126,0.366211,0.122070,0.000000
6940204166,0.00199890,0.00328064,-1.00495911,0.244141,0.061035,0.000000
6945178208,0.00201416,0.00308228,-1.00595093,0.305176,0.000000,-0.061035
6950205375,0.00218201,0.00263977,-1.00645447,0.305176,0.122070,0.000000
6955182333,0.00201416,0.00245667,-1.00602722,0.305176,-0.183105,-0.122070
6960209916,0.00169373,0.00260925,-1.00573730,0.244141,0.061035,0.061035
6965427625,0.00186157,0.00260925,-1.00642395,0.488281,0.122070,-0.061035
6970181333,0.00248718,0.00250244,-1.00700378,0.366211,0.061035,-0.061035
6975242416,0.00265503,0.00263977,-1.00614929,0.244141,0.061035,-0.122070
6980182291,0.00209045,0.00296021,-1.00486755,0.366211,0.000000,-0.061035
6985214708,0.00170898,0.00296021,-1.00492859,0.427246,0.122070,-0.122070
6990215791,0.00184631,0.00263977,-1.00611877,0.305176,0.061035,0.000000
6995263416,0.00175476,0.00244141,-1.00672913,0.427246,0.000000,-0.061035
7000201750,0.00137329,0.00245667,-1.00634766,0.366211,0.000000,-0.122070
7005218125,0.00169373,0.00265503,-1.00587463,0.122070,0.061035,-0.061035
7010193708,0.00263977,0.00309753,-1.00581360,0.122070,0.122070,-0.061035
7015226541,0.00305176,0.00358582,-1.00587463,0.244141,0.061035,-0.061035
7020204166,0.00274658,0.00399780,-1.00564575,0.244141,0.000000,0.000000
7025198583,0.00241089,0.00393677,-1.00547791,0.305176,0.000000,-0.061035
7030195375,0.00253296,0.00349426,-1.00598145,0.305176,0.000000,-0.061035
7035206458,0.00308228,0.00346375,-1.00643921,0.183105,0.122070,-0.122070
7040219791,0.00350952,0.00358582,-1.00595093,0.366211,0.000000,-0.061035
7045208500,0.00314331,0.00306702,-1.00541687,0.183105,0.061035,-0.183105
7050201583,0.00216675,0.00210571,-1.00601196,0.305176,0.061035,0.000000
7055236708,0.00138855,0.00148010,-1.00692749,0.244141,0.061035,0.000000
7060234416,0.00125122,0.00135803,-1.00672913,0.305176,0.000000,-0.061035
7065341375,0.00169373,0.00169373,-1.00569153,0.305176,0.000000,-0.122070
7070300875,0.00218201,0.00241089,-1.00546265,0.244141,0.000000,-0.183105
7075244666,0.00219727,0.00288391,-1.00645447,0.366211,0.061035,-0.061035
7080247125,0.00195312,0.00271606,-1.00701904,0.366211,0.061035,0.183105
7085217375,0.00164795,0.00265503,-1.00616455,0.183105,0.000000,-0.122070
7090260375,0.00134277,0.00302124,-1.00534058,0.183105,-0.122070,-0.061035
7095255625,0.00155640,0.00321960,-1.00567627,0.305176,0.061035,0.061035
7100261875,0.00196838,0.00311279,-1.00628662,0.427246,0.122070,0.061035
7105271625,0.00195312,0.00315857,-1.00640869,0.305176,0.122070,-0.122070
7110240250,0.00170898,0.00335693,-1.00636292,0.305176,0.061035,0.000000
7115326291,0.00155640,0.00335693,-1.00642395,0.305176,0.061035,-0.122070
7120264041,0.00169373,0.00311279,-1.00646973,0.305176,0.061035,-0.061035
7125219250,0.00190735,0.00296021,-1.00593567,0.244141,0.000000,0.000000
7130267125,0.00183105,0.00308228,-1.00517273,0.366211,0.061035,-0.122070
7135291958,0.00143433,0.00302124,-1.00523376,0.183105,0.183105,-0.122070
7140269083,0.00102234,0.00273132,-1.00622559,0.366211,0.000000,-0.061035
7145262208,0.00128174,0.00286865,-1.00688171,0.305176,0.061035,-0.061035
7150253083,0.00202942,0.00361633,-1.00607300,0.366211,0.000000,-0.061035
7155281083,0.00225830,0.00418091,-1.00495911,0.488281,0.183105,-0.061035
7160266041,0.00192261,0.00390625,-1.00515747,0.183105,0.061035,-0.122070
7165350375,0.00173950,0.00296021,-1.00596619,0.366211,0.122070,-0.061035
7170308500,0.00163269,0.00202942,-1.00607300,0.366211,0.061035,0.061035
7175319041,0.00149536,0.00172424,-1.00605774,0.366211,0.000000,-0.061035
7180260250,0.00157166,0.00215149,-1.00662231,0.244141,-0.061035,0.000000
7185299708,0.00181580,0.00276184,-1.00692749,0.305176,0.061035,-0.122070
7190313791,0.00198364,0.00302124,-1.00633240,0.427246,0.061035,0.000000
7195252166,0.00202942,0.00318909,-1.00544739,0.488281,0.000000,-0.061035
7200300375,0.00221252,0.00364685,-1.00537109,0.244141,0.183105,0.000000
7205284250,0.00241089,0.00402832,-1.00605774,0.183105,0.061035,-0.061035
7210256541,0.00247192,0.00415039,-1.00656128,0.305176,0.061035,0.000000
7215266041,0.00244141,0.00415039,-1.00614929,0.183105,0.122070,-0.183105
7220313416,0.00242615,0.00401306,-1.00520325,0.366211,0.122070,-0.061035
7225350583,0.00248718,0.00389099,-1.00503540,0.244141,0.061035,-0.122070
7230328666,0.00274658,0.00381470,-1.00573730,0.366211,0.183105,-0.061035
7235298125,0.00314331,0.00352478,-1.00590515,0.427246,0.061035,-0.183105
7240281583,0.00317383,0.00311279,-1.00521851,0.366211,0.061035,0.000000
7245280958,0.00262451,0.00297546,-1.00518799,0.305176,0.122070,0.000000
7250326625,0.00199890,0.00292969,-1.00630188,0.305176,0.000000,-0.122070
7255340875,0.00167847,0.00242615,-1.00698853,0.183105,-0.061035,-0.061035
7260331291,0.00172424,0.00167847,-1.00627136,0.244141,0.000000,-0.122070
7265323333,0.00177002,0.00120544,-1.00537109,0.244141,0.122070,-0.061035
7270304250,0.00144958,0.00132751,-1.00576782,0.366211,0.122070,-0.061035
7275290416,0.00102234,0.00190735,-1.00659180,0.183105,0.061035,-0.122070
7280306625,0.00094604,0.00253296,-1.00621033,0.183105,0.061035,-0.122070
7285317125,0.00138855,0.00291443,-1.00547791,0.305176,0.122070,-0.122070
7290321833,0.00204468,0.00296021,-1.00587463,0.427246,0.000000,-0.061035
7295344166,0.00224304,0.00268555,-1.00663757,0.305176,-0.061035,0.000000
7300332375,0.00215149,0.00224304,-1.00645447,0.366211,-0.061035,-0.122070
7305265458,0.00225830,0.00224304,-1.00535583,0.366211,-0.061035,-0.061035
7310330166,0.00260925,0.00303650,-1.00495911,0.305176,0.061035,-0.122070
7315352916,0.00285339,0.00402832,-1.00592041,0.244141,0.000000,0.000000
7320297833,0.00262451,0.00430298,-1.00679016,0.183105,0.000000,-0.122070
7325358791,0.00216675,0.00364685,-1.00637817,0.305176,0.061035,0.000000
7330387875,0.00209045,0.00296021,-1.00549316,0.244141,0.061035,-0.122070
7335341083,0.00245667,0.00277710,-1.00537109,0.305176,0.061035,-0.183105
7340354333,0.00276184,0.00292969,-1.00599670,0.366211,0.122070,-0.061035
7345352708,0.00256348,0.00320435,-1.00610352,0.366211,-0.061035,-0.061035
7350343416,0.00207520,0.00340271,-1.00508118,0.305176,0.061035,0.000000
7355313750,0.00163269,0.00343323,-1.00424194,0.183105,0.000000,-0.122070
7360348666,0.00149536,0.00328064,-1.00500488,0.244141,-0.061035,-0.061035
7365321041,0.00143433,0.00299072,-1.00634766,0.427246,0.122070,0.061035
7370314166,0.00125122,0.00262451,-1.00663757,0.366211,0.000000,0.061035
7375374500,0.00112915,0.00219727,-1.00622559,0.366211,0.000000,0.000000
7380334375,0.00105286,0.00205994,-1.00660706,0.244141,0.000000,-0.183105
7385355708,0.00111389,0.00227356,-1.00718689,0.305176,0.000000,0.000000
7390361250,0.00132751,0.00256348,-1.00643921,0.305176,0.122070,0.122070
7395360375,0.00138855,0.00294495,-1.00494385,0.366211,0.061035,0.061035
7400303083,0.00129700,0.00321960,-1.00477600,0.244141,0.122070,0.000000
7405364791,0.00163269,0.00314331,-1.00576782,0.305176,0.061035,-0.061035
7410323666,0.00247192,0.00328064,-1.00605774,0.244141,0.122070,0.061035
7415346541,0.00325012,0.00381470,-1.00540161,0.427246,0.122070,-0.061035
7420358458,0.00369263,0.00390625,-1.00535583,0.244141,0.061035,-0.122070
7425381791,0.00361633,0.00366211,-1.00610352,0.305176,-0.122070,-0.061035
7430338375,0.00306702,0.00369263,-1.00659180,0.305176,0.061035,-0.183105
7435409708,0.00250244,0.00369263,-1.00633240,0.427246,0.061035,-0.061035
7440370375,0.00231934,0.00302124,-1.00608826,0.183105,-0.061035,-0.122070
7445385583,0.00231934,0.00215149,-1.00636292,0.305176,0.061035,-0.061035
7450362083,0.00225830,0.00180054,-1.00666809,0.305176,0.000000,-0.183105
7455348166,0.00210571,0.00186157,-1.00656128,0.244141,0.061035,-0.183105
7460364625,0.00195312,0.00198364,-1.00637817,0.366211,0.061035,0.000000
7465333583,0.00190735,0.00199890,-1.00633240,0.366211,0.061035,0.061035
7470386583,0.00198364,0.00183105,-1.00636292,0.244141,0.061035,-0.122070
7475379166,0.00219727,0.00186157,-1.00637817,0.244141,0.061035,0.061035
7480378666,0.00221252,0.00219727,-1.00637817,0.244141,0.122070,-0.061035
7485338166,0.00169373,0.00253296,-1.00654602,0.183105,0.061035,-0.061035
7490359541,0.00126648,0.00289917,-1.00689697,0.488281,0.183105,0.061035
7495364666,0.00149536,0.00329590,-1.00688171,0.366211,0.061035,-0.183105
7500346291,0.00199890,0.00347900,-1.00639343,0.305176,0.000000,0.000000
7505394625,0.00227356,0.00344849,-1.00605774,0.305176,0.122070,-0.061035
7510474375,0.00198364,0.00337219,-1.00607300,0.305176,-0.061035,0.000000
7515375666,0.00161743,0.00338745,-1.00596619,0.244141,-0.122070,-0.061035
7520355666,0.00189209,0.00358582,-1.00553894,0.305176,0.122070,-0.061035
7525354750,0.00234985,0.00354004,-1.00547791,0.305176,-0.061035,-0.061035
7530408500,0.00236511,0.00326538,-1.00617981,0.366211,-0.061035,-0.061035
7535356541,0.00245667,0.00340271,-1.00666809,0.366211,0.122070,-0.122070
7540447958,0.00292969,0.00372314,-1.00650024,0.366211,0.061035,-0.183105
7545413500,0.00303650,0.00357056,-1.00599670,0.305176,0.122070,-0.122070
7550355875,0.00274658,0.00311279,-1.00555420,0.366211,0.183105,-0.061035
7555388875,0.00270081,0.00303650,-1.00566101,0.183105,0.061035,-0.061035
7560389208,0.00280762,0.00329590,-1.00630188,0.244141,0.000000,-0.183105
7565348625,0.00274658,0.00331116,-1.00686646,0.305176,0.000000,0.061035
7570357375,0.00270081,0.00265503,-1.00704956,0.366211,0.061035,0.000000
7575382000,0.00260925,0.00163269,-1.00697327,0.366211,0.000000,0.000000
7580363458,0.00222778,0.00134277,-1.00663757,0.366211,0.061035,-0.061035
7585365625,0.00169373,0.00193787,-1.00633240,0.305176,0.061035,-0.061035
7590427500,0.00108337,0.00245667,-1.00628662,0.366211,-0.061035,-0.061035
7595405083,0.00094604,0.00241089,-1.00634766,0.244141,0.061035,-0.122070
7600392958,0.00160217,0.00213623,-1.00637817,0.244141,0.061035,0.000000
7605382458,0.00251770,0.00233459,-1.00636292,0.427246,0.000000,-0.061035
7610349583,0.00305176,0.00288391,-1.00625610,0.244141,-0.061035,-0.122070
7615370791,0.00288391,0.00320435,-1.00617981,0.427246,0.122070,-0.061035
7620403500,0.00231934,0.00311279,-1.00616455,0.244141,0.000000,-0.122070
7625421250,0.00205994,0.00273132,-1.00590515,0.305176,0.122070,-0.061035
7630358291,0.00224304,0.00254822,-1.00550842,0.244141,0.061035,-0.061035
7635414416,0.00251770,0.00306702,-1.00540161,0.305176,0.061035,-0.061035
7640399208,0.00253296,0.00390625,-1.00563049,0.244141,0.122070,-0.061035
7645365000,0.00202942,0.00419617,-1.00572205,0.305176,0.000000,-0.061035
7650394583,0.00161743,0.00379944,-1.00570679,0.183105,-0.061035,0.000000
7655376333,0.00186157,0.00338745,-1.00581360,0.366211,0.000000,-0.061035
7660410750,0.00212097,0.00314331,-1.00575256,0.183105,-0.061035,-0.183105
7665305500,0.00161743,0.00286865,-1.00544739,0.366211,-0.061035,0.000000
7670377416,0.00102234,0.00286865,-1.00555420,0.305176,0.122070,-0.122070
7675408041,0.00108337,0.00314331,-1.00607300,0.366211,0.061035,0.000000
7680414291,0.00128174,0.00289917,-1.00625610,0.305176,0.000000,-0.061035
7685386583,0.00128174,0.00187683,-1.00582886,0.305176,0.122070,-0.061035
7690413208,0.00140381,0.00105286,-1.00514221,0.244141,0.122070,-0.061035
7695474041,0.00177002,0.00115967,-1.00474548,0.427246,0.061035,0.000000
7700405291,0.00202942,0.00175476,-1.00531006,0.488281,0.122070,0.000000
7705426625,0.00178528,0.00210571,-1.00622559,0.366211,0.000000,-0.061035
7710421708,0.00138855,0.00224304,-1.00616455,0.183105,0.000000,-0.122070
7715437750,0.00148010,0.00247192,-1.00535583,0.244141,0.000000,-0.122070
7720380958,0.00219727,0.00291443,-1.00491333,0.305176,0.000000,-0.122070
7725427875,0.00280762,0.00334167,-1.00549316,0.244141,0.000000,0.000000
7730429125,0.00273132,0.00338745,-1.00646973,0.366211,0.000000,-0.122070
7735394500,0.00219727,0.00317383,-1.00646973,0.183105,-0.061035,-0.183105
7740396291,0.00180054,0.00321960,-1.00572205,0.305176,-0.061035,-0.122070
7745427916,0.00186157,0.00360107,-1.00543213,0.244141,0.061035,0.000000
7750447750,0.00183105,0.00392151,-1.00576782,0.244141,0.183105,0.000000
7755423333,0.00163269,0.00402832,-1.00584412,0.366211,0.122070,-0.122070
7760421583,0.00195312,0.00404358,-1.00538635,0.244141,0.000000,-0.061035
7765380916,0.00259399,0.00408936,-1.00523376,0.366211,0.061035,0.000000
7770434916,0.00248718,0.00410461,-1.00595093,0.366211,0.000000,-0.061035
7775440208,0.00193787,0.00381470,-1.00640869,0.366211,0.000000,0.000000
7780435250,0.00192261,0.00340271,-1.00599670,0.427246,0.061035,0.000000
7785406791,0.00213623,0.00306702,-1.00566101,0.305176,0.122070,0.000000
7790467041,0.00186157,0.00288391,-1.00587463,0.305176,-0.122070,-0.122070
7795433625,0.00140381,0.00273132,-1.00622559,0.427246,0.061035,0.000000
7800494083,0.00140381,0.00253296,-1.00610352,0.366211,0.061035,-0.061035
7805445791,0.00183105,0.00248718,-1.00552368,0.366211,0.122070,-0.061035
7810455000,0.00201416,0.00262451,-1.00552368,0.244141,0.061035,-0.183105
7815447375,0.00178528,0.00241089,-1.00640869,0.305176,0.061035,0.000000
7820410291,0.00180054,0.00192261,-1.00692749,0.427246,0.122070,0.000000
7825438291,0.00227356,0.00199890,-1.00622559,0.305176,0.061035,-0.061035
7830443250,0.00260925,0.00282288,-1.00564575,0.305176,0.000000,-0.122070
7835420208,0.00274658,0.00352478,-1.00621033,0.427246,0.000000,-0.122070
7840423416,0.00297546,0.00338745,-1.00662231,0.305176,0.000000,0.000000
7845458125,0.00273132,0.00276184,-1.00578308,0.244141,0.183105,0.061035
7850441750,0.00192261,0.00245667,-1.00489807,0.244141,0.061035,-0.061035
7855455916,0.00140381,0.00270081,-1.00523376,0.427246,0.122070,0.061035
7860461875,0.00161743,0.00311279,-1.00604248,0.183105,0.183105,0.061035
7865350875,0.00230408,0.00326538,-1.00607300,0.305176,0.061035,0.061035
7870449333,0.00297546,0.00314331,-1.00544739,0.183105,0.183105,-0.122070
7875455416,0.00315857,0.00331116,-1.00544739,0.305176,0.061035,0.000000
7880452166,0.00254822,0.00373840,-1.00643921,0.305176,0.122070,0.000000
7885426416,0.00166321,0.00387573,-1.00685120,0.244141,0.000000,-0.061035
7890435416,0.00120544,0.00360107,-1.00628662,0.366211,0.122070,0.061035
7895486208,0.00129700,0.00306702,-1.00584412,0.427246,0.000000,-0.061035
7900444083,0.00189209,0.00242615,-1.00605774,0.305176,0.122070,-0.061035
7905442250,0.00225830,0.00218201,-1.00631714,0.305176,0.061035,-0.061035
7910423625,0.00195312,0.00263977,-1.00604248,0.305176,0.061035,-0.061035
7915425916,0.00158691,0.00325012,-1.00538635,0.366211,-0.061035,-0.061035
7920463125,0.00154114,0.00341797,-1.00511169,0.366211,0.122070,-0.122070
7925462416,0.00154114,0.00314331,-1.00517273,0.305176,-0.061035,0.000000
7930448750,0.00141907,0.00289917,-1.00515747,0.122070,0.000000,-0.061035
7935436833,0.00117493,0.00285339,-1.00532532,0.244141,0.000000,-0.061035
7940438666,0.00109863,0.00282288,-1.00619507,0.366211,0.061035,0.000000
7945432916,0.00148010,0.00260925,-1.00752258,0.366211,0.061035,-0.061035
7950462791,0.00195312,0.00242615,-1.00779724,0.305176,-0.061035,-0.061035
7955507416,0.00216675,0.00239563,-1.00659180,0.305176,0.183105,0.061035
7960452250,0.00230408,0.00257874,-1.00599670,0.366211,0.122070,0.000000
7965412708,0.00228882,0.00294495,-1.00671387,0.305176,0.122070,-0.061035
7970502291,0.00216675,0.00314331,-1.00660706,0.305176,0.000000,-0.061035
7975506583,0.00224304,0.00309753,-1.00485229,0.244141,0.122070,0.061035
7980477458,0.00241089,0.00317383,-1.00349426,0.366211,0.061035,0.000000
7985480875,0.00247192,0.00325012,-1.00439453,0.366211,0.061035,0.000000
7990519958,0.00242615,0.00297546,-1.00617981,0.305176,0.061035,0.061035
7995488250,0.00216675,0.00268555,-1.00648499,0.305176,0.061035,0.000000
8000482875,0.00151062,0.00242615,-1.00570679,0.244141,0.000000,-0.122070
8005477458,0.00100708,0.00225830,-1.00585938,0.427246,0.183105,-0.183105
8010478666,0.00105286,0.00253296,-1.00708008,0.366211,0.183105,0.000000
8015449958,0.00137329,0.00283813,-1.00718689,0.366211,-0.061035,-0.122070
8020502750,0.00172424,0.00276184,-1.00592041,0.122070,0.061035,0.061035
8025519625,0.00227356,0.00267029,-1.00541687,0.244141,0.122070,-0.122070
8030463541,0.00256348,0.00277710,-1.00657654,0.244141,0.122070,-0.061035
8035475416,0.00202942,0.00273132,-1.00743103,0.244141,0.000000,-0.061035
8040462500,0.00138855,0.00257874,-1.00662231,0.305176,0.000000,-0.122070
8045449625,0.00152588,0.00288391,-1.00529480,0.305176,0.061035,-0.061035
8050450833,0.00224304,0.00347900,-1.00515747,0.183105,-0.061035,0.000000
8055474791,0.00297546,0.00350952,-1.00567627,0.183105,0.122070,-0.061035
8060499416,0.00350952,0.00302124,-1.00559998,0.305176,-0.122070,-0.061035
8065434291,0.00350952,0.00262451,-1.00521851,0.305176,0.122070,-0.183105
8070492000,0.00279236,0.00268555,-1.00546265,0.244141,0.000000,-0.122070
8075487041,0.00218201,0.00289917,-1.00630188,0.366211,0.000000,-0.122070
8080462916,0.00224304,0.00296021,-1.00665283,0.244141,0.061035,-0.122070
8085473416,0.00253296,0.00291443,-1.00590515,0.244141,-0.061035,-0.061035
8090556166,0.00259399,0.00285339,-1.00503540,0.305176,0.000000,-0.061035
8095494500,0.00256348,0.00286865,-1.00500488,0.305176,0.000000,-0.122070
8100496333,0.00236511,0.00291443,-1.00544739,0.366211,0.061035,-0.183105
8105511333,0.00213623,0.00288391,-1.00538635,0.366211,0.000000,-0.061035
8110555500,0.00207520,0.00277710,-1.00523376,0.488281,0.183105,0.000000
8115525208,0.00202942,0.00296021,-1.00578308,0.549316,0.000000,0.000000
8120501375,0.00196838,0.00315857,-1.00685120,0.183105,0.000000,0.000000
8125512833,0.00207520,0.00288391,-1.00686646,0.305176,0.122070,0.000000
8130499541,0.00225830,0.00248718,-1.00529480,0.366211,0.000000,0.000000
8135474166,0.00215149,0.00234985,-1.00401306,0.305176,0.000000,-0.061035
8140525833,0.00172424,0.00245667,-1.00448608,0.305176,0.061035,0.061035
8145517791,0.00143433,0.00285339,-1.00561523,0.488281,0.122070,-0.183105
8150511791,0.00144958,0.00328064,-1.00592041,0.244141,-0.061035,-0.122070
8155487583,0.00172424,0.00318909,-1.00558472,0.427246,0.122070,-0.122070
8160516375,0.00205994,0.00230408,-1.00579834,0.244141,0.000000,0.000000
8165431916,0.00212097,0.00148010,-1.00651550,0.305176,0.000000,-0.122070
8170530333,0.00175476,0.00172424,-1.00660706,0.183105,-0.061035,-0.122070
8175520333,0.00163269,0.00254822,-1.00590515,0.305176,-0.061035,-0.122070
8180485000,0.00205994,0.00302124,-1.00556946,0.366211,0.061035,-0.061035
8185533750,0.00233459,0.00294495,-1.00578308,0.427246,0.061035,-0.061035
8190536375,0.00233459,0.00265503,-1.00573730,0.244141,-0.061035,-0.122070
