timestamp_ns,accel_x,accel_y,accel_z,gyro_x,gyro_y,gyro_z
64391250,0.00694275,-0.00393677,-1.00483704,0.183105,0.000000,-0.061035
71375583,0.00474548,-0.00549316,-1.00364685,0.427246,0.122070,-0.061035
75001083,0.00234985,-0.00556946,-1.00753784,0.305176,0.122070,-0.061035
79427416,0.00032043,-0.00462341,-1.00689697,0.305176,0.061035,-0.061035
84377458,-0.00120544,-0.00311279,-1.00473022,0.366211,0.000000,-0.122070
89416208,-0.00296021,-0.00106812,-1.00518799,0.244141,0.000000,-0.122070
94641416,-0.00500488,0.00178528,-1.00511169,0.183105,0.061035,-0.061035
99399500,-0.00622559,0.00497437,-1.00549316,0.244141,0.122070,0.000000
104996833,-0.00585938,0.00717163,-1.00700378,0.122070,0.061035,-0.183105
115175541,-0.00447083,0.00833130,-1.00613403,0.183105,0.122070,0.000000
115230458,-0.00254822,0.00914001,-1.00500488,0.305176,0.122070,-0.061035
120526500,-0.00061035,0.00930786,-1.00610352,0.183105,0.000000,-0.122070
125041708,0.00073242,0.00862122,-1.00590515,0.244141,0.061035,-0.061035
129524541,0.00216675,0.00746155,-1.00462341,0.610352,-0.061035,-0.061035
135701916,0.00462341,0.00613403,-1.00479126,0.549316,-0.183105,-0.122070
139587750,0.00756836,0.00466919,-1.00416565,0.427246,0.061035,-0.061035
145343625,0.00965881,0.00305176,-1.00190735,0.183105,0.000000,0.000000
151032125,0.01023865,0.00111389,-1.00262451,0.366211,0.061035,-0.061035
154616958,0.00999451,-0.00102234,-1.00820923,0.244141,0.000000,0.061035
159408291,0.00932312,-0.00257874,-1.01255798,0.366211,0.061035,-0.061035
164387625,0.00836182,-0.00280762,-1.01165771,0.366211,0.000000,-0.061035
169399250,0.00764465,-0.00184631,-1.00808716,0.244141,-0.061035,-0.122070
174388083,0.00666809,-0.00035095,-1.00396729,0.305176,0.000000,0.061035
179399375,0.00433350,0.00120544,-1.00177002,0.305176,0.061035,-0.183105
184396083,0.00125122,0.00251770,-1.00382996,0.366211,0.000000,-0.183105
189413000,-0.00109863,0.00328064,-1.00704956,0.305176,0.061035,-0.061035
194410666,-0.00283813,0.00376892,-1.00717163,0.366211,0.122070,-0.061035
199412625,-0.00463867,0.00460815,-1.00479126,0.366211,-0.122070,-0.122070
204451250,-0.00624084,0.00558472,-1.00306702,0.183105,0.000000,-0.122070
209459916,-0.00683594,0.00614929,-1.00378418,0.366211,0.000000,0.061035
214429791,-0.00640869,0.00643921,-1.00593567,0.305176,0.122070,0.061035
219463041,-0.00546265,0.00682068,-1.00642395,0.244141,0.061035,-0.061035
224418000,-0.00390625,0.00698853,-1.00483704,0.244141,0.000000,-0.061035
229435625,-0.00129700,0.00657654,-1.00463867,0.305176,0.000000,0.000000
234418041,0.00187683,0.00587463,-1.00665283,0.244141,0.000000,0.000000
239420166,0.00450134,0.00506592,-1.00773621,0.305176,0.061035,-0.061035
244430166,0.00631714,0.00405884,-1.00642395,0.183105,0.000000,-0.061035
249442291,0.00798035,0.00305176,-1.00460815,0.244141,0.000000,-0.061035
254433583,0.00952148,0.00216675,-1.00465393,0.366211,0.122070,-0.061035
259447833,0.01048279,0.00111389,-1.00666809,0.244141,0.000000,-0.122070
264440958,0.01052856,-0.00018311,-1.00743103,0.305176,0.061035,-0.061035
269439291,0.00991821,-0.00094604,-1.00550842,0.244141,0.000000,-0.183105
274438791,0.00885010,-0.00108337,-1.00401306,0.366211,0.000000,0.061035
279448083,0.00720215,-0.00079346,-1.00514221,0.366211,0.122070,-0.061035
284429375,0.00494385,0.00012207,-1.00723267,0.244141,0.122070,-0.061035
289443458,0.00250244,0.00158691,-1.00735474,0.244141,0.061035,-0.122070
294458250,0.00045776,0.00306702,-1.00512695,0.183105,0.000000,-0.122070
299443416,-0.00125122,0.00427246,-1.00331116,0.183105,0.000000,-0.061035
304439958,-0.00294495,0.00500488,-1.00367737,0.244141,0.061035,0.000000
309458625,-0.00416565,0.00552368,-1.00492859,0.305176,0.061035,-0.061035
314439208,-0.00440979,0.00617981,-1.00540161,0.122070,-0.183105,-0.183105
319497208,-0.00404358,0.00683594,-1.00549316,0.305176,-0.122070,-0.183105
324438291,-0.00379944,0.00692749,-1.00607300,0.122070,0.000000,-0.061035
329496583,-0.00369263,0.00640869,-1.00607300,0.122070,0.061035,0.000000
334454125,-0.00299072,0.00535583,-1.00497437,0.244141,0.000000,-0.061035
339457875,-0.00125122,0.00382996,-1.00440979,0.183105,0.000000,-0.061035
344455958,0.00079346,0.00256348,-1.00514221,0.244141,0.061035,-0.122070
349470541,0.00268555,0.00181580,-1.00582886,0.427246,0.061035,0.183105
354452125,0.00424194,0.00114441,-1.00541687,0.183105,0.061035,0.061035
359446041,0.00535583,0.00070190,-1.00451660,0.305176,0.122070,0.061035
364519000,0.00636292,0.00071716,-1.00486755,0.183105,-0.061035,-0.061035
369538375,0.00778198,0.00083923,-1.00682068,0.183105,0.000000,0.061035
374483125,0.00904846,0.00109863,-1.00782776,0.244141,0.000000,-0.061035
379544625,0.00938416,0.00155640,-1.00674438,0.366211,0.061035,0.000000
384476375,0.00854492,0.00205994,-1.00563049,0.244141,0.000000,-0.244141
389508208,0.00657654,0.00276184,-1.00579834,0.244141,0.061035,-0.122070
394483625,0.00405884,0.00379944,-1.00593567,0.244141,0.122070,-0.061035
399480500,0.00189209,0.00479126,-1.00515747,0.305176,0.122070,0.000000
404513333,0.00032043,0.00535583,-1.00466919,0.305176,0.061035,-0.061035
409481333,-0.00088501,0.00550842,-1.00537109,0.366211,0.000000,0.000000
414486791,-0.00207520,0.00558472,-1.00648499,0.305176,0.000000,-0.061035
419487583,-0.00326538,0.00576782,-1.00666809,0.305176,0.000000,-0.061035
424471000,-0.00386047,0.00627136,-1.00590515,0.305176,0.061035,0.000000
429492541,-0.00357056,0.00701904,-1.00552368,0.305176,0.061035,0.122070
434481250,-0.00280762,0.00729370,-1.00607300,0.183105,0.061035,0.000000
439525958,-0.00169373,0.00683594,-1.00643921,0.244141,0.061035,-0.061035
444529708,-0.00004578,0.00631714,-1.00593567,0.244141,0.183105,0.000000
449490333,0.00164795,0.00569153,-1.00515747,0.183105,0.000000,-0.122070
454489916,0.00299072,0.00454712,-1.00531006,0.305176,0.061035,-0.122070
459512958,0.00410461,0.00296021,-1.00643921,0.305176,0.061035,-0.122070
464492166,0.00535583,0.00175476,-1.00701904,0.366211,-0.061035,-0.183105
469518791,0.00656128,0.00108337,-1.00651550,0.549316,0.122070,-0.061035
474582083,0.00724792,0.00015259,-1.00521851,0.305176,0.000000,-0.061035
479473833,0.00723267,-0.00115967,-1.00440979,0.610352,-0.061035,-0.061035
484492250,0.00636292,-0.00241089,-1.00500488,0.488281,0.000000,-0.183105
489496875,0.00466919,-0.00286865,-1.00588989,0.488281,0.061035,-0.061035
494483458,0.00326538,-0.00207520,-1.00640869,0.488281,0.122070,0.000000
499502000,0.00250244,-0.00019836,-1.00601196,0.549316,0.183105,-0.061035
504512208,0.00126648,0.00196838,-1.00453186,0.488281,0.061035,-0.183105
509524000,-0.00045776,0.00382996,-1.00440979,0.488281,0.183105,-0.122070
514504541,-0.00151062,0.00567627,-1.00653076,0.366211,0.061035,-0.061035
519502000,-0.00209045,0.00775146,-1.00807190,0.244141,-0.061035,0.000000
524494083,-0.00302124,0.00939941,-1.00770569,0.366211,-0.061035,-0.122070
529502958,-0.00375366,0.00973511,-1.00691223,0.183105,-0.061035,-0.183105
534505416,-0.00369263,0.00874329,-1.00669861,0.305176,0.183105,-0.061035
539520333,-0.00285339,0.00735474,-1.00688171,0.305176,0.122070,0.000000
544508875,-0.00105286,0.00625610,-1.00689697,0.366211,0.122070,0.061035
549529291,0.00135803,0.00521851,-1.00627136,0.366211,0.061035,0.000000
554522458,0.00350952,0.00387573,-1.00578308,0.305176,0.000000,0.000000
559507625,0.00505066,0.00233459,-1.00614929,0.366211,0.061035,0.000000
564536791,0.00621033,0.00097656,-1.00634766,0.244141,-0.122070,-0.061035
569507500,0.00755310,0.00045776,-1.00585938,0.488281,0.122070,-0.061035
574533958,0.00914001,0.00096130,-1.00540161,0.488281,0.000000,0.000000
579570458,0.01000977,0.00144958,-1.00549316,0.366211,0.000000,0.000000
584505375,0.00942993,0.00120544,-1.00578308,0.488281,0.183105,0.061035
589513208,0.00805664,0.00054932,-1.00564575,0.366211,0.061035,-0.061035
594520916,0.00663757,0.00053406,-1.00491333,0.549316,0.000000,-0.061035
599503041,0.00509644,0.00152588,-1.00465393,0.366211,0.183105,-0.061035
604526583,0.00292969,0.00263977,-1.00529480,0.610352,0.061035,0.061035
609527666,0.00044250,0.00317383,-1.00598145,0.488281,0.000000,-0.122070
614556208,-0.00183105,0.00367737,-1.00596619,0.671387,0.000000,0.000000
619530000,-0.00370789,0.00480652,-1.00489807,0.427246,0.000000,0.000000
624513666,-0.00451660,0.00593567,-1.00459290,0.427246,0.122070,-0.061035
629539958,-0.00408936,0.00651550,-1.00682068,0.366211,0.061035,-0.122070
634554250,-0.00308228,0.00732422,-1.00915527,0.366211,0.122070,0.122070
639523500,-0.00218201,0.00836182,-1.00926208,0.305176,-0.061035,-0.122070
644525833,-0.00126648,0.00874329,-1.00733948,0.122070,0.000000,-0.122070
649542125,0.00028992,0.00816345,-1.00497437,0.244141,0.000000,-0.183105
654522625,0.00199890,0.00689697,-1.00437927,0.427246,-0.061035,0.000000
659530083,0.00321960,0.00518799,-1.00523376,0.305176,0.000000,0.061035
664551500,0.00454712,0.00308228,-1.00575256,0.366211,0.122070,-0.061035
669573375,0.00630188,0.00097656,-1.00653076,0.366211,-0.061035,-0.183105
674528166,0.00765991,-0.00105286,-1.00726318,0.244141,0.000000,0.000000
679545458,0.00801086,-0.00292969,-1.00660706,0.366211,0.000000,0.061035
684538000,0.00778198,-0.00410461,-1.00582886,0.366211,0.061035,0.000000
689531750,0.00767517,-0.00408936,-1.00598145,0.183105,0.061035,0.000000
694532708,0.00756836,-0.00273132,-1.00607300,0.305176,-0.061035,-0.122070
699521250,0.00668335,-0.00061035,-1.00602722,0.366211,0.061035,0.000000
704646875,0.00489807,0.00132751,-1.00610352,0.305176,0.061035,0.000000
709547541,0.00276184,0.00320435,-1.00631714,0.427246,0.061035,-0.061035
714536666,0.00073242,0.00543213,-1.00764465,0.366211,0.061035,-0.061035
719558666,-0.00109863,0.00721741,-1.00819397,0.488281,0.061035,0.000000
724573625,-0.00265503,0.00807190,-1.00602722,0.427246,0.061035,-0.061035
729559166,-0.00370789,0.00854492,-1.00462341,0.366211,0.122070,-0.061035
734593291,-0.00415039,0.00878906,-1.00581360,0.610352,0.000000,-0.061035
739591333,-0.00433350,0.00817871,-1.00659180,0.427246,0.183105,0.000000
744577583,-0.00410461,0.00663757,-1.00624084,0.427246,0.061035,-0.122070
749569458,-0.00282288,0.00457764,-1.00627136,0.366211,0.061035,-0.061035
754597708,-0.00093079,0.00241089,-1.00587463,0.427246,0.061035,-0.122070
759554750,0.00067139,0.00076294,-1.00506592,0.366211,0.061035,-0.061035
764567583,0.00219727,-0.00013733,-1.00471497,0.366211,-0.061035,0.000000
769592791,0.00402832,-0.00064087,-1.00468445,0.366211,0.061035,0.000000
774581041,0.00601196,-0.00099182,-1.00534058,0.366211,0.122070,-0.183105
779570541,0.00758362,-0.00128174,-1.00700378,0.305176,0.000000,-0.122070
784538875,0.00851440,-0.00149536,-1.00822449,0.488281,0.000000,-0.122070
789558458,0.00886536,-0.00173950,-1.00709534,0.366211,0.000000,-0.061035
794547875,0.00880432,-0.00195312,-1.00489807,0.366211,0.122070,-0.061035
799552666,0.00820923,-0.00151062,-1.00492859,0.427246,-0.061035,0.061035
804611125,0.00650024,-0.00039673,-1.00656128,0.305176,0.061035,-0.061035
809573916,0.00378418,0.00085449,-1.00633240,0.244141,0.061035,-0.122070
814573791,0.00102234,0.00225830,-1.00570679,0.305176,0.000000,0.000000
819547083,-0.00079346,0.00401306,-1.00726318,0.366211,0.000000,-0.061035
824581500,-0.00161743,0.00598145,-1.00807190,0.244141,0.183105,0.122070
829600875,-0.00227356,0.00782776,-1.00700378,0.244141,0.000000,0.000000
834544333,-0.00282288,0.00927734,-1.00671387,0.305176,0.061035,-0.061035
839829333,-0.00273132,0.01037598,-1.00717163,0.183105,0.000000,-0.122070
844702333,-0.00184631,0.01084900,-1.00717163,0.366211,-0.061035,-0.061035
849667583,-0.00091553,0.01029968,-1.00712585,0.427246,0.061035,-0.061035
854690958,-0.00016785,0.00903320,-1.00674438,0.427246,0.122070,0.000000
859681791,0.00090027,0.00706482,-1.00547791,0.305176,0.061035,0.000000
864656458,0.00256348,0.00424194,-1.00497437,0.488281,0.000000,0.000000
869603500,0.00436401,0.00106812,-1.00581360,0.244141,0.061035,-0.061035
874644166,0.00558472,-0.00183105,-1.00627136,0.244141,0.000000,-0.061035
879588416,0.00613403,-0.00421143,-1.00619507,0.244141,-0.061035,-0.183105
884647125,0.00669861,-0.00538635,-1.00614929,0.427246,0.122070,-0.061035
889581083,0.00721741,-0.00503540,-1.00601196,0.427246,0.061035,-0.061035
894550916,0.00689697,-0.00379944,-1.00579834,0.366211,0.000000,-0.061035
899558333,0.00602722,-0.00233459,-1.00567627,0.366211,0.061035,0.000000
904589500,0.00526428,-0.00062561,-1.00595093,0.427246,0.122070,-0.183105
909562958,0.00445557,0.00157166,-1.00650024,0.305176,0.122070,-0.122070
914554458,0.00334167,0.00379944,-1.00657654,0.244141,0.122070,-0.122070
919575041,0.00199890,0.00511169,-1.00610352,0.305176,0.061035,-0.061035
924571750,0.00036621,0.00566101,-1.00604248,0.305176,0.183105,-0.122070
929578958,-0.00120544,0.00627136,-1.00646973,0.305176,-0.061035,-0.061035
934563541,-0.00216675,0.00698853,-1.00650024,0.488281,0.000000,-0.061035
939590458,-0.00282288,0.00727844,-1.00595093,0.366211,0.000000,-0.183105
944593291,-0.00366211,0.00682068,-1.00538635,0.244141,0.000000,0.000000
949583541,-0.00384521,0.00605774,-1.00515747,0.366211,-0.122070,-0.122070
954578416,-0.00262451,0.00529480,-1.00561523,0.305176,0.000000,-0.061035
959562958,-0.00091553,0.00451660,-1.00617981,0.305176,0.000000,0.000000
964581458,0.00051880,0.00354004,-1.00581360,0.183105,0.000000,0.000000
969577541,0.00218201,0.00221252,-1.00564575,0.183105,-0.061035,0.061035
974575708,0.00392151,0.00071716,-1.00683594,0.366211,-0.061035,-0.122070
979592833,0.00517273,-0.00032043,-1.00753784,0.366211,0.061035,0.061035
984567833,0.00604248,-0.00064087,-1.00651550,0.244141,0.000000,-0.122070
989571541,0.00675964,-0.00054932,-1.00512695,0.305176,-0.122070,-0.061035
994585333,0.00733948,-0.00032043,-1.00453186,0.183105,0.061035,-0.122070
999595958,0.00727844,-0.00007629,-1.00485229,0.366211,-0.061035,0.000000
1004580041,0.00637817,0.00007629,-1.00558472,0.427246,-0.061035,-0.122070
1009586958,0.00503540,0.00057983,-1.00601196,0.427246,0.061035,-0.061035
1014580833,0.00358582,0.00193787,-1.00616455,0.366211,0.061035,0.000000
1019590625,0.00230408,0.00358582,-1.00616455,0.427246,-0.061035,0.000000
1024598750,0.00144958,0.00512695,-1.00581360,0.427246,0.061035,-0.183105
1029589083,0.00054932,0.00650024,-1.00556946,0.366211,0.000000,-0.061035
1034581791,-0.00057983,0.00753784,-1.00581360,0.366211,0.061035,-0.061035
1039591500,-0.00131226,0.00813293,-1.00650024,0.305176,0.122070,-0.061035
1044579375,-0.00134277,0.00816345,-1.00715637,0.427246,0.061035,-0.061035
1049588750,-0.00135803,0.00775146,-1.00712585,0.427246,0.183105,-0.122070
1054612083,-0.00157166,0.00692749,-1.00633240,0.305176,0.122070,-0.122070
1059579375,-0.00119019,0.00564575,-1.00578308,0.427246,0.061035,0.000000
1064601458,-0.00013733,0.00389099,-1.00621033,0.366211,0.061035,0.000000
1069598916,0.00077820,0.00198364,-1.00671387,0.244141,0.061035,-0.122070
1074707500,0.00132751,0.00009155,-1.00660706,0.244141,0.000000,-0.061035
1079641083,0.00187683,-0.00172424,-1.00630188,0.244141,0.000000,-0.061035
1084624833,0.00285339,-0.00294495,-1.00584412,0.366211,0.061035,0.000000
1089676250,0.00462341,-0.00296021,-1.00505066,0.366211,0.061035,-0.061035
1094634500,0.00653076,-0.00186157,-1.00434875,0.366211,0.000000,-0.122070
1099668791,0.00732422,-0.00062561,-1.00444031,0.305176,0.000000,-0.061035
1104644291,0.00709534,0.00024414,-1.00566101,0.366211,0.000000,-0.122070
1109617458,0.00674438,0.00128174,-1.00686646,0.427246,0.000000,0.000000
1114653916,0.00633240,0.00274658,-1.00686646,0.366211,0.122070,-0.122070
1119633250,0.00546265,0.00415039,-1.00633240,0.305176,0.000000,-0.122070
1124659541,0.00411987,0.00526428,-1.00616455,0.305176,0.122070,-0.061035
1129651625,0.00267029,0.00608826,-1.00604248,0.244141,0.000000,-0.122070
1134618625,0.00164795,0.00637817,-1.00563049,0.366211,0.000000,-0.122070
1139643125,0.00073242,0.00617981,-1.00564575,0.244141,0.061035,-0.061035
1144669625,-0.00057983,0.00602722,-1.00669861,0.305176,0.061035,0.061035
1149716291,-0.00196838,0.00588989,-1.00785828,0.183105,0.061035,-0.061035
1154643708,-0.00231934,0.00520325,-1.00794983,0.305176,0.061035,0.000000
1159627958,-0.00143433,0.00425720,-1.00694275,0.305176,0.061035,-0.061035
1164654791,-0.00042725,0.00373840,-1.00546265,0.183105,-0.122070,-0.122070
1169638916,0.00000000,0.00341797,-1.00518799,0.427246,0.122070,0.000000
1174676958,0.00077820,0.00262451,-1.00608826,0.244141,-0.122070,-0.183105
1179660750,0.00218201,0.00148010,-1.00636292,0.305176,-0.122070,-0.122070
1184655833,0.00325012,0.00030518,-1.00587463,0.366211,0.061035,-0.122070
1189650083,0.00376892,-0.00073242,-1.00607300,0.305176,-0.061035,-0.183105
1194672916,0.00402832,-0.00143433,-1.00669861,0.305176,-0.061035,-0.061035
1199639458,0.00413513,-0.00177002,-1.00621033,0.488281,0.122070,0.122070
1204680250,0.00375366,-0.00187683,-1.00559998,0.549316,0.061035,-0.061035
1209670416,0.00329590,-0.00146484,-1.00627136,0.427246,0.122070,0.000000
1214673416,0.00326538,-0.00030518,-1.00648499,0.244141,0.183105,-0.061035
1219661250,0.00360107,0.00148010,-1.00561523,0.366211,0.122070,0.061035
1224663125,0.00381470,0.00331116,-1.00521851,0.366211,0.122070,0.000000
1229680625,0.00344849,0.00471497,-1.00584412,0.244141,0.061035,-0.061035
1234645458,0.00277710,0.00587463,-1.00656128,0.366211,0.061035,-0.122070
1239650083,0.00196838,0.00686646,-1.00650024,0.427246,0.061035,-0.061035
1244700666,0.00103760,0.00735474,-1.00575256,0.183105,0.061035,-0.122070
1249697750,0.00021362,0.00709534,-1.00552368,0.366211,-0.061035,-0.122070
1254662291,-0.00018311,0.00614929,-1.00602722,0.488281,0.000000,0.061035
1259654916,-0.00001526,0.00494385,-1.00611877,0.183105,0.122070,0.061035
1264640791,0.00010681,0.00382996,-1.00558472,0.305176,0.061035,0.000000
1269660583,-0.00012207,0.00289917,-1.00584412,0.305176,-0.061035,-0.061035
1274739875,0.00004578,0.00193787,-1.00726318,0.061035,-0.061035,0.000000
1279683708,0.00088501,0.00115967,-1.00807190,0.488281,0.000000,-0.122070
1284717541,0.00155640,0.00083923,-1.00726318,0.427246,0.122070,-0.061035
1289687208,0.00196838,0.00074768,-1.00633240,0.427246,0.122070,0.061035
1294661666,0.00265503,0.00091553,-1.00662231,0.427246,0.183105,0.000000
1299675916,0.00337219,0.00128174,-1.00715637,0.244141,0.122070,-0.122070
1304779708,0.00379944,0.00166321,-1.00656128,0.305176,0.122070,0.000000
1309673666,0.00384521,0.00210571,-1.00520325,0.366211,0.000000,0.000000
1314688083,0.00354004,0.00247192,-1.00440979,0.427246,0.061035,-0.122070
1319665791,0.00292969,0.00254822,-1.00498962,0.366211,0.061035,-0.061035
1324675083,0.00230408,0.00247192,-1.00643921,0.305176,-0.061035,-0.122070
1329680666,0.00224304,0.00259399,-1.00703430,0.305176,0.122070,-0.122070
1334667666,0.00238037,0.00314331,-1.00631714,0.305176,0.000000,-0.061035
1339694000,0.00184631,0.00373840,-1.00636292,0.305176,0.122070,-0.061035
1344673250,0.00073242,0.00379944,-1.00732422,0.244141,0.000000,-0.122070
1349696791,0.00007629,0.00357056,-1.00711060,0.366211,0.122070,0.000000
1354663166,0.00054932,0.00341797,-1.00579834,0.305176,0.061035,-0.061035
1359694500,0.00148010,0.00302124,-1.00515747,0.244141,0.061035,-0.122070
1364675333,0.00183105,0.00245667,-1.00547791,0.366211,0.122070,-0.061035
1369721208,0.00178528,0.00222778,-1.00578308,0.244141,0.061035,-0.122070
1374668416,0.00170898,0.00221252,-1.00546265,0.366211,0.000000,-0.061035
1379704458,0.00166321,0.00205994,-1.00521851,0.366211,0.000000,0.122070
1384710041,0.00184631,0.00177002,-1.00585938,0.244141,0.061035,-0.061035
1389706833,0.00212097,0.00134277,-1.00682068,0.366211,0.000000,-0.061035
1394713291,0.00227356,0.00115967,-1.00675964,0.305176,0.061035,-0.061035
1399724500,0.00263977,0.00163269,-1.00569153,0.305176,0.122070,-0.122070
1404726833,0.00318909,0.00228882,-1.00569153,0.244141,0.122070,-0.061035
1409766833,0.00346375,0.00251770,-1.00700378,0.366211,0.061035,0.000000
1414708291,0.00331116,0.00253296,-1.00720215,0.366211,0.000000,-0.122070
1419710291,0.00323486,0.00314331,-1.00605774,0.366211,0.122070,-0.061035
1424721666,0.00357056,0.00447083,-1.00544739,0.183105,0.000000,-0.061035
1429703166,0.00395203,0.00561523,-1.00602722,0.366211,-0.061035,-0.305176
1434704041,0.00396729,0.00616455,-1.00657654,0.305176,0.061035,-0.061035
1439722833,0.00355530,0.00617981,-1.00633240,0.244141,0.061035,-0.061035
1444724750,0.00286865,0.00607300,-1.00588989,0.366211,0.000000,0.000000
1449720041,0.00205994,0.00599670,-1.00651550,0.244141,0.061035,-0.122070
1454722708,0.00131226,0.00511169,-1.00744629,0.366211,-0.061035,-0.183105
1459718791,0.00106812,0.00311279,-1.00675964,0.488281,0.000000,0.000000
1464710000,0.00109863,0.00128174,-1.00520325,0.610352,-0.061035,0.000000
1469708208,0.00086975,0.00056458,-1.00474548,0.427246,0.000000,0.061035
1474731750,0.00053406,0.00048828,-1.00538635,0.305176,0.122070,0.061035
1479719000,0.00088501,0.00048828,-1.00593567,0.183105,0.122070,-0.122070
1484730708,0.00184631,0.00050354,-1.00625610,0.183105,0.000000,-0.122070
1489728625,0.00234985,0.00074768,-1.00747681,0.305176,0.061035,0.000000
1494729500,0.00234985,0.00132751,-1.00840759,0.305176,0.061035,-0.061035
1499712541,0.00236511,0.00186157,-1.00650024,0.244141,0.183105,-0.061035
1504758458,0.00259399,0.00204468,-1.00363159,0.305176,0.061035,-0.061035
1509756916,0.00303650,0.00202942,-1.00288391,0.305176,0.000000,-0.061035
1514793958,0.00335693,0.00231934,-1.00495911,0.305176,0.061035,-0.122070
1519807125,0.00335693,0.00328064,-1.00828552,0.366211,0.000000,-0.061035
1524758458,0.00332642,0.00439453,-1.00950623,0.427246,0.000000,-0.122070
1529715250,0.00321960,0.00476074,-1.00682068,0.427246,0.000000,-0.061035
1534707375,0.00274658,0.00415039,-1.00358582,0.549316,0.122070,0.061035
1539740875,0.00210571,0.00355530,-1.00424194,0.427246,0.061035,0.061035
1544713375,0.00164795,0.00370789,-1.00711060,0.366211,0.122070,0.000000
1549727708,0.00135803,0.00402832,-1.00762939,0.122070,0.061035,-0.061035
1554719833,0.00123596,0.00382996,-1.00605774,0.244141,0.061035,-0.122070
1559730833,0.00132751,0.00311279,-1.00546265,0.244141,0.000000,0.000000
1564726541,0.00155640,0.00224304,-1.00634766,0.305176,0.061035,-0.183105
1569738041,0.00192261,0.00115967,-1.00726318,0.305176,0.061035,-0.122070
1574755208,0.00205994,-0.00016785,-1.00750732,0.061035,0.183105,0.000000
1579736833,0.00187683,-0.00088501,-1.00723267,0.366211,0.122070,-0.061035
1584737666,0.00167847,-0.00028992,-1.00662231,0.366211,-0.122070,-0.183105
1589722208,0.00157166,0.00054932,-1.00584412,0.366211,0.000000,-0.183105
1594741125,0.00167847,0.00065613,-1.00523376,0.366211,0.183105,0.122070
1599728750,0.00172424,0.00065613,-1.00550842,0.366211,0.122070,-0.061035
1604749666,0.00175476,0.00148010,-1.00619507,0.427246,0.183105,-0.061035
1609736041,0.00219727,0.00289917,-1.00592041,0.366211,0.061035,-0.061035
1614729916,0.00250244,0.00410461,-1.00520325,0.183105,0.061035,-0.183105
1619819791,0.00213623,0.00489807,-1.00541687,0.244141,0.122070,-0.122070
1624737250,0.00180054,0.00538635,-1.00622559,0.305176,0.061035,-0.061035
1629737541,0.00245667,0.00549316,-1.00679016,0.427246,0.122070,-0.061035
1634728333,0.00373840,0.00531006,-1.00668335,0.366211,0.061035,-0.122070
1639779416,0.00436401,0.00486755,-1.00593567,0.366211,0.122070,-0.122070
1644742916,0.00392151,0.00445557,-1.00543213,0.488281,0.000000,-0.061035
1649773333,0.00335693,0.00424194,-1.00602722,0.366211,0.122070,-0.122070
1654751666,0.00311279,0.00378418,-1.00660706,0.366211,-0.061035,-0.122070
1659739125,0.00299072,0.00274658,-1.00611877,0.366211,0.061035,-0.122070
1664759041,0.00282288,0.00163269,-1.00541687,0.366211,-0.061035,0.061035
1669774083,0.00256348,0.00111389,-1.00561523,0.488281,-0.061035,-0.122070
1674780541,0.00218201,0.00111389,-1.00617981,0.549316,0.000000,-0.061035
1679779000,0.00155640,0.00126648,-1.00610352,0.427246,0.061035,-0.061035
1684756250,0.00114441,0.00135803,-1.00582886,0.305176,0.122070,0.000000
1689782375,0.00117493,0.00115967,-1.00621033,0.183105,0.000000,-0.061035
1694758250,0.00099182,0.00073242,-1.00671387,0.244141,0.000000,-0.122070
1699757375,0.00035095,0.00051880,-1.00648499,0.305176,-0.061035,0.000000
1704766083,-0.00001526,0.00094604,-1.00582886,0.366211,0.000000,0.000000
1709748416,0.00009155,0.00184631,-1.00590515,0.366211,0.122070,-0.061035
1714750416,0.00012207,0.00253296,-1.00656128,0.244141,0.122070,-0.183105
1719760541,0.00027466,0.00292969,-1.00675964,0.183105,0.000000,0.000000
1724808833,0.00102234,0.00326538,-1.00624084,0.183105,0.061035,-0.061035
1729745458,0.00183105,0.00344849,-1.00584412,0.244141,0.061035,-0.183105
1734747083,0.00233459,0.00344849,-1.00613403,0.183105,0.000000,-0.122070
1739812458,0.00256348,0.00341797,-1.00599670,0.305176,0.122070,0.000000
1744771958,0.00256348,0.00337219,-1.00494385,0.366211,0.061035,-0.061035
1749766875,0.00259399,0.00317383,-1.00453186,0.305176,0.000000,-0.183105
1754787625,0.00270081,0.00268555,-1.00579834,0.061035,0.000000,-0.122070
1759750916,0.00260925,0.00212097,-1.00743103,0.305176,-0.061035,0.000000
1764790708,0.00248718,0.00177002,-1.00769043,0.183105,-0.061035,-0.122070
1769771958,0.00268555,0.00157166,-1.00688171,0.244141,0.061035,0.061035
1774879125,0.00305176,0.00173950,-1.00654602,0.244141,0.061035,0.000000
1779791541,0.00286865,0.00262451,-1.00694275,0.305176,0.061035,-0.061035
1784792416,0.00210571,0.00354004,-1.00704956,0.305176,0.122070,0.000000
1789830541,0.00135803,0.00387573,-1.00663757,0.366211,0.000000,0.000000
1794813291,0.00094604,0.00375366,-1.00622559,0.366211,-0.122070,-0.061035
1799797541,0.00082397,0.00321960,-1.00598145,0.244141,0.061035,0.000000
1804833708,0.00109863,0.00280762,-1.00602722,0.305176,0.061035,-0.122070
1809789500,0.00146484,0.00283813,-1.00621033,0.244141,0.183105,0.000000
1814777666,0.00172424,0.00296021,-1.00572205,0.366211,0.122070,-0.061035
1819804166,0.00192261,0.00300598,-1.00489807,0.244141,0.122070,-0.061035
1824787291,0.00218201,0.00323486,-1.00508118,0.305176,0.000000,0.000000
1829827875,0.00276184,0.00360107,-1.00616455,0.366211,0.000000,0.000000
1834781541,0.00346375,0.00360107,-1.00668335,0.244141,0.000000,-0.183105
1839808375,0.00387573,0.00308228,-1.00640869,0.366211,0.061035,0.061035
1844806875,0.00382996,0.00248718,-1.00621033,0.305176,0.061035,-0.061035
1849805333,0.00376892,0.00213623,-1.00636292,0.183105,0.061035,-0.122070
1854802916,0.00402832,0.00204468,-1.00677490,0.366211,-0.061035,-0.183105
1859792416,0.00436401,0.00233459,-1.00709534,0.305176,0.000000,0.000000
1864794541,0.00413513,0.00273132,-1.00691223,0.366211,0.000000,0.000000
1869795125,0.00314331,0.00263977,-1.00622559,0.244141,0.122070,-0.061035
1874806208,0.00195312,0.00181580,-1.00541687,0.305176,0.000000,-0.122070
1879788625,0.00132751,0.00091553,-1.00505066,0.244141,0.000000,0.000000
1884815958,0.00119019,0.00082397,-1.00546265,0.183105,-0.061035,-0.061035
1889810833,0.00068665,0.00140381,-1.00605774,0.244141,0.000000,0.061035
1894797708,-0.00025940,0.00198364,-1.00631714,0.183105,-0.061035,-0.061035
1899793458,-0.00071716,0.00245667,-1.00665283,0.305176,0.122070,0.061035
1904801625,-0.00010681,0.00309753,-1.00682068,0.427246,0.061035,0.000000
1909819458,0.00096130,0.00389099,-1.00642395,0.244141,-0.122070,-0.122070
1914821875,0.00160217,0.00431824,-1.00582886,0.244141,0.000000,-0.183105
1919816208,0.00157166,0.00402832,-1.00575256,0.244141,0.000000,-0.122070
1924809375,0.00155640,0.00366211,-1.00614929,0.427246,0.122070,-0.061035
1929823041,0.00192261,0.00384521,-1.00628662,0.244141,0.061035,-0.061035
1934854833,0.00199890,0.00387573,-1.00576782,0.488281,0.122070,-0.061035
1939815250,0.00196838,0.00337219,-1.00529480,0.366211,0.061035,-0.122070
1944805625,0.00282288,0.00303650,-1.00588989,0.305176,0.061035,-0.183105
1949935416,0.00422668,0.00318909,-1.00685120,0.305176,0.000000,-0.183105
1954801541,0.00506592,0.00331116,-1.00657654,0.183105,-0.122070,-0.061035
1959820458,0.00488281,0.00288391,-1.00578308,0.244141,0.061035,-0.122070
1964799583,0.00421143,0.00205994,-1.00587463,0.366211,0.061035,0.000000
1969833083,0.00381470,0.00144958,-1.00646973,0.244141,-0.061035,0.000000
1974837541,0.00379944,0.00119019,-1.00695801,0.488281,0.122070,-0.061035
1979808166,0.00366211,0.00114441,-1.00682068,0.305176,0.122070,0.000000
1984821458,0.00294495,0.00154114,-1.00608826,0.305176,-0.061035,0.000000
1989815750,0.00189209,0.00230408,-1.00611877,0.244141,0.000000,0.000000
1994802375,0.00097656,0.00260925,-1.00712585,0.305176,0.000000,0.000000
1999809916,0.00021362,0.00242615,-1.00726318,0.305176,0.000000,0.000000
2004828500,-0.00048828,0.00267029,-1.00602722,0.244141,0.122070,0.000000
2009822625,-0.00064087,0.00346375,-1.00505066,0.366211,0.000000,-0.061035
2014841916,-0.00016785,0.00415039,-1.00527954,0.305176,-0.061035,-0.183105
2019818500,0.00044250,0.00413513,-1.00633240,0.244141,0.122070,0.000000
2024808625,0.00085449,0.00366211,-1.00682068,0.244141,0.061035,-0.122070
2029817083,0.00102234,0.00350952,-1.00599670,0.366211,0.122070,0.000000
2034807458,0.00123596,0.00386047,-1.00543213,0.366211,0.000000,-0.061035
2039863416,0.00143433,0.00399780,-1.00575256,0.305176,0.061035,0.000000
2044808250,0.00189209,0.00367737,-1.00541687,0.427246,0.183105,0.000000
2049816458,0.00300598,0.00355530,-1.00463867,0.183105,0.122070,-0.061035
2054837583,0.00422668,0.00399780,-1.00474548,0.244141,0.061035,-0.061035
2059819583,0.00459290,0.00444031,-1.00576782,0.366211,0.122070,-0.122070
2064813583,0.00402832,0.00399780,-1.00704956,0.305176,0.061035,-0.061035
2069826250,0.00373840,0.00296021,-1.00717163,0.244141,0.000000,-0.061035
2074827041,0.00413513,0.00205994,-1.00588989,0.305176,0.122070,-0.122070
2079856250,0.00404358,0.00152588,-1.00555420,0.305176,0.061035,-0.061035
2084807916,0.00314331,0.00148010,-1.00660706,0.488281,0.122070,-0.061035
2089894333,0.00222778,0.00184631,-1.00700378,0.366211,0.000000,0.000000
2094828916,0.00175476,0.00245667,-1.00653076,0.366211,-0.061035,-0.122070
2099808250,0.00158691,0.00308228,-1.00657654,0.183105,0.061035,0.000000
2104866625,0.00169373,0.00341797,-1.00703430,0.427246,0.000000,-0.061035
2109830375,0.00175476,0.00334167,-1.00701904,0.244141,0.000000,-0.122070
2114823125,0.00143433,0.00309753,-1.00613403,0.305176,0.061035,-0.061035
2119831125,0.00082397,0.00311279,-1.00488281,0.183105,0.122070,0.000000
2124819541,0.00021362,0.00311279,-1.00508118,0.305176,0.183105,0.000000
2129827666,-0.00015259,0.00289917,-1.00660706,0.061035,0.122070,-0.061035
2134822291,0.00021362,0.00277710,-1.00708008,0.305176,0.122070,-0.122070
2139845333,0.00109863,0.00257874,-1.00645447,0.305176,0.061035,0.000000
2144817666,0.00172424,0.00222778,-1.00605774,0.366211,0.000000,-0.061035
2149837250,0.00233459,0.00215149,-1.00578308,0.366211,0.122070,-0.061035
2154858041,0.00305176,0.00224304,-1.00553894,0.366211,0.061035,-0.061035
2159834000,0.00326538,0.00228882,-1.00602722,0.305176,0.061035,-0.305176
2164811333,0.00317383,0.00236511,-1.00694275,0.244141,0.061035,0.000000
2169881500,0.00314331,0.00244141,-1.00756836,0.305176,0.122070,-0.061035
2174874583,0.00288391,0.00234985,-1.00727844,0.427246,0.000000,-0.061035
2179843750,0.00250244,0.00215149,-1.00625610,0.305176,0.000000,-0.122070
2184866375,0.00238037,0.00230408,-1.00582886,0.305176,0.000000,-0.061035
2189839166,0.00262451,0.00291443,-1.00642395,0.305176,0.000000,0.061035
2194890083,0.00306702,0.00341797,-1.00653076,0.305176,0.122070,0.000000
2199799125,0.00328064,0.00350952,-1.00556946,0.305176,0.061035,-0.061035
2204872166,0.00292969,0.00338745,-1.00508118,0.244141,-0.061035,-0.305176
2209855583,0.00234985,0.00312805,-1.00621033,0.366211,0.183105,-0.061035
2214844250,0.00195312,0.00291443,-1.00741577,0.366211,0.061035,0.000000
2219844416,0.00184631,0.00268555,-1.00701904,0.427246,0.122070,-0.061035
2224851875,0.00167847,0.00231934,-1.00592041,0.244141,0.000000,-0.122070
2229860208,0.00140381,0.00233459,-1.00573730,0.244141,0.061035,-0.122070
2234834416,0.00129700,0.00273132,-1.00639343,0.366211,0.000000,-0.122070
2239839750,0.00122070,0.00311279,-1.00697327,0.244141,0.061035,0.000000
2244858625,0.00112915,0.00326538,-1.00692749,0.244141,0.061035,-0.122070
2249828791,0.00126648,0.00300598,-1.00671387,0.305176,-0.061035,-0.061035
2254854458,0.00154114,0.00245667,-1.00692749,0.305176,0.122070,-0.061035
2259845750,0.00181580,0.00196838,-1.00709534,0.305176,0.000000,0.000000
2264804958,0.00196838,0.00164795,-1.00656128,0.366211,-0.061035,-0.122070
2269858333,0.00201416,0.00148010,-1.00566101,0.183105,-0.061035,-0.061035
2274901625,0.00219727,0.00141907,-1.00566101,0.244141,0.061035,0.061035
2279859708,0.00263977,0.00151062,-1.00657654,0.366211,0.000000,-0.122070
2284819416,0.00303650,0.00184631,-1.00668335,0.427246,0.000000,0.061035
2289842708,0.00303650,0.00218201,-1.00576782,0.305176,0.061035,0.000000
2294910583,0.00248718,0.00248718,-1.00576782,0.366211,0.061035,0.000000
2299834166,0.00169373,0.00286865,-1.00694275,0.183105,-0.061035,0.000000
2304850500,0.00114441,0.00323486,-1.00732422,0.366211,0.000000,-0.061035
2309868625,0.00099182,0.00343323,-1.00621033,0.427246,0.061035,-0.061035
2314841833,0.00134277,0.00344849,-1.00518799,0.183105,0.061035,-0.061035
2319838375,0.00190735,0.00343323,-1.00556946,0.427246,0.000000,-0.061035
2324857791,0.00228882,0.00360107,-1.00659180,0.244141,-0.122070,-0.122070
2329831625,0.00196838,0.00401306,-1.00657654,0.366211,0.122070,-0.061035
2334831916,0.00099182,0.00404358,-1.00575256,0.244141,0.061035,0.000000
2339825875,0.00019836,0.00325012,-1.00581360,0.305176,0.061035,0.000000
2345419875,0.00050354,0.00239563,-1.00698853,0.122070,0.000000,-0.122070
2349853625,0.00149536,0.00212097,-1.00775146,0.488281,0.061035,0.000000
2354854291,0.00225830,0.00195312,-1.00686646,0.244141,0.122070,0.061035
2360422208,0.00245667,0.00170898,-1.00540161,0.305176,0.061035,-0.122070
2364847958,0.00241089,0.00172424,-1.00508118,0.305176,0.122070,-0.183105
2369847875,0.00262451,0.00177002,-1.00555420,0.305176,0.061035,0.000000
2374838458,0.00292969,0.00181580,-1.00546265,0.305176,0.122070,-0.061035
2379858208,0.00317383,0.00233459,-1.00518799,0.061035,-0.061035,-0.122070
2385334500,0.00323486,0.00312805,-1.00582886,0.061035,0.061035,-0.122070
2390361541,0.00305176,0.00321960,-1.00683594,0.244141,0.122070,-0.122070
2395487833,0.00289917,0.00263977,-1.00675964,0.366211,0.061035,-0.122070
2400402125,0.00282288,0.00228882,-1.00582886,0.305176,0.122070,-0.122070
2405370750,0.00250244,0.00213623,-1.00569153,0.427246,-0.061035,-0.122070
2410426916,0.00163269,0.00201416,-1.00654602,0.366211,0.122070,-0.122070
2415409541,0.00086975,0.00205994,-1.00665283,0.366211,0.183105,-0.183105
2419850875,0.00114441,0.00230408,-1.00553894,0.488281,-0.061035,-0.122070
2425415625,0.00193787,0.00236511,-1.00494385,0.366211,-0.061035,-0.183105
2430405833,0.00218201,0.00215149,-1.00575256,0.183105,0.061035,0.000000
2435356583,0.00173950,0.00202942,-1.00653076,0.305176,0.122070,0.061035
2440426666,0.00155640,0.00236511,-1.00628662,0.244141,0.000000,-0.061035
2445423333,0.00202942,0.00282288,-1.00534058,0.244141,0.000000,-0.061035
2450412916,0.00247192,0.00300598,-1.00485229,0.305176,0.000000,-0.061035
2455427333,0.00251770,0.00302124,-1.00523376,0.305176,0.000000,-0.061035
2460424166,0.00221252,0.00308228,-1.00578308,0.366211,0.122070,-0.061035
2465421666,0.00170898,0.00305176,-1.00573730,0.488281,0.183105,0.000000
2470387583,0.00149536,0.00294495,-1.00578308,0.122070,0.000000,-0.061035
2475429416,0.00170898,0.00289917,-1.00643921,0.244141,-0.061035,0.000000
2480568291,0.00195312,0.00302124,-1.00694275,0.183105,-0.122070,-0.061035
2485403000,0.00202942,0.00321960,-1.00656128,0.061035,-0.061035,-0.183105
2490385708,0.00224304,0.00288391,-1.00563049,0.061035,0.061035,-0.061035
2495363833,0.00254822,0.00204468,-1.00520325,0.366211,0.000000,0.000000
2500434041,0.00259399,0.00160217,-1.00564575,0.244141,0.061035,-0.061035
2505435166,0.00247192,0.00178528,-1.00572205,0.366211,0.000000,-0.183105
2510392125,0.00241089,0.00230408,-1.00527954,0.244141,0.061035,0.000000
2515375833,0.00236511,0.00300598,-1.00541687,0.366211,-0.061035,-0.183105
2520393208,0.00225830,0.00331116,-1.00607300,0.305176,-0.061035,-0.061035
2525368375,0.00222778,0.00297546,-1.00637817,0.305176,0.061035,-0.183105
2530387416,0.00199890,0.00242615,-1.00608826,0.305176,0.000000,-0.061035
2535347083,0.00172424,0.00205994,-1.00578308,0.427246,-0.061035,-0.061035
2540407541,0.00201416,0.00222778,-1.00590515,0.305176,0.122070,0.061035
2545361458,0.00254822,0.00286865,-1.00602722,0.305176,0.000000,-0.122070
2550367125,0.00247192,0.00305176,-1.00576782,0.366211,-0.061035,-0.061035
2555365250,0.00195312,0.00280762,-1.00527954,0.427246,0.183105,-0.061035
2560357541,0.00167847,0.00282288,-1.00514221,0.244141,0.000000,0.000000
2565345291,0.00170898,0.00297546,-1.00546265,0.244141,0.183105,-0.122070
2570371041,0.00155640,0.00296021,-1.00587463,0.366211,-0.061035,-0.061035
2575418958,0.00132751,0.00283813,-1.00599670,0.244141,0.061035,0.000000
2580509541,0.00155640,0.00263977,-1.00595093,0.305176,0.061035,-0.122070
2585380250,0.00213623,0.00245667,-1.00607300,0.366211,0.183105,-0.122070
2590375208,0.00244141,0.00259399,-1.00621033,0.427246,0.183105,0.000000
2595331708,0.00234985,0.00303650,-1.00608826,0.305176,0.122070,-0.061035
2600342125,0.00231934,0.00317383,-1.00590515,0.183105,0.061035,-0.061035
2605439083,0.00257874,0.00271606,-1.00592041,0.244141,0.000000,-0.061035
2610400833,0.00279236,0.00224304,-1.00628662,0.244141,0.061035,-0.122070
2615350208,0.00253296,0.00231934,-1.00674438,0.244141,-0.061035,-0.061035
2620373208,0.00178528,0.00271606,-1.00691223,0.122070,0.122070,-0.183105
2625353541,0.00085449,0.00277710,-1.00668335,0.427246,0.061035,-0.061035
2630374958,0.00048828,0.00238037,-1.00616455,0.305176,0.000000,-0.122070
2635359916,0.00123596,0.00219727,-1.00556946,0.305176,-0.061035,-0.122070
2640373416,0.00215149,0.00233459,-1.00555420,0.305176,0.122070,-0.061035
2645325291,0.00215149,0.00259399,-1.00590515,0.183105,0.061035,-0.183105
2650348583,0.00164795,0.00283813,-1.00584412,0.366211,0.061035,-0.122070
2655347375,0.00144958,0.00296021,-1.00556946,0.183105,-0.061035,-0.122070
2660328500,0.00160217,0.00292969,-1.00550842,0.305176,0.061035,0.000000
2665341666,0.00181580,0.00277710,-1.00563049,0.305176,0.000000,0.000000
2670356666,0.00218201,0.00242615,-1.00567627,0.427246,0.061035,-0.122070
2675357083,0.00241089,0.00196838,-1.00509644,0.366211,0.061035,-0.061035
2680478791,0.00205994,0.00148010,-1.00482178,0.427246,0.061035,0.000000
2685362083,0.00138855,0.00132751,-1.00604248,0.244141,0.000000,-0.061035
2690369833,0.00119019,0.00154114,-1.00729370,0.183105,0.183105,-0.061035
2695397333,0.00193787,0.00164795,-1.00694275,0.244141,0.061035,-0.122070
2700398875,0.00314331,0.00180054,-1.00598145,0.427246,0.061035,-0.122070
2705371583,0.00379944,0.00219727,-1.00563049,0.305176,0.244141,-0.122070
2710403333,0.00352478,0.00242615,-1.00558472,0.305176,0.000000,0.000000
2715362750,0.00300598,0.00244141,-1.00546265,0.366211,0.122070,-0.061035
2720388750,0.00282288,0.00276184,-1.00534058,0.244141,0.000000,-0.122070
2725348125,0.00302124,0.00326538,-1.00535583,0.366211,0.122070,-0.122070
2730364833,0.00329590,0.00340271,-1.00575256,0.427246,0.061035,0.061035
2735370083,0.00329590,0.00314331,-1.00636292,0.305176,0.122070,0.061035
2740362333,0.00276184,0.00292969,-1.00624084,0.244141,0.061035,0.000000
2745367875,0.00175476,0.00300598,-1.00553894,0.244141,0.000000,-0.122070
2750329958,0.00085449,0.00311279,-1.00555420,0.183105,0.000000,0.061035
2755373458,0.00042725,0.00318909,-1.00625610,0.305176,-0.061035,0.000000
2760458791,0.00045776,0.00337219,-1.00611877,0.366211,-0.061035,-0.183105
2765389500,0.00082397,0.00372314,-1.00491333,0.427246,0.000000,-0.122070
2770316583,0.00128174,0.00418091,-1.00433350,0.244141,0.122070,-0.122070
2775343541,0.00143433,0.00424194,-1.00503540,0.427246,0.061035,-0.122070
2780434458,0.00151062,0.00367737,-1.00553894,0.366211,0.061035,0.000000
2785317083,0.00193787,0.00286865,-1.00494385,0.427246,0.061035,-0.122070
2790373208,0.00239563,0.00247192,-1.00465393,0.183105,-0.122070,-0.122070
2795387333,0.00270081,0.00254822,-1.00592041,0.366211,-0.061035,-0.183105
2800352208,0.00311279,0.00216675,-1.00738525,0.366211,0.000000,0.000000
2805374500,0.00358582,0.00115967,-1.00701904,0.427246,0.061035,0.000000
2810415125,0.00367737,0.00090027,-1.00592041,0.305176,0.061035,-0.061035
2815365416,0.00347900,0.00173950,-1.00614929,0.305176,0.122070,0.000000
2820358041,0.00317383,0.00260925,-1.00701904,0.427246,0.000000,-0.061035
2825291541,0.00273132,0.00259399,-1.00648499,0.366211,0.122070,-0.061035
2830338041,0.00241089,0.00218201,-1.00515747,0.305176,0.061035,-0.122070
2835318083,0.00244141,0.00221252,-1.00527954,0.488281,0.061035,-0.061035
2840311541,0.00259399,0.00270081,-1.00663757,0.366211,0.183105,-0.122070
2845320541,0.00253296,0.00317383,-1.00700378,0.183105,0.061035,-0.061035
2850357541,0.00218201,0.00363159,-1.00567627,0.244141,0.122070,-0.061035
2855351208,0.00161743,0.00396729,-1.00474548,0.305176,0.061035,-0.061035
2860341458,0.00102234,0.00416565,-1.00572205,0.305176,0.061035,0.000000
2865408625,0.00054932,0.00411987,-1.00692749,0.366211,0.122070,-0.183105
2870347958,0.00045776,0.00393677,-1.00656128,0.305176,-0.061035,-0.183105
2875350416,0.00064087,0.00373840,-1.00563049,0.305176,0.061035,-0.061035
2880412625,0.00094604,0.00334167,-1.00585938,0.305176,0.122070,0.000000
2885296208,0.00173950,0.00282288,-1.00674438,0.488281,0.122070,-0.122070
2890307875,0.00241089,0.00245667,-1.00654602,0.305176,-0.061035,-0.183105
2895315375,0.00233459,0.00227356,-1.00517273,0.244141,-0.061035,-0.061035
2900361625,0.00207520,0.00207520,-1.00480652,0.366211,0.000000,-0.061035
2905311875,0.00221252,0.00196838,-1.00622559,0.305176,-0.061035,-0.061035
2910357791,0.00256348,0.00221252,-1.00732422,0.244141,0.061035,0.061035
2915375375,0.00288391,0.00276184,-1.00651550,0.305176,-0.061035,-0.122070
2920400666,0.00311279,0.00305176,-1.00521851,0.305176,0.122070,-0.122070
2925346000,0.00335693,0.00268555,-1.00488281,0.244141,-0.061035,0.000000
2930318541,0.00372314,0.00187683,-1.00543213,0.244141,0.000000,-0.061035
2935323458,0.00407410,0.00100708,-1.00576782,0.366211,0.061035,-0.122070
2940386250,0.00375366,0.00068665,-1.00555420,0.183105,0.061035,-0.122070
2945359583,0.00279236,0.00115967,-1.00592041,0.305176,0.000000,0.000000
2950350583,0.00212097,0.00189209,-1.00675964,0.366211,0.000000,-0.061035
2955313166,0.00219727,0.00250244,-1.00654602,0.366211,0.122070,-0.122070
2960365375,0.00219727,0.00300598,-1.00535583,0.305176,0.122070,-0.122070
2965377208,0.00164795,0.00321960,-1.00505066,0.305176,0.061035,-0.061035
2970426000,0.00096130,0.00338745,-1.00614929,0.244141,0.061035,-0.061035
2975368875,0.00050354,0.00355530,-1.00677490,0.244141,0.000000,-0.061035
2980519708,0.00035095,0.00354004,-1.00595093,0.244141,0.000000,-0.122070
2985317250,0.00044250,0.00367737,-1.00518799,0.366211,0.122070,0.000000
2990386958,0.00068665,0.00381470,-1.00578308,0.366211,0.061035,0.000000
2995350416,0.00093079,0.00329590,-1.00683594,0.366211,0.122070,-0.061035
3000375958,0.00102234,0.00239563,-1.00657654,0.122070,0.000000,-0.122070
3005331958,0.00126648,0.00172424,-1.00555420,0.366211,0.000000,-0.061035
3010337833,0.00210571,0.00143433,-1.00566101,0.305176,0.000000,0.000000
3015336500,0.00312805,0.00126648,-1.00672913,0.366211,-0.061035,-0.061035
3020371916,0.00347900,0.00105286,-1.00726318,0.366211,-0.061035,-0.061035
3025298583,0.00291443,0.00096130,-1.00685120,0.305176,0.183105,-0.061035
3030321666,0.00233459,0.00114441,-1.00636292,0.244141,0.061035,0.000000
3035317541,0.00271606,0.00146484,-1.00634766,0.122070,0.122070,-0.061035
3040375916,0.00329590,0.00189209,-1.00643921,0.305176,0.000000,-0.122070
3045371625,0.00317383,0.00253296,-1.00584412,0.366211,0.061035,0.122070
3050373583,0.00274658,0.00320435,-1.00486755,0.427246,0.000000,-0.061035
3055405583,0.00234985,0.00369263,-1.00474548,0.366211,0.061035,-0.122070
3060373916,0.00201416,0.00390625,-1.00559998,0.305176,0.122070,-0.122070
3065351708,0.00177002,0.00396729,-1.00619507,0.305176,0.061035,-0.061035
3070398750,0.00138855,0.00410461,-1.00599670,0.183105,0.000000,-0.122070
3075443833,0.00096130,0.00430298,-1.00579834,0.305176,0.000000,-0.061035
3080526083,0.00083923,0.00427246,-1.00605774,0.244141,0.122070,0.000000
3085342458,0.00125122,0.00379944,-1.00619507,0.305176,0.061035,0.000000
3090367833,0.00177002,0.00292969,-1.00567627,0.305176,0.122070,-0.061035
3095392166,0.00178528,0.00230408,-1.00512695,0.244141,0.061035,-0.122070
3100324750,0.00152588,0.00244141,-1.00592041,0.305176,0.061035,-0.183105
3105360000,0.00140381,0.00265503,-1.00738525,0.366211,0.061035,0.000000
3110434791,0.00148010,0.00221252,-1.00720215,0.305176,0.061035,-0.061035
3115359458,0.00187683,0.00164795,-1.00558472,0.305176,0.183105,-0.122070
3120365166,0.00247192,0.00173950,-1.00494385,0.183105,0.061035,-0.183105
3125402750,0.00259399,0.00222778,-1.00581360,0.366211,0.122070,-0.122070
3130387291,0.00207520,0.00244141,-1.00631714,0.488281,0.061035,0.000000
3135338083,0.00152588,0.00224304,-1.00547791,0.305176,0.183105,0.122070
3140421916,0.00135803,0.00198364,-1.00483704,0.244141,0.000000,0.000000
3145391708,0.00155640,0.00195312,-1.00555420,0.427246,-0.061035,-0.061035
3150397500,0.00212097,0.00218201,-1.00637817,0.366211,0.061035,0.000000
3155368666,0.00244141,0.00257874,-1.00596619,0.427246,0.061035,-0.122070
3160423958,0.00205994,0.00331116,-1.00520325,0.183105,0.000000,-0.061035
3165358500,0.00151062,0.00404358,-1.00535583,0.427246,0.122070,0.000000
3170413000,0.00137329,0.00395203,-1.00608826,0.305176,0.122070,-0.122070
3175412208,0.00161743,0.00331116,-1.00636292,0.366211,0.061035,-0.061035
3180594375,0.00201416,0.00321960,-1.00590515,0.366211,0.061035,-0.061035
3185418166,0.00242615,0.00364685,-1.00544739,0.244141,0.000000,-0.122070
3190377000,0.00241089,0.00375366,-1.00585938,0.183105,0.000000,-0.061035
3195385958,0.00181580,0.00337219,-1.00686646,0.183105,0.000000,-0.122070
3200350166,0.00122070,0.00283813,-1.00697327,0.488281,0.122070,0.000000
3205416291,0.00141907,0.00236511,-1.00593567,0.305176,0.000000,-0.061035
3210399666,0.00204468,0.00207520,-1.00540161,0.427246,0.061035,-0.061035
3215338875,0.00193787,0.00236511,-1.00569153,0.244141,0.061035,-0.122070
3220569708,0.00146484,0.00321960,-1.00584412,0.183105,-0.061035,-0.183105
3225347750,0.00169373,0.00361633,-1.00555420,0.366211,0.122070,-0.061035
3233743250,0.00230408,0.00308228,-1.00529480,0.366211,0.061035,-0.122070
3235768541,0.00260925,0.00251770,-1.00578308,0.305176,-0.061035,-0.122070
3240485375,0.00276184,0.00267029,-1.00631714,0.305176,0.000000,-0.122070
3245401125,0.00289917,0.00332642,-1.00582886,0.305176,0.061035,0.000000
3250415750,0.00294495,0.00373840,-1.00514221,0.244141,0.000000,-0.122070
3255370625,0.00292969,0.00335693,-1.00526428,0.244141,0.061035,-0.122070
3260359125,0.00291443,0.00247192,-1.00572205,0.305176,-0.061035,0.000000
3265340208,0.00282288,0.00205994,-1.00572205,0.305176,0.061035,-0.061035
3270419291,0.00250244,0.00239563,-1.00553894,0.305176,-0.061035,0.122070
3275420541,0.00193787,0.00289917,-1.00587463,0.244141,0.061035,-0.061035
3280535833,0.00132751,0.00317383,-1.00646973,0.122070,0.122070,0.061035
3285411750,0.00120544,0.00296021,-1.00646973,0.244141,0.061035,-0.183105
3290393583,0.00151062,0.00242615,-1.00622559,0.122070,-0.061035,-0.061035
3295372833,0.00126648,0.00257874,-1.00621033,0.305176,0.000000,-0.061035
3300331833,0.00057983,0.00318909,-1.00610352,0.366211,-0.061035,-0.061035
3305409500,0.00062561,0.00299072,-1.00563049,0.305176,0.122070,0.061035
3310326041,0.00144958,0.00224304,-1.00531006,0.244141,0.061035,-0.061035
3315322833,0.00202942,0.00175476,-1.00543213,0.366211,0.061035,0.061035
3320353125,0.00207520,0.00155640,-1.00601196,0.183105,-0.061035,-0.183105
3325353583,0.00196838,0.00195312,-1.00642395,0.244141,-0.061035,-0.061035
3330390500,0.00215149,0.00296021,-1.00621033,0.366211,-0.061035,-0.122070
3335338333,0.00302124,0.00379944,-1.00592041,0.305176,0.061035,-0.061035
3340374208,0.00407410,0.00390625,-1.00604248,0.122070,0.061035,-0.183105
3345357541,0.00440979,0.00363159,-1.00648499,0.366211,0.000000,-0.061035
3350350333,0.00416565,0.00370789,-1.00663757,0.366211,0.061035,0.000000
3355360166,0.00411987,0.00404358,-1.00611877,0.183105,0.061035,-0.061035
3360358208,0.00415039,0.00392151,-1.00549316,0.244141,0.061035,-0.061035
3365350958,0.00363159,0.00329590,-1.00526428,0.244141,0.000000,-0.061035
3370370958,0.00280762,0.00286865,-1.00534058,0.305176,0.122070,-0.061035
3375321250,0.00242615,0.00282288,-1.00559998,0.366211,0.061035,-0.183105
3380462958,0.00236511,0.00300598,-1.00605774,0.183105,-0.061035,-0.061035
3385369666,0.00198364,0.00337219,-1.00637817,0.366211,0.061035,0.000000
3390482333,0.00117493,0.00344849,-1.00627136,0.183105,-0.061035,0.000000
3395366416,0.00051880,0.00280762,-1.00578308,0.305176,-0.122070,-0.183105
3400361000,0.00036621,0.00213623,-1.00534058,0.427246,-0.061035,-0.061035
3405480875,0.00070190,0.00221252,-1.00547791,0.366211,0.061035,-0.061035
3410385458,0.00140381,0.00270081,-1.00601196,0.244141,0.183105,-0.122070
3415367625,0.00196838,0.00296021,-1.00607300,0.183105,0.061035,-0.183105
3420403833,0.00219727,0.00277710,-1.00567627,0.244141,0.061035,0.061035
3425339041,0.00236511,0.00248718,-1.00543213,0.305176,0.061035,-0.122070
3430380291,0.00247192,0.00241089,-1.00518799,0.305176,0.061035,-0.122070
3435329291,0.00271606,0.00265503,-1.00479126,0.183105,-0.061035,-0.061035
3440393750,0.00315857,0.00312805,-1.00497437,0.305176,0.122070,-0.061035
3445348958,0.00358582,0.00326538,-1.00585938,0.366211,0.000000,0.122070
3450379458,0.00349426,0.00285339,-1.00653076,0.305176,0.122070,0.000000
3455335500,0.00270081,0.00241089,-1.00636292,0.366211,0.061035,-0.122070
3460333833,0.00190735,0.00274658,-1.00592041,0.305176,0.061035,0.000000
3465418000,0.00189209,0.00350952,-1.00608826,0.366211,0.122070,-0.061035
3470384458,0.00248718,0.00367737,-1.00636292,0.244141,0.061035,-0.061035
3475401583,0.00267029,0.00340271,-1.00605774,0.366211,0.061035,0.000000
3480510208,0.00193787,0.00354004,-1.00566101,0.183105,0.122070,-0.122070
3485373625,0.00125122,0.00393677,-1.00535583,0.244141,0.061035,-0.183105
3490383166,0.00123596,0.00393677,-1.00518799,0.488281,0.122070,-0.122070
3495423500,0.00143433,0.00361633,-1.00549316,0.366211,0.061035,-0.122070
3500379500,0.00149536,0.00340271,-1.00621033,0.366211,0.061035,-0.061035
3505408458,0.00146484,0.00326538,-1.00695801,0.305176,0.000000,-0.061035
3510389750,0.00144958,0.00286865,-1.00738525,0.366211,0.000000,-0.061035
3515360250,0.00146484,0.00219727,-1.00727844,0.305176,0.122070,0.000000
3520330750,0.00164795,0.00175476,-1.00665283,0.366211,0.183105,-0.061035
3525475583,0.00218201,0.00178528,-1.00585938,0.244141,-0.122070,0.000000
3530381666,0.00289917,0.00193787,-1.00579834,0.366211,0.000000,-0.061035
3535395375,0.00326538,0.00215149,-1.00650024,0.366211,0.183105,-0.061035
3540381375,0.00308228,0.00253296,-1.00656128,0.305176,0.000000,-0.061035
3545334791,0.00270081,0.00286865,-1.00550842,0.427246,0.000000,-0.183105
3550413208,0.00265503,0.00279236,-1.00479126,0.244141,0.061035,-0.061035
3555410458,0.00263977,0.00254822,-1.00509644,0.305176,0.122070,0.000000
3560385041,0.00213623,0.00270081,-1.00566101,0.366211,0.061035,0.000000
3565390833,0.00129700,0.00326538,-1.00563049,0.244141,-0.061035,0.000000
3570353250,0.00073242,0.00357056,-1.00520325,0.305176,0.061035,-0.061035
3575427791,0.00050354,0.00350952,-1.00524902,0.305176,0.122070,-0.122070
3580570416,0.00021362,0.00332642,-1.00602722,0.305176,-0.061035,-0.122070
3585365958,0.00009155,0.00291443,-1.00613403,0.488281,0.061035,-0.122070
3590369791,0.00067139,0.00228882,-1.00524902,0.305176,0.061035,-0.061035
3595359125,0.00137329,0.00204468,-1.00521851,0.366211,0.061035,-0.061035
3600443416,0.00169373,0.00238037,-1.00659180,0.244141,0.000000,0.061035
3605377416,0.00207520,0.00283813,-1.00733948,0.305176,-0.122070,-0.061035
3610421458,0.00260925,0.00289917,-1.00622559,0.366211,-0.061035,0.000000
3615424250,0.00250244,0.00247192,-1.00479126,0.305176,0.000000,-0.122070
3620361708,0.00180054,0.00184631,-1.00502014,0.305176,-0.061035,-0.122070
3625397125,0.00170898,0.00163269,-1.00642395,0.244141,0.000000,-0.122070
3630430208,0.00231934,0.00180054,-1.00708008,0.244141,0.000000,0.000000
3635383375,0.00265503,0.00209045,-1.00637817,0.305176,-0.061035,-0.061035
3640422750,0.00254822,0.00250244,-1.00570679,0.305176,0.000000,-0.122070
3645406833,0.00231934,0.00277710,-1.00588989,0.305176,0.061035,-0.122070
3650395750,0.00209045,0.00289917,-1.00616455,0.244141,0.061035,0.000000
3655394250,0.00205994,0.00309753,-1.00576782,0.305176,-0.061035,-0.061035
3660409083,0.00210571,0.00309753,-1.00509644,0.366211,0.122070,-0.061035
3665402458,0.00193787,0.00302124,-1.00543213,0.183105,0.061035,-0.122070
3670402166,0.00205994,0.00325012,-1.00656128,0.305176,-0.061035,-0.122070
3675410625,0.00244141,0.00367737,-1.00677490,0.244141,0.122070,-0.183105
3680525750,0.00213623,0.00366211,-1.00575256,0.488281,0.061035,-0.061035
3685373291,0.00100708,0.00309753,-1.00503540,0.244141,0.122070,-0.122070
3690422375,0.00015259,0.00241089,-1.00553894,0.183105,-0.061035,-0.061035
3695403583,0.00022888,0.00216675,-1.00614929,0.244141,0.183105,0.061035
3700421166,0.00076294,0.00259399,-1.00572205,0.427246,0.122070,0.000000
3705435291,0.00105286,0.00291443,-1.00511169,0.366211,0.183105,0.000000
3710424000,0.00106812,0.00253296,-1.00576782,0.244141,0.122070,0.061035
3715407708,0.00125122,0.00199890,-1.00660706,0.305176,0.000000,-0.061035
3720391791,0.00193787,0.00183105,-1.00614929,0.244141,0.000000,-0.122070
3725396791,0.00253296,0.00190735,-1.00492859,0.244141,0.061035,0.061035
3730374875,0.00239563,0.00201416,-1.00483704,0.366211,0.000000,-0.061035
3735366666,0.00204468,0.00212097,-1.00596619,0.305176,-0.061035,-0.061035
3740397875,0.00222778,0.00210571,-1.00622559,0.366211,0.122070,-0.183105
3745345833,0.00292969,0.00218201,-1.00529480,0.305176,0.122070,-0.061035
3750430875,0.00343323,0.00265503,-1.00511169,0.183105,0.000000,-0.061035
3755418458,0.00349426,0.00294495,-1.00639343,0.366211,0.000000,-0.183105
3760419416,0.00306702,0.00274658,-1.00712585,0.366211,0.000000,-0.061035
3765417708,0.00224304,0.00268555,-1.00604248,0.183105,0.122070,-0.122070
3770355916,0.00170898,0.00306702,-1.00473022,0.244141,0.000000,-0.061035
3775394750,0.00189209,0.00341797,-1.00509644,0.366211,-0.061035,0.000000
3780486500,0.00196838,0.00349426,-1.00653076,0.427246,0.000000,-0.122070
3785397000,0.00161743,0.00343323,-1.00675964,0.305176,0.061035,-0.122070
3790378375,0.00154114,0.00340271,-1.00570679,0.305176,0.061035,-0.122070
3795422375,0.00202942,0.00346375,-1.00550842,0.244141,0.061035,-0.122070
3800403916,0.00248718,0.00320435,-1.00656128,0.366211,0.122070,0.000000
3805408041,0.00199890,0.00239563,-1.00665283,0.427246,0.061035,-0.183105
3810428791,0.00079346,0.00160217,-1.00506592,0.244141,-0.061035,-0.061035
3815403875,0.00009155,0.00135803,-1.00411987,0.366211,0.061035,-0.061035
3820400583,0.00057983,0.00178528,-1.00543213,0.305176,0.000000,-0.061035
3825411583,0.00160217,0.00245667,-1.00691223,0.427246,0.000000,0.000000
3830424958,0.00216675,0.00273132,-1.00645447,0.183105,0.183105,-0.061035
3835436125,0.00242615,0.00288391,-1.00550842,0.244141,0.061035,0.000000
3840367000,0.00280762,0.00317383,-1.00611877,0.244141,0.000000,-0.061035
3845347875,0.00338745,0.00320435,-1.00747681,0.183105,0.061035,0.061035
3850420875,0.00392151,0.00288391,-1.00737000,0.244141,0.061035,-0.061035
3855406083,0.00389099,0.00280762,-1.00588989,0.183105,0.000000,-0.122070
3860410500,0.00337219,0.00308228,-1.00512695,0.305176,0.000000,-0.061035
3865466833,0.00305176,0.00297546,-1.00611877,0.366211,-0.061035,0.000000
3870376541,0.00273132,0.00257874,-1.00723267,0.305176,0.061035,-0.122070
3875415708,0.00221252,0.00263977,-1.00669861,0.305176,0.122070,-0.122070
3880557416,0.00201416,0.00311279,-1.00556946,0.305176,0.122070,-0.122070
3885392041,0.00221252,0.00369263,-1.00579834,0.244141,0.000000,-0.061035
3890381791,0.00219727,0.00396729,-1.00656128,0.244141,-0.061035,0.061035
3895524125,0.00167847,0.00384521,-1.00596619,0.183105,0.000000,-0.061035
3900366333,0.00096130,0.00334167,-1.00488281,0.305176,0.122070,-0.061035
3905411833,0.00054932,0.00274658,-1.00517273,0.305176,0.061035,-0.061035
3910390291,0.00082397,0.00239563,-1.00622559,0.305176,0.061035,-0.061035
3915409000,0.00151062,0.00234985,-1.00622559,0.305176,0.122070,-0.061035
3920386625,0.00195312,0.00225830,-1.00535583,0.244141,0.061035,0.000000
3925407791,0.00178528,0.00186157,-1.00517273,0.366211,-0.061035,-0.183105
3930420958,0.00125122,0.00134277,-1.00596619,0.427246,0.000000,-0.122070
3935366916,0.00083923,0.00144958,-1.00642395,0.305176,0.061035,0.000000
3940414291,0.00090027,0.00236511,-1.00593567,0.244141,0.122070,0.000000
3945343750,0.00163269,0.00326538,-1.00526428,0.366211,0.061035,-0.061035
3950390875,0.00259399,0.00357056,-1.00531006,0.305176,0.061035,0.000000
3955358833,0.00323486,0.00357056,-1.00581360,0.427246,0.122070,-0.061035
3960357541,0.00366211,0.00363159,-1.00581360,0.366211,0.061035,0.000000
3965403083,0.00369263,0.00358582,-1.00517273,0.305176,0.000000,0.061035
3970410583,0.00312805,0.00366211,-1.00492859,0.427246,0.000000,0.061035
3975417208,0.00267029,0.00408936,-1.00520325,0.244141,0.000000,-0.061035
3980548291,0.00259399,0.00436401,-1.00531006,0.305176,0.061035,-0.122070
3985376625,0.00262451,0.00418091,-1.00518799,0.366211,0.000000,-0.122070
3990348375,0.00268555,0.00372314,-1.00570679,0.366211,0.000000,-0.122070
3995372625,0.00244141,0.00306702,-1.00683594,0.183105,0.000000,-0.061035
4000414125,0.00198364,0.00225830,-1.00704956,0.366211,0.000000,-0.122070
4005366625,0.00146484,0.00158691,-1.00595093,0.305176,0.061035,0.000000
4010445333,0.00109863,0.00135803,-1.00523376,0.305176,0.061035,-0.061035
4015525583,0.00125122,0.00154114,-1.00576782,0.366211,-0.122070,-0.183105
4020413333,0.00166321,0.00190735,-1.00621033,0.366211,0.061035,-0.061035
4025399416,0.00161743,0.00234985,-1.00573730,0.244141,0.244141,0.061035
4030374416,0.00132751,0.00271606,-1.00553894,0.122070,0.000000,-0.122070
4035334875,0.00148010,0.00262451,-1.00625610,0.244141,0.183105,-0.061035
4040358875,0.00195312,0.00218201,-1.00682068,0.305176,0.122070,0.000000
4045418375,0.00231934,0.00218201,-1.00640869,0.305176,0.061035,0.061035
4050437583,0.00228882,0.00305176,-1.00593567,0.244141,0.000000,-0.122070
4055385416,0.00212097,0.00405884,-1.00624084,0.305176,0.000000,-0.122070
4060387041,0.00245667,0.00430298,-1.00645447,0.366211,0.122070,0.000000
4065379583,0.00299072,0.00376892,-1.00581360,0.244141,0.000000,-0.061035
4070379458,0.00291443,0.00314331,-1.00506592,0.427246,-0.061035,-0.183105
4075402291,0.00239563,0.00317383,-1.00517273,0.305176,0.122070,0.000000
4080525000,0.00213623,0.00376892,-1.00595093,0.366211,-0.061035,-0.183105
4085353000,0.00244141,0.00411987,-1.00662231,0.305176,-0.122070,-0.061035
4090426416,0.00274658,0.00378418,-1.00648499,0.427246,-0.122070,-0.183105
4095400833,0.00238037,0.00306702,-1.00558472,0.183105,-0.122070,-0.061035
4100394416,0.00169373,0.00267029,-1.00508118,0.305176,-0.061035,0.061035
4105352750,0.00135803,0.00283813,-1.00564575,0.244141,-0.122070,-0.061035
4110401250,0.00144958,0.00268555,-1.00640869,0.305176,0.122070,-0.061035
4115386500,0.00135803,0.00196838,-1.00625610,0.366211,-0.061035,-0.183105
4120432166,0.00074768,0.00132751,-1.00549316,0.305176,0.061035,0.000000
4125343875,0.00051880,0.00106812,-1.00492859,0.305176,0.061035,-0.061035
4130409166,0.00106812,0.00138855,-1.00480652,0.427246,0.183105,-0.061035
4135396666,0.00175476,0.00213623,-1.00509644,0.305176,0.061035,-0.122070
4140408125,0.00234985,0.00297546,-1.00561523,0.244141,0.061035,0.000000
4145406916,0.00279236,0.00379944,-1.00593567,0.183105,-0.061035,-0.061035
4150420208,0.00276184,0.00434875,-1.00608826,0.305176,0.061035,-0.061035
4155319041,0.00202942,0.00439453,-1.00627136,0.305176,0.183105,-0.061035
4160409166,0.00125122,0.00408936,-1.00639343,0.305176,-0.122070,-0.061035
4165422875,0.00141907,0.00381470,-1.00637817,0.122070,0.000000,-0.122070
4170375083,0.00209045,0.00358582,-1.00598145,0.305176,0.122070,0.000000
4175407666,0.00244141,0.00340271,-1.00544739,0.305176,-0.061035,-0.061035
4180564291,0.00247192,0.00321960,-1.00573730,0.244141,0.061035,-0.183105
4185291041,0.00241089,0.00291443,-1.00682068,0.244141,-0.061035,-0.244141
4190404458,0.00216675,0.00256348,-1.00727844,0.305176,0.000000,-0.061035
4195390416,0.00173950,0.00227356,-1.00654602,0.305176,0.000000,0.000000
4200417500,0.00152588,0.00186157,-1.00569153,0.122070,0.000000,0.000000
4205357208,0.00167847,0.00149536,-1.00585938,0.366211,0.061035,-0.122070
4210402708,0.00164795,0.00138855,-1.00677490,0.366211,0.061035,0.000000
4215396416,0.00137329,0.00152588,-1.00608826,0.183105,0.122070,-0.061035
4220322750,0.00158691,0.00187683,-1.00437927,0.488281,0.183105,0.061035
4225410416,0.00204468,0.00231934,-1.00462341,0.305176,0.000000,0.000000
4230376708,0.00195312,0.00274658,-1.00624084,0.366211,0.183105,-0.122070
4235350833,0.00161743,0.00314331,-1.00669861,0.305176,0.061035,-0.061035
4240406541,0.00172424,0.00312805,-1.00595093,0.427246,0.061035,0.000000
4245404666,0.00186157,0.00274658,-1.00523376,0.366211,0.000000,-0.061035
4250385291,0.00167847,0.00294495,-1.00569153,0.366211,0.122070,0.000000
4255397583,0.00164795,0.00361633,-1.00691223,0.244141,0.000000,-0.122070
4260395666,0.00198364,0.00381470,-1.00697327,0.244141,0.122070,-0.061035
4265321875,0.00233459,0.00360107,-1.00625610,0.183105,0.000000,-0.061035
4270331416,0.00230408,0.00363159,-1.00650024,0.183105,0.122070,-0.122070
4275339791,0.00209045,0.00381470,-1.00706482,0.122070,0.000000,-0.122070
4280543833,0.00225830,0.00372314,-1.00672913,0.366211,-0.061035,-0.061035
4285332333,0.00270081,0.00334167,-1.00584412,0.305176,0.000000,-0.122070
4290334166,0.00277710,0.00306702,-1.00537109,0.244141,0.000000,-0.122070
4295338875,0.00230408,0.00314331,-1.00567627,0.244141,0.000000,0.000000
4300350500,0.00207520,0.00308228,-1.00627136,0.122070,0.122070,-0.061035
4305342416,0.00260925,0.00254822,-1.00662231,0.244141,-0.122070,0.000000
4310332666,0.00329590,0.00201416,-1.00648499,0.183105,-0.061035,-0.061035
4315325666,0.00335693,0.00193787,-1.00619507,0.366211,0.000000,-0.061035
4320336541,0.00259399,0.00219727,-1.00599670,0.305176,0.000000,-0.061035
4325376916,0.00180054,0.00227356,-1.00527954,0.244141,0.000000,-0.061035
4330375125,0.00164795,0.00219727,-1.00466919,0.305176,0.122070,0.000000
4335359208,0.00175476,0.00239563,-1.00524902,0.305176,0.122070,0.000000
4340361833,0.00201416,0.00285339,-1.00639343,0.305176,0.000000,-0.061035
4345366000,0.00253296,0.00341797,-1.00651550,0.305176,0.061035,-0.122070
4350350958,0.00274658,0.00404358,-1.00547791,0.366211,0.122070,-0.061035
4355368083,0.00256348,0.00444031,-1.00494385,0.183105,-0.061035,-0.122070
4360359958,0.00216675,0.00408936,-1.00566101,0.244141,0.061035,0.000000
4365360875,0.00175476,0.00329590,-1.00621033,0.244141,0.061035,-0.061035
4370345416,0.00190735,0.00288391,-1.00566101,0.244141,0.000000,0.000000
4375338958,0.00260925,0.00315857,-1.00518799,0.244141,0.061035,-0.122070
4380510833,0.00291443,0.00358582,-1.00608826,0.366211,0.000000,0.061035
4385336166,0.00247192,0.00334167,-1.00717163,0.305176,0.000000,-0.061035
4390368166,0.00234985,0.00253296,-1.00677490,0.305176,0.061035,0.000000
4395382833,0.00292969,0.00187683,-1.00564575,0.305176,0.061035,-0.061035
4400358916,0.00334167,0.00201416,-1.00563049,0.305176,-0.061035,0.000000
4405347083,0.00309753,0.00263977,-1.00666809,0.305176,0.000000,0.000000
4410375666,0.00244141,0.00303650,-1.00704956,0.305176,-0.061035,-0.122070
4415377791,0.00180054,0.00312805,-1.00582886,0.305176,0.122070,-0.122070
4420370125,0.00122070,0.00279236,-1.00469971,0.427246,0.061035,-0.061035
4425387916,0.00074768,0.00222778,-1.00553894,0.366211,0.000000,-0.122070
4430394958,0.00068665,0.00204468,-1.00650024,0.366211,0.061035,-0.061035
4435350000,0.00094604,0.00202942,-1.00555420,0.305176,0.000000,-0.061035
4440423666,0.00126648,0.00166321,-1.00447083,0.366211,0.000000,-0.061035
4445401958,0.00157166,0.00148010,-1.00526428,0.305176,0.061035,-0.061035
4450395291,0.00193787,0.00173950,-1.00657654,0.244141,0.061035,-0.183105
4455395083,0.00209045,0.00202942,-1.00660706,0.305176,0.000000,-0.061035
4460381041,0.00175476,0.00236511,-1.00607300,0.305176,0.122070,-0.061035
4465364791,0.00131226,0.00283813,-1.00614929,0.427246,-0.061035,-0.122070
4470377208,0.00143433,0.00320435,-1.00639343,0.488281,-0.061035,0.061035
4475398458,0.00198364,0.00305176,-1.00593567,0.244141,0.000000,-0.122070
4480525500,0.00210571,0.00253296,-1.00523376,0.305176,0.183105,-0.061035
4485399833,0.00207520,0.00204468,-1.00538635,0.305176,-0.061035,-0.061035
4490370833,0.00263977,0.00187683,-1.00646973,0.183105,0.061035,-0.061035
4495389916,0.00305176,0.00207520,-1.00711060,0.366211,0.061035,-0.061035
4500399166,0.00294495,0.00268555,-1.00640869,0.366211,-0.061035,0.000000
4505395916,0.00289917,0.00343323,-1.00550842,0.366211,0.122070,0.000000
4510427458,0.00328064,0.00357056,-1.00585938,0.305176,0.061035,-0.061035
4515397250,0.00358582,0.00312805,-1.00682068,0.305176,0.061035,-0.061035
4520385500,0.00321960,0.00280762,-1.00671387,0.427246,-0.061035,-0.183105
4525387791,0.00233459,0.00286865,-1.00549316,0.183105,0.061035,0.000000
4530339291,0.00170898,0.00303650,-1.00491333,0.183105,0.061035,0.000000
4535359166,0.00164795,0.00296021,-1.00575256,0.427246,0.122070,-0.061035
4540398541,0.00158691,0.00265503,-1.00631714,0.244141,0.061035,0.122070
4545369750,0.00141907,0.00228882,-1.00556946,0.244141,0.000000,-0.061035
4550395458,0.00151062,0.00205994,-1.00495911,0.244141,-0.061035,0.000000
4555371666,0.00161743,0.00236511,-1.00581360,0.244141,0.122070,-0.122070
4560415750,0.00161743,0.00303650,-1.00685120,0.244141,0.061035,-0.122070
4565316791,0.00173950,0.00335693,-1.00651550,0.183105,0.122070,-0.061035
4570409750,0.00164795,0.00297546,-1.00526428,0.244141,0.000000,-0.061035
4575415000,0.00125122,0.00248718,-1.00482178,0.244141,0.061035,-0.122070
4580534625,0.00117493,0.00224304,-1.00570679,0.244141,0.061035,-0.061035
4585400875,0.00160217,0.00209045,-1.00650024,0.183105,-0.061035,-0.122070
4590445916,0.00205994,0.00215149,-1.00631714,0.305176,0.061035,-0.061035
4595376791,0.00244141,0.00256348,-1.00561523,0.244141,0.000000,0.000000
4600409458,0.00273132,0.00328064,-1.00546265,0.366211,0.000000,0.000000
4605370750,0.00273132,0.00378418,-1.00607300,0.305176,-0.061035,-0.061035
4610380000,0.00274658,0.00354004,-1.00617981,0.366211,0.061035,0.000000
4615407500,0.00302124,0.00321960,-1.00572205,0.305176,0.000000,-0.061035
4620380958,0.00283813,0.00338745,-1.00602722,0.305176,0.000000,-0.122070
4625403375,0.00192261,0.00378418,-1.00634766,0.305176,0.000000,0.000000
4630422000,0.00131226,0.00387573,-1.00564575,0.305176,0.061035,-0.122070
4635417958,0.00146484,0.00361633,-1.00491333,0.305176,0.061035,-0.122070
4640482083,0.00138855,0.00338745,-1.00512695,0.427246,0.183105,-0.122070
4645418791,0.00097656,0.00326538,-1.00598145,0.183105,-0.061035,-0.061035
4650400000,0.00108337,0.00306702,-1.00665283,0.366211,0.061035,-0.244141
4655386041,0.00166321,0.00282288,-1.00634766,0.427246,0.122070,-0.122070
4660354041,0.00198364,0.00245667,-1.00534058,0.305176,-0.061035,0.061035
4665378500,0.00190735,0.00209045,-1.00506592,0.183105,0.000000,-0.122070
4670374541,0.00180054,0.00198364,-1.00553894,0.305176,0.122070,0.000000
4675412041,0.00152588,0.00222778,-1.00556946,0.366211,0.061035,0.000000
4680543958,0.00134277,0.00259399,-1.00505066,0.305176,0.122070,-0.061035
4685391833,0.00166321,0.00300598,-1.00523376,0.305176,0.122070,-0.061035
4690408541,0.00225830,0.00334167,-1.00634766,0.244141,0.061035,-0.061035
4695390833,0.00270081,0.00331116,-1.00680542,0.183105,0.000000,-0.122070
4700408916,0.00270081,0.00289917,-1.00595093,0.244141,0.061035,-0.122070
4705371041,0.00251770,0.00236511,-1.00540161,0.366211,0.061035,-0.122070
4710378833,0.00265503,0.00224304,-1.00599670,0.549316,0.183105,0.000000
4715411250,0.00318909,0.00288391,-1.00630188,0.305176,0.000000,-0.061035
4720409750,0.00370789,0.00375366,-1.00532532,0.305176,0.183105,-0.122070
4725378333,0.00373840,0.00430298,-1.00459290,0.305176,0.183105,0.061035
4730415625,0.00367737,0.00439453,-1.00552368,0.305176,0.000000,-0.183105
4735347041,0.00389099,0.00410461,-1.00677490,0.244141,0.122070,0.000000
4740445333,0.00346375,0.00354004,-1.00637817,0.122070,0.061035,-0.122070
4745438583,0.00209045,0.00283813,-1.00503540,0.366211,0.000000,-0.061035
4750399833,0.00114441,0.00219727,-1.00485229,0.305176,0.061035,0.000000
4755403000,0.00115967,0.00187683,-1.00578308,0.488281,0.122070,-0.122070
4760434083,0.00143433,0.00186157,-1.00628662,0.366211,0.061035,-0.122070
4765402041,0.00149536,0.00193787,-1.00593567,0.244141,0.000000,-0.122070
4770359708,0.00137329,0.00199890,-1.00566101,0.305176,0.061035,-0.061035
4775391708,0.00134277,0.00207520,-1.00569153,0.244141,-0.061035,-0.122070
4780469166,0.00148010,0.00202942,-1.00547791,0.244141,0.061035,-0.183105
4785339750,0.00170898,0.00199890,-1.00508118,0.244141,0.000000,-0.122070
4790353375,0.00173950,0.00231934,-1.00521851,0.183105,0.000000,-0.061035
4795495375,0.00152588,0.00302124,-1.00619507,0.366211,0.000000,-0.061035
4800415833,0.00112915,0.00344849,-1.00688171,0.244141,0.000000,-0.122070
4805427541,0.00079346,0.00332642,-1.00634766,0.183105,-0.061035,-0.122070
4810428833,0.00105286,0.00318909,-1.00547791,0.244141,0.000000,0.000000
4815404708,0.00181580,0.00340271,-1.00549316,0.305176,0.061035,0.000000
4820418458,0.00224304,0.00341797,-1.00593567,0.122070,0.061035,-0.061035
4825376750,0.00210571,0.00318909,-1.00587463,0.366211,-0.061035,-0.183105
4830435125,0.00212097,0.00318909,-1.00559998,0.366211,0.000000,-0.061035
4835401250,0.00242615,0.00320435,-1.00576782,0.305176,0.122070,-0.061035
4840383375,0.00291443,0.00280762,-1.00617981,0.244141,0.122070,-0.122070
4845372958,0.00343323,0.00219727,-1.00627136,0.427246,0.183105,0.000000
4850388708,0.00358582,0.00184631,-1.00621033,0.244141,-0.061035,-0.061035
4855372708,0.00338745,0.00202942,-1.00599670,0.305176,0.000000,0.061035
4860414500,0.00262451,0.00279236,-1.00563049,0.305176,0.122070,-0.061035
4865431541,0.00146484,0.00349426,-1.00526428,0.366211,0.061035,0.000000
4870377291,0.00093079,0.00346375,-1.00485229,0.366211,0.000000,-0.061035
4875373291,0.00115967,0.00297546,-1.00476074,0.305176,0.122070,-0.061035
4880517666,0.00138855,0.00267029,-1.00521851,0.244141,0.000000,0.000000
4885388500,0.00155640,0.00247192,-1.00552368,0.244141,0.061035,-0.122070
4890406500,0.00187683,0.00216675,-1.00505066,0.244141,0.000000,-0.183105
4895415541,0.00224304,0.00204468,-1.00473022,0.305176,0.061035,-0.061035
4900454083,0.00227356,0.00230408,-1.00578308,0.305176,-0.061035,0.122070
4905351541,0.00154114,0.00254822,-1.00706482,0.427246,0.061035,-0.061035
4910367875,0.00074768,0.00253296,-1.00680542,0.305176,0.061035,-0.122070
4915428208,0.00083923,0.00257874,-1.00570679,0.305176,0.000000,-0.061035
4920379375,0.00166321,0.00273132,-1.00537109,0.427246,0.000000,-0.122070
4925378333,0.00219727,0.00259399,-1.00608826,0.244141,0.183105,-0.061035
4930381916,0.00213623,0.00216675,-1.00657654,0.244141,-0.122070,-0.061035
4935360083,0.00204468,0.00201416,-1.00611877,0.244141,-0.061035,-0.122070
4940441583,0.00227356,0.00239563,-1.00564575,0.244141,0.122070,0.000000
4945371708,0.00260925,0.00276184,-1.00588989,0.183105,0.061035,0.000000
4950421125,0.00259399,0.00259399,-1.00607300,0.305176,0.183105,-0.061035
4955400666,0.00230408,0.00254822,-1.00556946,0.305176,0.000000,-0.061035
4960389083,0.00219727,0.00299072,-1.00517273,0.244141,0.061035,-0.061035
4965538750,0.00245667,0.00331116,-1.00546265,0.305176,0.061035,-0.061035
4970400000,0.00262451,0.00297546,-1.00579834,0.427246,-0.061035,-0.061035
4975408250,0.00250244,0.00227356,-1.00566101,0.427246,-0.061035,0.000000
4980536916,0.00224304,0.00187683,-1.00521851,0.366211,0.122070,-0.183105
4985447583,0.00181580,0.00198364,-1.00526428,0.183105,0.000000,-0.122070
4990465500,0.00144958,0.00228882,-1.00590515,0.305176,0.061035,-0.061035
4995393750,0.00129700,0.00268555,-1.00616455,0.366211,0.122070,0.000000
5000416666,0.00152588,0.00314331,-1.00573730,0.366211,0.122070,-0.061035
5005434291,0.00186157,0.00329590,-1.00573730,0.427246,0.061035,0.000000
5010433500,0.00192261,0.00296021,-1.00616455,0.366211,0.000000,-0.061035
5015393958,0.00167847,0.00265503,-1.00590515,0.366211,0.061035,-0.122070
5020422125,0.00172424,0.00271606,-1.00500488,0.366211,0.061035,0.000000
5025412416,0.00210571,0.00274658,-1.00465393,0.244141,0.000000,-0.122070
5030482000,0.00221252,0.00285339,-1.00588989,0.305176,0.061035,-0.122070
5035416166,0.00209045,0.00305176,-1.00759888,0.366211,0.244141,0.000000
5040448333,0.00212097,0.00285339,-1.00765991,0.122070,-0.061035,-0.122070
5045569750,0.00215149,0.00236511,-1.00633240,0.244141,0.061035,0.000000
5050401541,0.00219727,0.00202942,-1.00563049,0.183105,-0.061035,-0.061035
5055455166,0.00236511,0.00222778,-1.00602722,0.366211,0.122070,-0.122070
5060420291,0.00262451,0.00265503,-1.00621033,0.366211,0.061035,-0.122070
5065693166,0.00300598,0.00256348,-1.00563049,0.366211,0.061035,0.000000
5070420583,0.00309753,0.00212097,-1.00569153,0.366211,0.061035,0.000000
5075440541,0.00273132,0.00218201,-1.00700378,0.366211,0.122070,-0.061035
5080472791,0.00254822,0.00280762,-1.00776672,0.305176,-0.061035,0.000000
5085452708,0.00276184,0.00328064,-1.00677490,0.366211,0.061035,-0.061035
5090450666,0.00302124,0.00318909,-1.00534058,0.305176,0.000000,0.000000
5095435000,0.00271606,0.00294495,-1.00546265,0.305176,0.000000,0.000000
5100468250,0.00181580,0.00296021,-1.00695801,0.305176,0.122070,-0.122070
5105523958,0.00123596,0.00325012,-1.00755310,0.427246,0.183105,-0.061035
5110462416,0.00128174,0.00363159,-1.00666809,0.366211,0.061035,-0.122070
5115472666,0.00131226,0.00378418,-1.00616455,0.305176,0.000000,0.000000
5120437833,0.00132751,0.00352478,-1.00682068,0.305176,0.000000,-0.061035
5125449166,0.00163269,0.00299072,-1.00715637,0.305176,0.061035,0.000000
5130487666,0.00195312,0.00265503,-1.00605774,0.366211,0.000000,-0.183105
5135456500,0.00215149,0.00296021,-1.00497437,0.183105,0.000000,-0.061035
5140488625,0.00234985,0.00338745,-1.00535583,0.366211,0.000000,-0.122070
5145458458,0.00245667,0.00320435,-1.00625610,0.427246,0.000000,0.000000
5150474208,0.00244141,0.00263977,-1.00624084,0.122070,0.000000,-0.122070
5155475583,0.00225830,0.00268555,-1.00570679,0.427246,0.061035,0.000000
5160476333,0.00178528,0.00331116,-1.00601196,0.366211,0.122070,0.183105
5165804500,0.00128174,0.00349426,-1.00691223,0.427246,0.000000,-0.061035
5170476375,0.00131226,0.00312805,-1.00651550,0.244141,0.061035,-0.122070
5175502541,0.00164795,0.00286865,-1.00494385,0.183105,0.122070,-0.061035
5180482625,0.00154114,0.00292969,-1.00457764,0.305176,0.122070,-0.061035
5185464416,0.00109863,0.00309753,-1.00602722,0.244141,-0.061035,-0.122070
5190476208,0.00082397,0.00296021,-1.00704956,0.427246,0.000000,-0.061035
5195463666,0.00109863,0.00251770,-1.00634766,0.366211,0.061035,0.000000
5200466875,0.00169373,0.00205994,-1.00520325,0.488281,0.061035,-0.122070
5205494708,0.00193787,0.00187683,-1.00514221,0.366211,0.061035,0.061035
5210488458,0.00196838,0.00202942,-1.00584412,0.305176,0.061035,0.061035
5215488541,0.00193787,0.00256348,-1.00587463,0.244141,0.061035,-0.122070
5220519291,0.00173950,0.00321960,-1.00494385,0.427246,0.061035,0.000000
5225498208,0.00170898,0.00350952,-1.00471497,0.366211,0.244141,0.000000
5230509166,0.00173950,0.00337219,-1.00576782,0.305176,0.061035,-0.183105
5235478708,0.00166321,0.00285339,-1.00634766,0.305176,0.122070,0.000000
5240515333,0.00184631,0.00207520,-1.00550842,0.305176,0.122070,-0.061035
5245521541,0.00219727,0.00183105,-1.00498962,0.183105,-0.122070,-0.122070
5250532333,0.00231934,0.00263977,-1.00604248,0.244141,0.061035,0.061035
5255518125,0.00236511,0.00347900,-1.00726318,0.366211,0.000000,-0.122070
5260492000,0.00247192,0.00329590,-1.00697327,0.305176,0.000000,-0.061035
5265725583,0.00273132,0.00267029,-1.00598145,0.244141,0.061035,-0.122070
5270496750,0.00308228,0.00256348,-1.00592041,0.183105,0.061035,-0.061035
5275507083,0.00309753,0.00273132,-1.00653076,0.427246,0.000000,-0.122070
5280495958,0.00254822,0.00263977,-1.00660706,0.244141,-0.061035,0.000000
5285515333,0.00183105,0.00239563,-1.00596619,0.305176,0.122070,-0.061035
5290512583,0.00120544,0.00205994,-1.00575256,0.305176,0.061035,0.000000
5295487000,0.00090027,0.00184631,-1.00634766,0.183105,-0.061035,-0.122070
5300491291,0.00128174,0.00209045,-1.00645447,0.427246,0.061035,-0.061035
5305499125,0.00193787,0.00263977,-1.00559998,0.183105,-0.061035,0.061035
5310556291,0.00241089,0.00308228,-1.00508118,0.244141,0.061035,-0.122070
5315494916,0.00253296,0.00331116,-1.00569153,0.305176,0.000000,-0.183105
5320508500,0.00230408,0.00334167,-1.00628662,0.305176,0.183105,-0.061035
5325534708,0.00196838,0.00296021,-1.00566101,0.183105,0.061035,-0.122070
5330559666,0.00167847,0.00216675,-1.00463867,0.244141,0.000000,-0.061035
5335537375,0.00151062,0.00172424,-1.00506592,0.183105,0.061035,-0.061035
5340558208,0.00163269,0.00227356,-1.00669861,0.244141,0.183105,0.061035
5345549666,0.00207520,0.00315857,-1.00729370,0.305176,0.000000,0.000000
5350551375,0.00270081,0.00357056,-1.00634766,0.427246,0.122070,-0.061035
5355531125,0.00326538,0.00364685,-1.00555420,0.183105,-0.061035,0.000000
5360516083,0.00346375,0.00378418,-1.00576782,0.305176,-0.061035,-0.183105
5365838458,0.00308228,0.00384521,-1.00617981,0.366211,0.000000,-0.061035
5370538875,0.00254822,0.00346375,-1.00588989,0.305176,0.000000,0.000000
5375549250,0.00233459,0.00277710,-1.00547791,0.244141,0.000000,-0.122070
5380544125,0.00244141,0.00236511,-1.00566101,0.488281,0.183105,-0.061035
5385505041,0.00282288,0.00224304,-1.00587463,0.244141,0.122070,-0.122070
5390581875,0.00306702,0.00209045,-1.00540161,0.305176,0.000000,0.000000
5395542250,0.00279236,0.00196838,-1.00495911,0.305176,0.000000,-0.122070
5400568083,0.00222778,0.00195312,-1.00566101,0.305176,-0.061035,-0.061035
5405518791,0.00189209,0.00186157,-1.00654602,0.305176,0.122070,0.061035
5410565750,0.00180054,0.00189209,-1.00613403,0.183105,0.061035,0.000000
5415612791,0.00148010,0.00247192,-1.00495911,0.305176,0.122070,-0.061035
5420529666,0.00096130,0.00315857,-1.00500488,0.244141,0.122070,-0.061035
5425551125,0.00109863,0.00326538,-1.00639343,0.305176,0.061035,-0.183105
5430586041,0.00195312,0.00300598,-1.00698853,0.427246,0.122070,0.061035
5435524458,0.00259399,0.00292969,-1.00599670,0.427246,-0.122070,-0.061035
5440595166,0.00279236,0.00329590,-1.00514221,0.244141,-0.061035,-0.244141
5445553958,0.00286865,0.00370789,-1.00590515,0.366211,0.061035,-0.061035
5450577791,0.00274658,0.00357056,-1.00726318,0.305176,0.000000,-0.061035
5455563333,0.00207520,0.00311279,-1.00724792,0.366211,0.122070,0.000000
5460540625,0.00151062,0.00303650,-1.00599670,0.244141,-0.061035,0.000000
5466036500,0.00178528,0.00329590,-1.00558472,0.183105,0.061035,0.061035
5470567958,0.00234985,0.00343323,-1.00653076,0.183105,0.122070,-0.061035
5475568500,0.00254822,0.00329590,-1.00711060,0.244141,-0.061035,-0.061035
5480564291,0.00244141,0.00299072,-1.00663757,0.244141,-0.061035,-0.122070
5485526625,0.00231934,0.00267029,-1.00628662,0.305176,0.061035,0.000000
5490574916,0.00251770,0.00247192,-1.00640869,0.305176,0.000000,-0.122070
5495532250,0.00265503,0.00244141,-1.00627136,0.366211,0.000000,-0.061035
5500525583,0.00233459,0.00245667,-1.00573730,0.427246,0.061035,-0.122070
5505563833,0.00190735,0.00241089,-1.00540161,0.366211,0.000000,-0.061035
5510564125,0.00161743,0.00225830,-1.00559998,0.183105,0.061035,-0.061035
5515574583,0.00117493,0.00228882,-1.00576782,0.122070,-0.122070,0.000000
5520580333,0.00082397,0.00265503,-1.00552368,0.366211,-0.061035,0.000000
5525572291,0.00119019,0.00285339,-1.00547791,0.427246,-0.061035,-0.122070
5530580833,0.00196838,0.00271606,-1.00624084,0.366211,0.122070,-0.122070
5535552250,0.00262451,0.00276184,-1.00697327,0.366211,0.061035,-0.122070
5540567750,0.00270081,0.00323486,-1.00642395,0.244141,0.183105,-0.061035
5545541333,0.00213623,0.00350952,-1.00508118,0.366211,0.122070,-0.122070
5550573166,0.00190735,0.00314331,-1.00465393,0.305176,0.061035,-0.183105
5555616583,0.00238037,0.00262451,-1.00546265,0.305176,0.061035,0.000000
5560616750,0.00289917,0.00230408,-1.00622559,0.488281,0.061035,-0.122070
5566102708,0.00314331,0.00209045,-1.00616455,0.366211,0.000000,-0.061035
5570639250,0.00344849,0.00204468,-1.00585938,0.183105,0.061035,-0.061035
5575599708,0.00363159,0.00198364,-1.00613403,0.305176,0.061035,0.000000
5580534291,0.00343323,0.00155640,-1.00659180,0.366211,0.000000,-0.061035
5585597583,0.00286865,0.00106812,-1.00648499,0.366211,0.000000,0.000000
5590592791,0.00228882,0.00106812,-1.00602722,0.366211,0.000000,-0.061035
5595560208,0.00228882,0.00157166,-1.00576782,0.305176,0.000000,0.061035
5600585208,0.00271606,0.00198364,-1.00559998,0.244141,-0.061035,-0.122070
5605576250,0.00294495,0.00219727,-1.00531006,0.366211,0.122070,0.000000
5610578333,0.00248718,0.00254822,-1.00508118,0.305176,0.122070,-0.122070
5615630708,0.00143433,0.00280762,-1.00520325,0.366211,0.122070,0.000000
5620571333,0.00093079,0.00280762,-1.00563049,0.183105,0.000000,-0.122070
5625592625,0.00135803,0.00285339,-1.00582886,0.305176,0.000000,-0.061035
5630620083,0.00187683,0.00296021,-1.00566101,0.305176,0.000000,0.061035
5635599458,0.00180054,0.00300598,-1.00566101,0.427246,0.122070,0.000000
5640611541,0.00119019,0.00315857,-1.00575256,0.305176,0.000000,-0.061035
5645588708,0.00062561,0.00326538,-1.00526428,0.244141,0.061035,-0.183105
5650609708,0.00061035,0.00321960,-1.00488281,0.244141,0.000000,-0.061035
5655606125,0.00119019,0.00308228,-1.00566101,0.122070,0.000000,0.000000
5660613625,0.00219727,0.00260925,-1.00663757,0.366211,0.061035,-0.061035
5665660375,0.00302124,0.00215149,-1.00654602,0.305176,0.061035,0.000000
5670603250,0.00302124,0.00218201,-1.00601196,0.244141,-0.061035,-0.122070
5675662125,0.00245667,0.00248718,-1.00604248,0.427246,0.000000,0.061035
5680533833,0.00196838,0.00262451,-1.00657654,0.305176,0.061035,-0.061035
5685616208,0.00190735,0.00260925,-1.00691223,0.305176,0.000000,-0.122070
5690635416,0.00216675,0.00251770,-1.00663757,0.366211,0.122070,-0.183105
5695627250,0.00225830,0.00228882,-1.00576782,0.427246,0.061035,-0.122070
5700591541,0.00181580,0.00202942,-1.00532532,0.122070,-0.061035,0.000000
5705612166,0.00137329,0.00190735,-1.00602722,0.305176,0.061035,-0.061035
5710626541,0.00160217,0.00201416,-1.00675964,0.305176,0.122070,-0.183105
5715620916,0.00216675,0.00247192,-1.00636292,0.183105,0.000000,-0.061035
5720637250,0.00225830,0.00325012,-1.00567627,0.244141,0.000000,-0.061035
5725591625,0.00202942,0.00379944,-1.00588989,0.244141,0.061035,-0.061035
5730591958,0.00180054,0.00367737,-1.00666809,0.183105,-0.122070,0.000000
5735600708,0.00152588,0.00306702,-1.00669861,0.366211,0.000000,-0.122070
5740657000,0.00120544,0.00260925,-1.00584412,0.366211,0.000000,-0.122070
5745629541,0.00123596,0.00283813,-1.00576782,0.366211,0.000000,0.000000
5750628000,0.00190735,0.00315857,-1.00718689,0.244141,0.183105,0.000000
5755636125,0.00260925,0.00291443,-1.00801086,0.427246,0.122070,-0.061035
5760597708,0.00256348,0.00250244,-1.00671387,0.427246,-0.061035,-0.061035
5765659125,0.00184631,0.00234985,-1.00500488,0.366211,0.061035,0.000000
5770601750,0.00097656,0.00239563,-1.00491333,0.305176,0.061035,0.000000
5775659208,0.00073242,0.00247192,-1.00590515,0.305176,0.122070,0.122070
5780567333,0.00119019,0.00251770,-1.00608826,0.427246,0.183105,-0.122070
5785632708,0.00170898,0.00260925,-1.00503540,0.305176,0.061035,0.000000
5790710583,0.00222778,0.00286865,-1.00469971,0.366211,0.122070,0.000000
5795664291,0.00283813,0.00320435,-1.00588989,0.305176,0.061035,-0.122070
5800624125,0.00328064,0.00341797,-1.00697327,0.366211,0.000000,-0.122070
5805637250,0.00305176,0.00335693,-1.00666809,0.305176,0.122070,-0.061035
5810652541,0.00230408,0.00300598,-1.00576782,0.305176,0.122070,-0.061035
5815652208,0.00184631,0.00268555,-1.00549316,0.427246,0.122070,-0.183105
5820650916,0.00193787,0.00288391,-1.00561523,0.366211,0.000000,-0.061035
5825599500,0.00239563,0.00314331,-1.00563049,0.305176,-0.061035,-0.061035
5830656958,0.00274658,0.00291443,-1.00584412,0.244141,0.122070,-0.183105
5835618166,0.00251770,0.00259399,-1.00637817,0.427246,0.122070,0.000000
5840639041,0.00192261,0.00282288,-1.00657654,0.305176,0.061035,-0.122070
5845659375,0.00146484,0.00341797,-1.00604248,0.427246,0.000000,0.000000
5850623833,0.00120544,0.00384521,-1.00555420,0.366211,0.061035,-0.061035
5855658375,0.00086975,0.00363159,-1.00598145,0.122070,0.000000,-0.061035
5860662541,0.00085449,0.00291443,-1.00680542,0.305176,0.183105,0.000000
5865811583,0.00137329,0.00260925,-1.00674438,0.244141,0.000000,-0.061035
5870661416,0.00164795,0.00299072,-1.00598145,0.305176,-0.061035,0.000000
5875910208,0.00132751,0.00311279,-1.00605774,0.366211,0.061035,-0.061035
5880571000,0.00099182,0.00248718,-1.00712585,0.366211,0.000000,-0.122070
5885645583,0.00111389,0.00181580,-1.00761414,0.183105,0.122070,-0.183105
5890665500,0.00158691,0.00187683,-1.00669861,0.427246,0.122070,-0.061035
5895661291,0.00199890,0.00230408,-1.00566101,0.305176,0.122070,-0.061035
5900644083,0.00245667,0.00251770,-1.00567627,0.427246,-0.061035,0.000000
5905638958,0.00321960,0.00248718,-1.00607300,0.122070,0.000000,-0.122070
5910639708,0.00367737,0.00257874,-1.00575256,0.183105,0.000000,-0.061035
5915684375,0.00338745,0.00297546,-1.00529480,0.305176,0.122070,-0.061035
5920643541,0.00291443,0.00350952,-1.00570679,0.244141,0.061035,0.000000
5925676541,0.00256348,0.00358582,-1.00648499,0.427246,0.122070,-0.183105
5930683250,0.00219727,0.00296021,-1.00646973,0.427246,0.061035,-0.122070
5935735416,0.00210571,0.00230408,-1.00569153,0.366211,0.061035,0.122070
5940634875,0.00247192,0.00241089,-1.00526428,0.366211,0.061035,-0.122070
5945649666,0.00274658,0.00288391,-1.00567627,0.366211,0.122070,0.122070
5950680541,0.00219727,0.00288391,-1.00588989,0.305176,-0.061035,-0.122070
5955675666,0.00117493,0.00254822,-1.00524902,0.244141,0.000000,-0.183105
5960683208,0.00108337,0.00227356,-1.00495911,0.244141,0.122070,0.000000
5965689791,0.00190735,0.00205994,-1.00602722,0.244141,0.183105,-0.061035
5970789625,0.00245667,0.00195312,-1.00712585,0.366211,0.122070,-0.122070
5975675416,0.00230408,0.00212097,-1.00657654,0.366211,0.061035,-0.122070
5980657291,0.00192261,0.00231934,-1.00520325,0.427246,0.061035,-0.183105
5985694458,0.00161743,0.00222778,-1.00527954,0.427246,0.061035,-0.122070
5990666750,0.00144958,0.00215149,-1.00631714,0.305176,0.061035,0.061035
5995684666,0.00149536,0.00245667,-1.00622559,0.305176,0.000000,-0.061035
6000651416,0.00169373,0.00267029,-1.00547791,0.366211,-0.061035,-0.061035
6005661875,0.00195312,0.00259399,-1.00599670,0.244141,-0.061035,0.000000
6010688875,0.00241089,0.00277710,-1.00715637,0.305176,0.061035,-0.061035
6015681625,0.00286865,0.00354004,-1.00711060,0.366211,0.000000,-0.061035
6020657375,0.00305176,0.00402832,-1.00610352,0.183105,-0.061035,-0.183105
6025675666,0.00280762,0.00376892,-1.00550842,0.244141,0.122070,-0.122070
6030686416,0.00231934,0.00340271,-1.00601196,0.305176,0.122070,-0.122070
6035647041,0.00225830,0.00332642,-1.00686646,0.549316,0.122070,0.000000
6040780916,0.00265503,0.00338745,-1.00660706,0.183105,-0.061035,-0.122070
6045646291,0.00286865,0.00335693,-1.00540161,0.244141,0.061035,-0.122070
6050668500,0.00263977,0.00291443,-1.00477600,0.305176,0.061035,-0.061035
6055712166,0.00222778,0.00228882,-1.00518799,0.244141,-0.122070,-0.122070
6060710583,0.00195312,0.00225830,-1.00582886,0.305176,0.000000,0.000000
6065681375,0.00187683,0.00271606,-1.00611877,0.305176,0.061035,-0.061035
6070688291,0.00157166,0.00299072,-1.00633240,0.305176,0.000000,-0.122070
6075693958,0.00109863,0.00289917,-1.00688171,0.305176,0.000000,-0.061035
6080687166,0.00071716,0.00259399,-1.00724792,0.427246,0.061035,0.000000
6085667416,0.00039673,0.00238037,-1.00672913,0.244141,0.122070,-0.061035
6090709041,0.00056458,0.00219727,-1.00614929,0.244141,-0.061035,-0.061035
6095699250,0.00134277,0.00216675,-1.00646973,0.366211,0.122070,0.061035
6100661041,0.00184631,0.00268555,-1.00679016,0.305176,0.061035,-0.122070
6105685875,0.00187683,0.00335693,-1.00631714,0.244141,-0.061035,0.000000
6110710208,0.00158691,0.00346375,-1.00570679,0.366211,0.122070,-0.122070
6115660416,0.00132751,0.00326538,-1.00576782,0.366211,0.000000,-0.183105
6120674958,0.00169373,0.00306702,-1.00643921,0.549316,0.061035,-0.061035
6125675708,0.00228882,0.00297546,-1.00659180,0.366211,0.061035,0.000000
6130699708,0.00260925,0.00296021,-1.00567627,0.183105,0.061035,0.061035
6135682916,0.00296021,0.00294495,-1.00512695,0.366211,0.000000,0.061035
6140705041,0.00350952,0.00297546,-1.00593567,0.305176,0.061035,-0.183105
6145729000,0.00347900,0.00268555,-1.00683594,0.244141,0.061035,0.000000
6150704791,0.00257874,0.00192261,-1.00677490,0.366211,0.061035,0.000000
6155714500,0.00154114,0.00126648,-1.00604248,0.305176,0.000000,-0.122070
6160711833,0.00119019,0.00125122,-1.00572205,0.244141,0.183105,-0.061035
6165703000,0.00152588,0.00163269,-1.00634766,0.305176,0.061035,-0.122070
6170700166,0.00173950,0.00190735,-1.00674438,0.244141,-0.061035,-0.122070
6175736166,0.00154114,0.00215149,-1.00611877,0.305176,0.061035,-0.061035
6180715416,0.00119019,0.00233459,-1.00556946,0.244141,0.061035,0.000000
6185714041,0.00111389,0.00221252,-1.00598145,0.366211,0.061035,-0.061035
6190737000,0.00160217,0.00202942,-1.00627136,0.366211,0.061035,0.000000
6195783000,0.00224304,0.00216675,-1.00561523,0.183105,-0.061035,-0.122070
6200712208,0.00250244,0.00241089,-1.00511169,0.305176,0.000000,-0.061035
6205742833,0.00234985,0.00262451,-1.00550842,0.305176,0.061035,-0.061035
6210751958,0.00219727,0.00283813,-1.00601196,0.366211,-0.061035,-0.122070
6215726791,0.00201416,0.00294495,-1.00587463,0.305176,0.000000,-0.061035
6220734666,0.00178528,0.00297546,-1.00556946,0.427246,-0.183105,0.000000
6225745958,0.00186157,0.00317383,-1.00573730,0.244141,0.061035,-0.061035
6230708958,0.00233459,0.00370789,-1.00611877,0.305176,0.122070,-0.244141
6235701500,0.00282288,0.00411987,-1.00598145,0.244141,0.061035,-0.244141
6240752916,0.00297546,0.00387573,-1.00537109,0.305176,0.122070,-0.061035
6245733958,0.00267029,0.00332642,-1.00514221,0.366211,0.000000,-0.061035
6250742041,0.00221252,0.00299072,-1.00552368,0.366211,0.122070,-0.122070
6255719000,0.00219727,0.00288391,-1.00608826,0.305176,0.183105,-0.122070
6260731083,0.00260925,0.00276184,-1.00625610,0.244141,0.061035,-0.122070
6265736208,0.00280762,0.00253296,-1.00628662,0.549316,0.061035,-0.061035
6270721625,0.00260925,0.00230408,-1.00663757,0.427246,0.183105,0.061035
6275722125,0.00241089,0.00192261,-1.00695801,0.305176,-0.061035,0.000000
6280711375,0.00225830,0.00154114,-1.00680542,0.305176,0.000000,0.000000
6285718000,0.00170898,0.00151062,-1.00653076,0.305176,0.122070,0.000000
6290738083,0.00112915,0.00193787,-1.00668335,0.366211,0.000000,-0.122070
6295718958,0.00137329,0.00239563,-1.00682068,0.366211,0.244141,0.061035
6300770416,0.00193787,0.00254822,-1.00598145,0.183105,0.061035,-0.183105
6305730375,0.00177002,0.00263977,-1.00485229,0.183105,0.122070,0.061035
6310733166,0.00135803,0.00292969,-1.00486755,0.366211,0.183105,-0.122070
6315756541,0.00163269,0.00331116,-1.00607300,0.305176,0.000000,-0.122070
6320715125,0.00207520,0.00346375,-1.00691223,0.427246,0.122070,-0.061035
6325747500,0.00190735,0.00335693,-1.00640869,0.366211,0.061035,0.000000
6330756333,0.00170898,0.00311279,-1.00556946,0.244141,-0.061035,-0.061035
6335732625,0.00207520,0.00309753,-1.00537109,0.366211,0.122070,0.000000
6340764166,0.00267029,0.00328064,-1.00534058,0.183105,0.061035,-0.122070
6345751291,0.00285339,0.00321960,-1.00509644,0.305176,0.122070,0.000000
6350739250,0.00262451,0.00283813,-1.00508118,0.305176,-0.061035,0.000000
6355729625,0.00245667,0.00250244,-1.00570679,0.305176,0.061035,0.000000
6360734375,0.00241089,0.00234985,-1.00645447,0.305176,0.000000,0.061035
6365747166,0.00224304,0.00216675,-1.00663757,0.366211,0.000000,-0.122070
6370751000,0.00212097,0.00219727,-1.00639343,0.305176,0.122070,-0.122070
6375758125,0.00236511,0.00245667,-1.00608826,0.305176,0.061035,-0.061035
6380801333,0.00244141,0.00254822,-1.00601196,0.305176,-0.061035,0.000000
6385733041,0.00205994,0.00253296,-1.00617981,0.305176,0.122070,-0.122070
6390748625,0.00158691,0.00273132,-1.00625610,0.183105,0.000000,-0.061035
6395768791,0.00143433,0.00315857,-1.00627136,0.305176,0.000000,-0.183105
6400720333,0.00157166,0.00341797,-1.00614929,0.366211,0.000000,-0.061035
6405741041,0.00152588,0.00326538,-1.00550842,0.122070,0.000000,0.000000
6410775458,0.00152588,0.00299072,-1.00498962,0.305176,-0.183105,0.000000
6415769375,0.00177002,0.00283813,-1.00521851,0.183105,0.122070,0.061035
6420743500,0.00190735,0.00265503,-1.00550842,0.244141,0.122070,-0.122070
6425739583,0.00163269,0.00245667,-1.00541687,0.305176,0.061035,-0.061035
6430779291,0.00146484,0.00248718,-1.00540161,0.427246,0.061035,-0.061035
6435758291,0.00177002,0.00242615,-1.00584412,0.244141,-0.122070,0.061035
6440791208,0.00210571,0.00216675,-1.00642395,0.305176,0.122070,0.000000
6445758125,0.00247192,0.00225830,-1.00662231,0.427246,0.122070,-0.061035
6450773916,0.00282288,0.00274658,-1.00614929,0.366211,0.122070,0.000000
6455816875,0.00283813,0.00328064,-1.00576782,0.244141,0.061035,0.000000
6460744708,0.00242615,0.00355530,-1.00602722,0.244141,-0.061035,-0.061035
6465770125,0.00219727,0.00325012,-1.00640869,0.366211,0.122070,0.000000
6470768166,0.00231934,0.00271606,-1.00636292,0.366211,0.183105,0.061035
6475752041,0.00239563,0.00270081,-1.00593567,0.244141,0.183105,-0.122070
6480740250,0.00219727,0.00325012,-1.00566101,0.061035,0.000000,-0.061035
6485757000,0.00196838,0.00375366,-1.00602722,0.366211,0.000000,0.000000
6490751500,0.00189209,0.00358582,-1.00640869,0.244141,0.000000,-0.061035
6495774916,0.00183105,0.00286865,-1.00614929,0.488281,0.000000,-0.061035
6500775583,0.00172424,0.00250244,-1.00582886,0.366211,0.061035,0.061035
6505862791,0.00183105,0.00270081,-1.00613403,0.305176,0.000000,-0.122070
6510768375,0.00238037,0.00302124,-1.00640869,0.366211,-0.122070,-0.122070
6515747166,0.00303650,0.00320435,-1.00567627,0.244141,-0.061035,-0.122070
6520745916,0.00309753,0.00308228,-1.00462341,0.366211,0.122070,-0.244141
6525751500,0.00248718,0.00273132,-1.00466919,0.244141,0.000000,0.000000
6530784083,0.00180054,0.00250244,-1.00575256,0.366211,0.061035,0.000000
6535771291,0.00141907,0.00262451,-1.00654602,0.427246,0.000000,0.000000
6540793958,0.00122070,0.00271606,-1.00592041,0.244141,0.122070,-0.122070
6545779125,0.00120544,0.00241089,-1.00508118,0.305176,0.061035,-0.061035
6550945458,0.00146484,0.00224304,-1.00566101,0.366211,0.061035,0.122070
6555831791,0.00180054,0.00254822,-1.00617981,0.305176,0.061035,0.000000
6560803541,0.00204468,0.00277710,-1.00567627,0.244141,0.061035,-0.122070
6565775041,0.00239563,0.00274658,-1.00607300,0.305176,0.183105,0.000000
6570844625,0.00271606,0.00309753,-1.00718689,0.305176,0.061035,-0.061035
6575842750,0.00267029,0.00390625,-1.00735474,0.427246,0.061035,0.061035
6580782000,0.00245667,0.00434875,-1.00663757,0.305176,0.000000,-0.061035
6585801666,0.00228882,0.00404358,-1.00532532,0.305176,0.000000,-0.183105
6590803125,0.00202942,0.00354004,-1.00419617,0.244141,0.061035,-0.122070
6595834625,0.00167847,0.00340271,-1.00465393,0.183105,0.000000,-0.061035
6600810750,0.00152588,0.00326538,-1.00602722,0.244141,-0.061035,-0.061035
6605887083,0.00172424,0.00280762,-1.00640869,0.305176,0.000000,-0.061035
6610846541,0.00178528,0.00254822,-1.00599670,0.305176,0.000000,-0.061035
6615808833,0.00128174,0.00267029,-1.00608826,0.488281,0.061035,-0.061035
6620832583,0.00080872,0.00260925,-1.00639343,0.305176,0.000000,0.061035
6625869458,0.00096130,0.00209045,-1.00614929,0.244141,0.000000,-0.122070
6630805750,0.00161743,0.00151062,-1.00556946,0.244141,0.000000,-0.183105
6635809958,0.00219727,0.00115967,-1.00593567,0.366211,-0.061035,0.000000
6640841000,0.00221252,0.00117493,-1.00726318,0.427246,0.000000,-0.061035
6645810041,0.00205994,0.00157166,-1.00781250,0.305176,0.122070,0.000000
6650819958,0.00224304,0.00183105,-1.00669861,0.366211,0.122070,0.000000
6655800125,0.00242615,0.00152588,-1.00566101,0.244141,-0.061035,-0.122070
6660784541,0.00198364,0.00128174,-1.00599670,0.305176,0.000000,-0.122070
6665785875,0.00151062,0.00157166,-1.00578308,0.305176,0.061035,0.122070
6670855416,0.00193787,0.00205994,-1.00433350,0.366211,-0.061035,-0.122070
6675839208,0.00241089,0.00263977,-1.00381470,0.427246,0.061035,0.000000
6680841875,0.00210571,0.00315857,-1.00534058,0.305176,0.000000,0.000000
6685817916,0.00181580,0.00341797,-1.00729370,0.183105,-0.061035,0.000000
6690879250,0.00218201,0.00366211,-1.00730896,0.305176,0.061035,0.061035
6695830625,0.00248718,0.00390625,-1.00552368,0.183105,-0.061035,-0.061035
6700863500,0.00207520,0.00413513,-1.00459290,0.305176,0.000000,0.000000
6705839125,0.00149536,0.00419617,-1.00561523,0.366211,0.000000,0.000000
6710870958,0.00134277,0.00401306,-1.00642395,0.244141,0.061035,-0.122070
6715805625,0.00180054,0.00364685,-1.00569153,0.366211,0.061035,0.061035
6720819375,0.00260925,0.00312805,-1.00515747,0.305176,0.061035,0.000000
6725834208,0.00326538,0.00265503,-1.00617981,0.122070,-0.061035,-0.061035
6730837625,0.00326538,0.00256348,-1.00727844,0.366211,-0.061035,-0.122070
6735840750,0.00276184,0.00253296,-1.00680542,0.305176,0.000000,-0.061035
6741015375,0.00242615,0.00222778,-1.00563049,0.244141,0.000000,-0.183105
6745841125,0.00251770,0.00193787,-1.00558472,0.305176,0.061035,0.000000
6750814458,0.00247192,0.00187683,-1.00662231,0.305176,0.000000,-0.122070
6755868500,0.00177002,0.00192261,-1.00706482,0.305176,0.000000,-0.061035
6760927416,0.00125122,0.00204468,-1.00627136,0.366211,0.122070,0.061035
6766011833,0.00186157,0.00228882,-1.00556946,0.427246,0.122070,-0.122070
6771073833,0.00297546,0.00259399,-1.00590515,0.244141,-0.061035,-0.122070
6775929708,0.00338745,0.00285339,-1.00633240,0.305176,0.061035,-0.061035
6780880291,0.00276184,0.00296021,-1.00558472,0.366211,0.000000,-0.122070
6785956500,0.00186157,0.00306702,-1.00462341,0.244141,0.061035,-0.122070
6790922541,0.00169373,0.00344849,-1.00531006,0.366211,0.122070,0.000000
6795864208,0.00213623,0.00384521,-1.00688171,0.366211,0.000000,0.061035
6801038458,0.00233459,0.00392151,-1.00685120,0.305176,0.122070,0.061035
6806050833,0.00202942,0.00363159,-1.00534058,0.183105,0.061035,-0.061035
6810869791,0.00157166,0.00320435,-1.00465393,0.305176,0.061035,0.000000
6821224333,0.00151062,0.00277710,-1.00552368,0.305176,0.061035,-0.122070
6821236333,0.00187683,0.00248718,-1.00646973,0.305176,0.061035,0.000000
6825952166,0.00212097,0.00247192,-1.00630188,0.244141,-0.061035,-0.183105
6830915750,0.00231934,0.00271606,-1.00599670,0.366211,-0.061035,-0.061035
6836853541,0.00257874,0.00279236,-1.00672913,0.244141,0.122070,-0.122070
6840967916,0.00251770,0.00254822,-1.00735474,0.366211,0.000000,0.000000
6845933375,0.00219727,0.00221252,-1.00651550,0.427246,-0.061035,0.000000
6850953916,0.00216675,0.00207520,-1.00531006,0.366211,0.061035,-0.061035
6855925500,0.00230408,0.00251770,-1.00529480,0.305176,0.122070,-0.122070
6860883791,0.00224304,0.00306702,-1.00613403,0.427246,0.122070,0.000000
6865920458,0.00231934,0.00299072,-1.00631714,0.244141,0.061035,0.000000
6871454041,0.00262451,0.00263977,-1.00521851,0.183105,0.061035,0.000000
6875895750,0.00256348,0.00271606,-1.00451660,0.244141,0.000000,-0.122070
6880990625,0.00224304,0.00289917,-1.00535583,0.244141,0.061035,-0.061035
6885980791,0.00221252,0.00282288,-1.00624084,0.305176,0.000000,-0.122070
6890934791,0.00238037,0.00279236,-1.00570679,0.366211,0.061035,-0.122070
6895871875,0.00241089,0.00297546,-1.00468445,0.183105,0.000000,-0.061035
6900883791,0.00216675,0.00337219,-1.00488281,0.427246,0.061035,0.000000
6905921041,0.00175476,0.00387573,-1.00596619,0.305176,0.000000,0.000000
6910883291,0.00141907,0.00402832,-1.00640869,0.366211,0.000000,0.061035
6916318166,0.00143433,0.00352478,-1.00636292,0.366211,0.061035,-0.061035
6920855583,0.00170898,0.00279236,-1.00659180,0.244141,0.122070,-0.122070
6925852000,0.00177002,0.00238037,-1.00680542,0.183105,-0.061035,-0.122070
6930851625,0.00163269,0.00234985,-1.00651550,0.305176,0.000000,-0.061035
6935849083,0.00181580,0.00251770,-1.00605774,0.183105,0.000000,-0.061035
6940842041,0.00210571,0.00286865,-1.00611877,0.366211,0.122070,-0.122070
6945823458,0.00192261,0.00326538,-1.00668335,0.305176,0.061035,-0.122070
6950841791,0.00158691,0.00344849,-1.00672913,0.305176,-0.061035,-0.061035
6955830625,0.00164795,0.00331116,-1.00587463,0.427246,-0.061035,-0.122070
6960943333,0.00192261,0.00308228,-1.00514221,0.244141,0.122070,-0.061035
6965877750,0.00219727,0.00321960,-1.00527954,0.244141,0.000000,-0.122070
6970931250,0.00234985,0.00350952,-1.00576782,0.366211,0.000000,0.061035
6975884625,0.00221252,0.00332642,-1.00607300,0.366211,0.061035,-0.122070
6980900208,0.00202942,0.00294495,-1.00625610,0.427246,0.122070,0.000000
6985843916,0.00207520,0.00300598,-1.00637817,0.244141,-0.061035,-0.061035
6990848541,0.00221252,0.00312805,-1.00639343,0.305176,0.061035,-0.061035
6995854666,0.00224304,0.00273132,-1.00630188,0.366211,-0.122070,-0.061035
7000907500,0.00193787,0.00231934,-1.00602722,0.244141,0.061035,-0.061035
7005884958,0.00175476,0.00230408,-1.00593567,0.366211,0.061035,-0.183105
7010876291,0.00209045,0.00244141,-1.00637817,0.305176,0.061035,0.000000
7016007250,0.00244141,0.00265503,-1.00700378,0.366211,0.061035,0.000000
7020955583,0.00238037,0.00273132,-1.00709534,0.305176,0.122070,-0.122070
7025844083,0.00180054,0.00257874,-1.00637817,0.183105,-0.061035,-0.122070
7030849333,0.00132751,0.00231934,-1.00555420,0.244141,0.061035,-0.122070
7035852166,0.00169373,0.00198364,-1.00538635,0.305176,-0.061035,-0.122070
7040861750,0.00233459,0.00180054,-1.00567627,0.305176,0.061035,-0.122070
7045933541,0.00247192,0.00219727,-1.00578308,0.183105,0.122070,-0.122070
7050944166,0.00227356,0.00279236,-1.00559998,0.366211,-0.061035,-0.061035
7055940916,0.00244141,0.00303650,-1.00561523,0.183105,0.061035,-0.061035
7060901791,0.00302124,0.00300598,-1.00581360,0.427246,0.000000,-0.122070
7065898625,0.00328064,0.00308228,-1.00590515,0.366211,0.122070,0.000000
7070918708,0.00289917,0.00314331,-1.00596619,0.427246,0.122070,-0.061035
7075900875,0.00224304,0.00300598,-1.00621033,0.244141,0.000000,-0.122070
7080877916,0.00143433,0.00280762,-1.00642395,0.244141,0.061035,-0.061035
7085918625,0.00100708,0.00256348,-1.00622559,0.366211,-0.061035,-0.122070
7090935916,0.00164795,0.00248718,-1.00595093,0.183105,-0.061035,-0.061035
7095899916,0.00285339,0.00259399,-1.00608826,0.122070,0.000000,0.000000
7100886833,0.00338745,0.00268555,-1.00636292,0.244141,0.061035,-0.122070
7105890500,0.00257874,0.00282288,-1.00616455,0.244141,0.244141,0.000000
7110891333,0.00134277,0.00283813,-1.00559998,0.244141,0.183105,-0.244141
7115876458,0.00096130,0.00262451,-1.00553894,0.183105,-0.061035,0.000000
7120922041,0.00131226,0.00242615,-1.00610352,0.244141,-0.061035,-0.061035
7125936458,0.00178528,0.00244141,-1.00656128,0.366211,-0.183105,-0.122070
7130934166,0.00212097,0.00279236,-1.00621033,0.122070,-0.061035,-0.244141
7135912833,0.00234985,0.00340271,-1.00534058,0.244141,0.000000,-0.183105
7140943666,0.00227356,0.00404358,-1.00497437,0.244141,0.122070,-0.183105
7145883791,0.00207520,0.00425720,-1.00546265,0.305176,0.061035,0.000000
7150887083,0.00218201,0.00392151,-1.00616455,0.305176,0.000000,-0.061035
7155955833,0.00256348,0.00328064,-1.00636292,0.305176,0.061035,-0.122070
7160927916,0.00312805,0.00253296,-1.00590515,0.244141,0.000000,0.061035
7165918208,0.00343323,0.00202942,-1.00527954,0.244141,0.122070,-0.122070
7170915833,0.00308228,0.00224304,-1.00500488,0.305176,0.000000,-0.122070
7175982250,0.00253296,0.00291443,-1.00544739,0.305176,0.061035,-0.122070
7180929250,0.00222778,0.00308228,-1.00613403,0.183105,0.000000,-0.122070
7185932916,0.00196838,0.00288391,-1.00602722,0.244141,-0.061035,0.061035
7190941750,0.00177002,0.00308228,-1.00523376,0.366211,0.061035,0.000000
7195924041,0.00160217,0.00300598,-1.00511169,0.305176,0.061035,-0.061035
7200911750,0.00148010,0.00219727,-1.00593567,0.244141,-0.061035,-0.122070
7205938208,0.00146484,0.00178528,-1.00657654,0.244141,0.000000,0.000000
7210946166,0.00178528,0.00233459,-1.00621033,0.305176,0.061035,-0.061035
7215888666,0.00245667,0.00306702,-1.00559998,0.366211,0.183105,0.000000
7220959291,0.00267029,0.00352478,-1.00593567,0.122070,0.061035,0.000000
7225941333,0.00218201,0.00375366,-1.00700378,0.183105,0.000000,-0.183105
7230971166,0.00172424,0.00372314,-1.00715637,0.305176,0.122070,-0.244141
7235915666,0.00170898,0.00384521,-1.00619507,0.366211,0.061035,-0.061035
7240968375,0.00172424,0.00407410,-1.00582886,0.305176,0.183105,0.000000
7245945000,0.00161743,0.00405884,-1.00657654,0.244141,0.061035,-0.122070
7250921125,0.00183105,0.00384521,-1.00715637,0.305176,0.000000,-0.122070
7255951000,0.00222778,0.00334167,-1.00669861,0.427246,0.000000,-0.061035
7260955583,0.00227356,0.00250244,-1.00590515,0.183105,0.000000,-0.061035
7265953000,0.00221252,0.00201416,-1.00581360,0.305176,-0.061035,0.000000
7270934208,0.00227356,0.00216675,-1.00621033,0.305176,-0.061035,-0.061035
7275968041,0.00212097,0.00216675,-1.00619507,0.305176,0.061035,-0.061035
7280953708,0.00157166,0.00140381,-1.00556946,0.305176,0.061035,-0.061035
7285969583,0.00105286,0.00082397,-1.00535583,0.244141,0.061035,-0.061035
7290961541,0.00090027,0.00134277,-1.00592041,0.366211,0.000000,-0.061035
7295946458,0.00111389,0.00239563,-1.00621033,0.305176,-0.061035,-0.122070
7300973833,0.00126648,0.00302124,-1.00575256,0.183105,0.000000,-0.122070
7305965875,0.00122070,0.00305176,-1.00552368,0.366211,0.061035,0.000000
7310937083,0.00131226,0.00283813,-1.00613403,0.305176,0.000000,-0.122070
7315951791,0.00163269,0.00244141,-1.00692749,0.305176,0.061035,0.000000
7320951916,0.00192261,0.00222778,-1.00672913,0.305176,0.061035,-0.061035
7325940458,0.00202942,0.00251770,-1.00611877,0.305176,0.000000,-0.183105
7330986375,0.00228882,0.00289917,-1.00651550,0.305176,0.122070,-0.061035
7335926250,0.00283813,0.00311279,-1.00637817,0.366211,0.000000,-0.183105
7340972750,0.00302124,0.00354004,-1.00524902,0.244141,0.061035,0.000000
7345934583,0.00285339,0.00425720,-1.00524902,0.427246,0.000000,0.000000
7350946500,0.00273132,0.00440979,-1.00639343,0.244141,0.122070,0.183105
7355950666,0.00241089,0.00358582,-1.00750732,0.305176,0.122070,0.061035
7360927625,0.00201416,0.00273132,-1.00778198,0.244141,-0.122070,0.000000
7365988250,0.00202942,0.00277710,-1.00651550,0.305176,0.061035,-0.183105
7370953916,0.00201416,0.00312805,-1.00488281,0.488281,0.061035,0.000000
7375952416,0.00160217,0.00311279,-1.00520325,0.366211,0.061035,-0.061035
7380969541,0.00128174,0.00288391,-1.00668335,0.305176,0.000000,-0.061035
7385955416,0.00173950,0.00267029,-1.00672913,0.427246,0.122070,0.061035
7390995000,0.00268555,0.00250244,-1.00555420,0.366211,0.183105,-0.061035
7395976958,0.00280762,0.00253296,-1.00518799,0.305176,0.061035,-0.061035
7400937583,0.00192261,0.00285339,-1.00592041,0.305176,-0.061035,-0.061035
7405981500,0.00108337,0.00280762,-1.00659180,0.305176,0.061035,-0.122070
7410951791,0.00106812,0.00238037,-1.00630188,0.366211,0.122070,-0.122070
7415976875,0.00181580,0.00239563,-1.00567627,0.427246,0.061035,-0.061035
7420935416,0.00277710,0.00273132,-1.00581360,0.122070,0.000000,-0.061035
7425989291,0.00331116,0.00296021,-1.00631714,0.183105,0.061035,-0.122070
7430961458,0.00306702,0.00321960,-1.00610352,0.366211,0.061035,-0.061035
7435961000,0.00265503,0.00347900,-1.00582886,0.305176,0.061035,-0.061035
7441015958,0.00267029,0.00350952,-1.00642395,0.244141,-0.061035,0.000000
7445978208,0.00277710,0.00337219,-1.00709534,0.488281,0.000000,-0.122070
7450982416,0.00251770,0.00303650,-1.00675964,0.305176,0.000000,0.000000
7455991333,0.00230408,0.00273132,-1.00555420,0.244141,0.061035,-0.122070
7460980750,0.00244141,0.00265503,-1.00474548,0.305176,0.122070,-0.183105
7466006500,0.00227356,0.00238037,-1.00526428,0.305176,0.000000,-0.061035
7470968416,0.00172424,0.00180054,-1.00624084,0.244141,0.000000,-0.061035
7476010083,0.00138855,0.00146484,-1.00637817,0.427246,0.061035,0.061035
7480962625,0.00146484,0.00169373,-1.00582886,0.488281,0.122070,-0.061035
7486050166,0.00180054,0.00241089,-1.00582886,0.183105,0.122070,0.000000
7491011083,0.00216675,0.00317383,-1.00651550,0.305176,0.061035,0.000000
7495967291,0.00222778,0.00335693,-1.00630188,0.183105,0.183105,-0.122070
7500966666,0.00192261,0.00289917,-1.00495911,0.305176,0.000000,0.000000
7506046750,0.00186157,0.00245667,-1.00450134,0.305176,0.000000,0.000000
7511021250,0.00205994,0.00241089,-1.00564575,0.427246,-0.061035,-0.061035
7515975875,0.00221252,0.00291443,-1.00645447,0.366211,0.000000,-0.061035
7520983000,0.00263977,0.00375366,-1.00570679,0.305176,0.000000,-0.061035
7525994708,0.00314331,0.00422668,-1.00495911,0.122070,0.061035,-0.122070
7530975000,0.00314331,0.00401306,-1.00590515,0.427246,0.061035,-0.122070
7536005875,0.00288391,0.00370789,-1.00730896,0.366211,0.061035,0.061035
7541000458,0.00296021,0.00360107,-1.00694275,0.366211,0.000000,0.061035
7545996875,0.00296021,0.00335693,-1.00584412,0.244141,-0.061035,0.000000
7551006875,0.00238037,0.00302124,-1.00601196,0.366211,0.000000,-0.122070
7556006666,0.00187683,0.00276184,-1.00677490,0.305176,0.122070,0.061035
7560990041,0.00219727,0.00238037,-1.00653076,0.122070,0.000000,-0.061035
7566023083,0.00294495,0.00186157,-1.00543213,0.183105,0.000000,-0.061035
7571023916,0.00325012,0.00164795,-1.00479126,0.366211,0.061035,-0.122070
7576002500,0.00291443,0.00180054,-1.00532532,0.305176,0.061035,-0.122070
7580987208,0.00230408,0.00190735,-1.00592041,0.305176,0.061035,-0.061035
7586053000,0.00192261,0.00166321,-1.00563049,0.305176,0.000000,0.000000
7591163333,0.00173950,0.00126648,-1.00518799,0.366211,0.061035,-0.061035
7595979291,0.00131226,0.00122070,-1.00556946,0.305176,0.000000,-0.122070
7600993750,0.00076294,0.00161743,-1.00613403,0.244141,0.000000,0.000000
7605980916,0.00079346,0.00222778,-1.00588989,0.305176,0.061035,-0.061035
7610999500,0.00129700,0.00291443,-1.00523376,0.427246,0.061035,-0.061035
7615989125,0.00186157,0.00335693,-1.00534058,0.366211,0.000000,-0.061035
7620956166,0.00247192,0.00332642,-1.00617981,0.366211,0.122070,0.000000
7626038500,0.00271606,0.00320435,-1.00642395,0.244141,0.000000,-0.061035
7631028625,0.00228882,0.00328064,-1.00590515,0.305176,0.000000,-0.061035
7636014833,0.00180054,0.00326538,-1.00598145,0.244141,0.000000,0.000000
7641054625,0.00187683,0.00302124,-1.00682068,0.183105,0.061035,0.000000
7646020166,0.00215149,0.00280762,-1.00737000,0.366211,-0.061035,-0.122070
7651007916,0.00239563,0.00294495,-1.00709534,0.244141,0.000000,-0.122070
7656019958,0.00244141,0.00302124,-1.00668335,0.244141,0.061035,-0.122070
7661019833,0.00218201,0.00271606,-1.00685120,0.488281,0.183105,0.000000
7666021958,0.00210571,0.00238037,-1.00709534,0.366211,0.122070,-0.122070
7671036083,0.00247192,0.00210571,-1.00669861,0.305176,0.061035,-0.122070
7676033041,0.00283813,0.00167847,-1.00611877,0.305176,0.000000,-0.061035
7681041041,0.00273132,0.00149536,-1.00608826,0.427246,0.000000,-0.061035
7686064041,0.00236511,0.00192261,-1.00645447,0.244141,-0.061035,-0.061035
7691051625,0.00187683,0.00254822,-1.00640869,0.366211,0.122070,-0.061035
7696093916,0.00148010,0.00267029,-1.00584412,0.305176,0.122070,-0.061035
7701043083,0.00134277,0.00230408,-1.00566101,0.366211,0.061035,0.061035
7706049000,0.00106812,0.00236511,-1.00622559,0.244141,0.122070,0.000000
7711035000,0.00076294,0.00297546,-1.00660706,0.366211,0.122070,-0.061035
7716001958,0.00093079,0.00337219,-1.00602722,0.183105,0.000000,-0.122070
7720987000,0.00132751,0.00347900,-1.00503540,0.366211,0.122070,0.000000
7726012791,0.00154114,0.00352478,-1.00506592,0.305176,-0.183105,-0.183105
7731015083,0.00164795,0.00326538,-1.00630188,0.549316,0.122070,0.000000
7736049875,0.00175476,0.00267029,-1.00727844,0.305176,0.061035,-0.061035
7741069458,0.00177002,0.00212097,-1.00706482,0.305176,0.122070,-0.061035
7746019541,0.00213623,0.00193787,-1.00639343,0.427246,0.122070,-0.183105
7751039375,0.00262451,0.00212097,-1.00633240,0.305176,0.061035,-0.122070
7756065333,0.00245667,0.00216675,-1.00646973,0.183105,0.061035,-0.122070
7761055708,0.00201416,0.00199890,-1.00602722,0.305176,0.061035,-0.122070
7766056625,0.00228882,0.00222778,-1.00553894,0.427246,0.000000,-0.061035
7771069125,0.00279236,0.00265503,-1.00567627,0.427246,0.061035,0.000000
7776052583,0.00263977,0.00259399,-1.00605774,0.366211,0.061035,0.000000
7781020250,0.00244141,0.00215149,-1.00584412,0.244141,0.000000,0.000000
7786049625,0.00259399,0.00187683,-1.00509644,0.305176,-0.061035,-0.061035
7791104083,0.00262451,0.00190735,-1.00463867,0.427246,-0.061035,0.000000
7796064875,0.00250244,0.00224304,-1.00517273,0.488281,0.122070,0.061035
7801270333,0.00259399,0.00280762,-1.00587463,0.244141,0.000000,0.000000
7806058000,0.00265503,0.00334167,-1.00572205,0.305176,0.000000,-0.061035
7811057625,0.00225830,0.00358582,-1.00564575,0.366211,0.061035,-0.061035
7816071375,0.00161743,0.00354004,-1.00646973,0.366211,0.122070,-0.061035
7821073875,0.00129700,0.00352478,-1.00677490,0.305176,0.000000,-0.061035
7826061416,0.00161743,0.00370789,-1.00599670,0.305176,0.122070,-0.061035
7831072250,0.00218201,0.00392151,-1.00549316,0.366211,0.000000,-0.183105
7836037500,0.00233459,0.00413513,-1.00599670,0.427246,0.061035,-0.061035
7841065125,0.00216675,0.00427246,-1.00656128,0.244141,0.000000,-0.122070
7846056500,0.00202942,0.00393677,-1.00643921,0.305176,0.061035,0.000000
7851106750,0.00195312,0.00303650,-1.00601196,0.122070,0.061035,0.061035
7856155916,0.00193787,0.00230408,-1.00576782,0.366211,0.061035,-0.122070
7861059916,0.00207520,0.00216675,-1.00553894,0.366211,0.000000,-0.122070
7866061291,0.00215149,0.00209045,-1.00515747,0.366211,0.244141,0.061035
7871086791,0.00189209,0.00170898,-1.00529480,0.305176,0.061035,-0.061035
7876047916,0.00166321,0.00152588,-1.00616455,0.305176,0.122070,0.000000
7881060375,0.00190735,0.00186157,-1.00686646,0.244141,0.122070,-0.122070
7886056208,0.00230408,0.00233459,-1.00679016,0.305176,0.000000,-0.183105
7891077083,0.00233459,0.00242615,-1.00657654,0.305176,0.061035,0.000000
7896052458,0.00228882,0.00216675,-1.00662231,0.244141,0.061035,-0.122070
7901049750,0.00250244,0.00209045,-1.00657654,0.305176,0.061035,0.122070
7906135166,0.00257874,0.00247192,-1.00627136,0.122070,0.000000,-0.122070
7911066916,0.00228882,0.00291443,-1.00593567,0.305176,0.000000,0.000000
7916047833,0.00178528,0.00323486,-1.00570679,0.183105,0.061035,-0.183105
7921062166,0.00164795,0.00358582,-1.00576782,0.244141,-0.061035,-0.244141
7926051333,0.00201416,0.00376892,-1.00616455,0.183105,-0.061035,0.000000
7931077333,0.00224304,0.00349426,-1.00657654,0.305176,0.061035,-0.061035
7936062583,0.00180054,0.00317383,-1.00646973,0.183105,0.122070,0.061035
7941080166,0.00135803,0.00318909,-1.00598145,0.305176,0.061035,-0.244141
7946056416,0.00148010,0.00332642,-1.00552368,0.244141,0.061035,-0.061035
7951091333,0.00167847,0.00337219,-1.00498962,0.305176,0.000000,0.000000
7956060583,0.00170898,0.00318909,-1.00477600,0.305176,0.000000,-0.061035
7961056000,0.00183105,0.00277710,-1.00523376,0.427246,0.061035,0.000000
7966064000,0.00219727,0.00253296,-1.00567627,0.366211,0.000000,-0.122070
7971109291,0.00247192,0.00259399,-1.00543213,0.305176,0.122070,-0.061035
7976124625,0.00248718,0.00227356,-1.00506592,0.305176,0.122070,-0.061035
7981099083,0.00238037,0.00169373,-1.00543213,0.244141,-0.122070,-0.122070
7986075541,0.00215149,0.00184631,-1.00631714,0.305176,0.061035,-0.061035
7991092458,0.00183105,0.00233459,-1.00685120,0.427246,0.061035,-0.061035
7996065583,0.00172424,0.00218201,-1.00653076,0.427246,0.061035,0.000000
8001096375,0.00184631,0.00157166,-1.00605774,0.305176,0.061035,-0.183105
8006106875,0.00207520,0.00126648,-1.00630188,0.366211,0.000000,-0.183105
8011139166,0.00247192,0.00163269,-1.00643921,0.305176,0.061035,-0.122070
8016110500,0.00257874,0.00242615,-1.00587463,0.366211,0.061035,0.000000
8021097333,0.00216675,0.00300598,-1.00553894,0.366211,0.061035,0.061035
8026104458,0.00184631,0.00329590,-1.00604248,0.305176,0.000000,-0.122070
8031122458,0.00201416,0.00340271,-1.00668335,0.183105,-0.122070,0.000000
8036103083,0.00210571,0.00323486,-1.00663757,0.305176,-0.061035,-0.122070
8041109583,0.00205994,0.00280762,-1.00613403,0.244141,0.061035,0.061035
8046104291,0.00222778,0.00277710,-1.00601196,0.366211,-0.061035,-0.061035
8051108333,0.00242615,0.00337219,-1.00633240,0.366211,0.061035,0.000000
8056121333,0.00253296,0.00390625,-1.00608826,0.244141,0.061035,-0.244141
8061073291,0.00276184,0.00398254,-1.00517273,0.366211,0.000000,-0.061035
8066081375,0.00314331,0.00360107,-1.00492859,0.244141,0.000000,-0.122070
8071097833,0.00317383,0.00302124,-1.00582886,0.305176,0.000000,-0.061035
8076098000,0.00256348,0.00288391,-1.00657654,0.305176,0.122070,-0.183105
8081114500,0.00195312,0.00311279,-1.00631714,0.305176,0.000000,-0.122070
8086097333,0.00178528,0.00302124,-1.00602722,0.244141,0.061035,0.000000
8091146625,0.00189209,0.00247192,-1.00642395,0.305176,-0.061035,-0.061035
8096140416,0.00222778,0.00196838,-1.00686646,0.366211,-0.061035,-0.061035
8101092666,0.00263977,0.00201416,-1.00679016,0.427246,0.122070,0.061035
8106093875,0.00291443,0.00233459,-1.00607300,0.305176,0.000000,-0.061035
8111144250,0.00296021,0.00248718,-1.00553894,0.366211,-0.061035,0.000000
8116182875,0.00279236,0.00241089,-1.00643921,0.244141,-0.061035,-0.061035
8121097375,0.00253296,0.00216675,-1.00767517,0.183105,-0.122070,-0.061035
8126143125,0.00239563,0.00201416,-1.00727844,0.244141,0.061035,-0.061035
8131140333,0.00233459,0.00230408,-1.00593567,0.305176,0.000000,0.122070
8136106916,0.00204468,0.00279236,-1.00567627,0.305176,0.061035,-0.061035
8141158625,0.00144958,0.00299072,-1.00633240,0.244141,0.000000,-0.122070
8146139125,0.00115967,0.00283813,-1.00611877,0.366211,0.000000,-0.122070
8151107125,0.00157166,0.00256348,-1.00477600,0.183105,0.061035,-0.122070
8156139500,0.00215149,0.00259399,-1.00427246,0.427246,0.122070,-0.061035
8161138583,0.00227356,0.00283813,-1.00540161,0.366211,0.061035,-0.122070
8166139875,0.00231934,0.00306702,-1.00636292,0.488281,0.061035,-0.061035
8171122833,0.00263977,0.00338745,-1.00595093,0.183105,-0.061035,-0.061035
8176147250,0.00271606,0.00347900,-1.00549316,0.366211,0.122070,0.000000
8181166000,0.00234985,0.00309753,-1.00601196,0.549316,0.061035,0.000000
