timestamp_ns,accel_x,accel_y,accel_z,gyro_x,gyro_y,gyro_z
54949416,0.00775146,0.00074768,-1.00366211,0.549316,-0.061035,-0.061035
61194166,0.00840759,-0.00175476,-1.00634766,0.183105,0.122070,0.000000
65034041,0.00837708,-0.00360107,-1.00665283,0.244141,-0.061035,-0.122070
70031416,0.00804138,-0.00444031,-1.00526428,0.366211,0.000000,0.061035
75519000,0.00775146,-0.00430298,-1.00701904,0.244141,0.061035,-0.061035
80679333,0.00726318,-0.00315857,-1.00578308,0.244141,0.000000,-0.061035
86339125,0.00556946,-0.00123596,-1.00399780,0.427246,0.122070,-0.122070
91292625,0.00291443,0.00076294,-1.00718689,0.427246,0.000000,-0.061035
102996500,0.00067139,0.00274658,-1.00848389,0.000000,0.000000,-0.183105
103002125,-0.00097656,0.00454712,-1.00573730,0.366211,0.061035,-0.122070
109005708,-0.00292969,0.00585938,-1.00538635,0.244141,0.000000,-0.061035
110596166,-0.00508118,0.00677490,-1.00634766,0.244141,0.061035,-0.061035
115440333,-0.00636292,0.00715637,-1.00556946,0.305176,0.061035,0.000000
120335291,-0.00633240,0.00691223,-1.00561523,0.305176,0.000000,-0.061035
125388833,-0.00552368,0.00628662,-1.00575256,0.122070,0.061035,0.061035
130306083,-0.00436401,0.00566101,-1.00552368,0.244141,0.183105,-0.061035
136504666,-0.00270081,0.00497437,-1.00717163,0.183105,0.122070,0.061035
140908541,-0.00036621,0.00386047,-1.00737000,0.244141,-0.061035,0.000000
144969041,0.00225830,0.00260925,-1.00479126,0.183105,0.000000,-0.061035
149965083,0.00468445,0.00187683,-1.00447083,0.366211,0.000000,-0.122070
154946958,0.00679016,0.00186157,-1.00650024,0.244141,0.000000,-0.122070
160036708,0.00814819,0.00231934,-1.00712585,0.183105,-0.122070,-0.122070
164959333,0.00839233,0.00279236,-1.00631714,0.305176,0.000000,-0.061035
169961083,0.00819397,0.00268555,-1.00543213,0.183105,0.061035,-0.122070
174958083,0.00790405,0.00201416,-1.00541687,0.366211,0.183105,-0.061035
179980833,0.00704956,0.00149536,-1.00662231,0.427246,0.061035,-0.122070
184980958,0.00529480,0.00166321,-1.00721741,0.244141,0.061035,0.000000
189982000,0.00283813,0.00225830,-1.00572205,0.305176,0.061035,-0.061035
194985291,0.00038147,0.00294495,-1.00466919,0.183105,0.061035,-0.061035
199976958,-0.00138855,0.00349426,-1.00584412,0.305176,0.122070,-0.122070
204997333,-0.00276184,0.00408936,-1.00672913,0.244141,0.183105,0.000000
209984541,-0.00395203,0.00500488,-1.00601196,0.366211,0.000000,-0.061035
215031208,-0.00433350,0.00593567,-1.00517273,0.183105,0.122070,-0.061035
219971541,-0.00378418,0.00657654,-1.00498962,0.305176,0.122070,-0.122070
225004875,-0.00288391,0.00685120,-1.00553894,0.305176,-0.061035,-0.122070
229990916,-0.00173950,0.00654602,-1.00627136,0.244141,0.061035,-0.122070
234993041,-0.00036621,0.00535583,-1.00631714,0.305176,-0.061035,-0.061035
239983500,0.00105286,0.00381470,-1.00616455,0.244141,0.061035,-0.061035
245032416,0.00282288,0.00303650,-1.00614929,0.244141,0.122070,-0.061035
249987125,0.00482178,0.00253296,-1.00535583,0.366211,0.061035,-0.122070
254988083,0.00642395,0.00114441,-1.00474548,0.549316,-0.061035,0.000000
259983833,0.00721741,-0.00021362,-1.00579834,0.366211,0.061035,-0.122070
265025916,0.00715637,-0.00033569,-1.00704956,0.305176,-0.061035,-0.122070
269981916,0.00657654,0.00047302,-1.00685120,0.427246,0.122070,0.000000
275007125,0.00579834,0.00160217,-1.00646973,0.427246,0.122070,-0.061035
279990208,0.00497437,0.00260925,-1.00636292,0.305176,0.122070,0.000000
285012791,0.00402832,0.00317383,-1.00588989,0.366211,0.183105,0.000000
290024500,0.00273132,0.00363159,-1.00532532,0.366211,0.000000,-0.061035
294987250,0.00123596,0.00477600,-1.00494385,0.427246,0.000000,-0.061035
300000708,-0.00012207,0.00608826,-1.00518799,0.183105,0.000000,-0.183105
305014750,-0.00125122,0.00685120,-1.00611877,0.366211,0.000000,-0.061035
310024791,-0.00228882,0.00730896,-1.00645447,0.305176,0.000000,-0.183105
315001125,-0.00325012,0.00761414,-1.00581360,0.305176,0.061035,-0.183105
320025458,-0.00364685,0.00737000,-1.00534058,0.305176,-0.061035,-0.122070
325035583,-0.00321960,0.00654602,-1.00576782,0.305176,0.000000,0.000000
330067125,-0.00239563,0.00561523,-1.00619507,0.305176,0.000000,0.000000
335068416,-0.00106812,0.00483704,-1.00569153,0.244141,0.122070,0.000000
340001708,0.00079346,0.00411987,-1.00495911,0.305176,0.061035,0.000000
345016458,0.00254822,0.00346375,-1.00526428,0.183105,0.183105,0.122070
350078083,0.00381470,0.00280762,-1.00628662,0.305176,0.061035,-0.061035
355021750,0.00454712,0.00178528,-1.00665283,0.427246,0.000000,-0.061035
359990041,0.00466919,0.00076294,-1.00581360,0.183105,-0.061035,-0.122070
365013916,0.00445557,0.00027466,-1.00447083,0.366211,0.061035,0.000000
370035625,0.00463867,-0.00024414,-1.00476074,0.305176,0.122070,-0.122070
375007375,0.00491333,-0.00120544,-1.00584412,0.427246,0.122070,-0.061035
380026291,0.00445557,-0.00209045,-1.00558472,0.183105,0.000000,-0.122070
385015791,0.00334167,-0.00215149,-1.00503540,0.427246,0.061035,-0.183105
390023041,0.00213623,-0.00137329,-1.00509644,0.366211,0.000000,-0.122070
395017541,0.00132751,-0.00022888,-1.00593567,0.305176,0.000000,-0.061035
400020333,0.00097656,0.00119019,-1.00671387,0.427246,0.122070,-0.061035
405020208,0.00074768,0.00296021,-1.00637817,0.305176,0.122070,0.000000
410043666,0.00036621,0.00454712,-1.00604248,0.305176,-0.061035,0.000000
415041833,0.00001526,0.00561523,-1.00637817,0.305176,0.061035,0.000000
420095875,-0.00001526,0.00659180,-1.00636292,0.366211,0.122070,-0.061035
425053458,0.00022888,0.00776672,-1.00596619,0.183105,0.122070,-0.061035
430035000,0.00048828,0.00846863,-1.00634766,0.183105,0.000000,-0.061035
435088625,0.00068665,0.00798035,-1.00708008,0.305176,0.061035,0.000000
440073666,0.00108337,0.00666809,-1.00654602,0.305176,0.000000,-0.183105
445040041,0.00169373,0.00537109,-1.00515747,0.305176,0.061035,-0.122070
450041250,0.00230408,0.00408936,-1.00453186,0.488281,0.000000,0.000000
455049500,0.00273132,0.00267029,-1.00506592,0.183105,0.061035,-0.061035
460035541,0.00297546,0.00143433,-1.00588989,0.305176,0.122070,-0.122070
465043916,0.00341797,0.00064087,-1.00572205,0.366211,0.122070,-0.122070
470065125,0.00386047,0.00036621,-1.00479126,0.305176,0.000000,-0.061035
475067666,0.00387573,0.00033569,-1.00477600,0.244141,0.000000,-0.183105
480017375,0.00376892,0.00035095,-1.00593567,0.427246,0.000000,-0.122070
485064000,0.00373840,0.00076294,-1.00628662,0.488281,0.061035,-0.061035
490065000,0.00343323,0.00154114,-1.00497437,0.122070,0.122070,-0.244141
495037208,0.00289917,0.00236511,-1.00460815,0.244141,0.122070,0.061035
500080166,0.00224304,0.00317383,-1.00708008,0.427246,0.000000,-0.183105
505065958,0.00138855,0.00404358,-1.00968933,0.305176,0.061035,-0.122070
510109625,0.00061035,0.00485229,-1.00846863,0.305176,0.183105,-0.122070
515043000,0.00000000,0.00488281,-1.00485229,0.122070,0.122070,-0.122070
520037000,-0.00059509,0.00392151,-1.00389099,0.244141,0.183105,0.061035
525075500,-0.00111389,0.00309753,-1.00601196,0.244141,0.000000,-0.183105
530090833,-0.00111389,0.00335693,-1.00714111,0.244141,-0.061035,-0.061035
535090791,-0.00028992,0.00425720,-1.00569153,0.305176,-0.061035,-0.061035
540084750,0.00080872,0.00508118,-1.00405884,0.305176,0.122070,0.061035
545068958,0.00155640,0.00517273,-1.00450134,0.244141,0.122070,-0.061035
550097541,0.00199890,0.00431824,-1.00584412,0.305176,0.061035,0.061035
555092041,0.00241089,0.00352478,-1.00604248,0.305176,0.061035,-0.183105
560104625,0.00288391,0.00369263,-1.00517273,0.244141,0.122070,-0.061035
565105041,0.00314331,0.00411987,-1.00468445,0.305176,0.061035,0.000000
570047625,0.00308228,0.00369263,-1.00509644,0.244141,-0.061035,-0.061035
575180583,0.00358582,0.00256348,-1.00553894,0.305176,0.000000,-0.061035
580087708,0.00471497,0.00137329,-1.00573730,0.244141,0.000000,0.000000
585060875,0.00517273,0.00035095,-1.00607300,0.305176,0.061035,0.122070
590062875,0.00454712,-0.00033569,-1.00625610,0.305176,0.061035,0.061035
595126500,0.00344849,-0.00036621,-1.00582886,0.366211,0.061035,-0.061035
600112208,0.00263977,0.00019836,-1.00535583,0.366211,0.000000,0.000000
605103375,0.00244141,0.00114441,-1.00573730,0.366211,0.000000,-0.183105
610080458,0.00219727,0.00222778,-1.00639343,0.305176,0.061035,-0.061035
615058291,0.00149536,0.00320435,-1.00592041,0.305176,0.122070,0.061035
620099916,0.00050354,0.00390625,-1.00482178,0.244141,-0.061035,-0.061035
625085416,-0.00062561,0.00447083,-1.00517273,0.366211,0.061035,0.000000
630068083,-0.00152588,0.00489807,-1.00669861,0.244141,0.000000,0.000000
635082333,-0.00152588,0.00468445,-1.00694275,0.000000,0.061035,0.000000
640085625,-0.00080872,0.00393677,-1.00544739,0.305176,0.061035,-0.061035
645108208,-0.00048828,0.00367737,-1.00419617,0.305176,0.061035,0.000000
650079500,-0.00080872,0.00407410,-1.00473022,0.305176,0.061035,-0.244141
655082041,-0.00093079,0.00425720,-1.00608826,0.488281,0.061035,-0.061035
660081541,-0.00004578,0.00390625,-1.00630188,0.366211,0.122070,0.061035
665096916,0.00143433,0.00347900,-1.00537109,0.366211,0.061035,-0.122070
670084041,0.00256348,0.00344849,-1.00524902,0.305176,0.000000,0.000000
675164041,0.00302124,0.00398254,-1.00660706,0.305176,0.122070,-0.061035
680157708,0.00321960,0.00454712,-1.00747681,0.488281,0.122070,0.000000
685123916,0.00376892,0.00474548,-1.00646973,0.244141,0.061035,0.000000
690089333,0.00453186,0.00503540,-1.00531006,0.305176,0.122070,0.000000
695119375,0.00473022,0.00544739,-1.00592041,0.427246,0.000000,-0.183105
700109333,0.00399780,0.00529480,-1.00700378,0.427246,0.000000,-0.061035
705121000,0.00280762,0.00468445,-1.00639343,0.427246,0.000000,-0.061035
710089708,0.00177002,0.00436401,-1.00492859,0.427246,0.000000,0.000000
715072875,0.00103760,0.00440979,-1.00494385,0.244141,0.000000,0.000000
720091250,0.00039673,0.00456238,-1.00668335,0.366211,0.000000,-0.122070
725095000,0.00000000,0.00460815,-1.00791931,0.305176,0.000000,-0.061035
730075916,-0.00009155,0.00465393,-1.00701904,0.305176,0.061035,-0.122070
735112250,-0.00004578,0.00477600,-1.00573730,0.366211,0.061035,-0.183105
740101125,0.00000000,0.00494385,-1.00634766,0.244141,-0.061035,-0.061035
745109875,0.00000000,0.00483704,-1.00732422,0.244141,0.061035,-0.122070
750112458,-0.00018311,0.00448608,-1.00643921,0.244141,0.061035,-0.061035
755114166,0.00004578,0.00407410,-1.00491333,0.366211,0.000000,-0.183105
760094458,0.00105286,0.00363159,-1.00486755,0.366211,0.000000,-0.244141
765133208,0.00184631,0.00320435,-1.00602722,0.305176,0.122070,0.000000
770099916,0.00218201,0.00241089,-1.00622559,0.244141,0.061035,0.000000
775130333,0.00276184,0.00140381,-1.00517273,0.305176,0.122070,-0.061035
780092708,0.00326538,0.00093079,-1.00506592,0.183105,-0.061035,0.000000
785167333,0.00326538,0.00100708,-1.00634766,0.244141,0.061035,0.000000
790089833,0.00334167,0.00099182,-1.00685120,0.244141,0.061035,-0.061035
795097000,0.00395203,0.00097656,-1.00595093,0.122070,0.061035,-0.183105
800124666,0.00453186,0.00131226,-1.00563049,0.366211,0.000000,0.000000
805107916,0.00445557,0.00169373,-1.00656128,0.366211,0.061035,0.000000
810147166,0.00386047,0.00231934,-1.00723267,0.427246,-0.061035,-0.183105
815104750,0.00309753,0.00332642,-1.00643921,0.305176,0.000000,-0.122070
820150208,0.00209045,0.00384521,-1.00489807,0.305176,0.000000,-0.183105
825139291,0.00099182,0.00372314,-1.00434875,0.183105,0.000000,0.061035
830142333,0.00028992,0.00364685,-1.00521851,0.427246,0.061035,0.061035
835120416,-0.00003052,0.00367737,-1.00614929,0.305176,0.000000,-0.061035
840117000,-0.00044250,0.00354004,-1.00602722,0.427246,0.122070,-0.061035
845125625,-0.00106812,0.00346375,-1.00564575,0.366211,0.061035,-0.061035
850142291,-0.00143433,0.00373840,-1.00592041,0.488281,0.122070,0.000000
855147958,-0.00109863,0.00433350,-1.00650024,0.427246,0.061035,-0.061035
860103083,-0.00015259,0.00474548,-1.00642395,0.183105,0.000000,-0.061035
865133583,0.00097656,0.00482178,-1.00578308,0.305176,0.061035,-0.183105
870104125,0.00175476,0.00527954,-1.00588989,0.366211,0.000000,0.000000
875159791,0.00218201,0.00596619,-1.00653076,0.305176,0.122070,-0.122070
880129416,0.00270081,0.00585938,-1.00642395,0.244141,0.061035,0.000000
885157166,0.00341797,0.00479126,-1.00582886,0.244141,0.122070,-0.183105
890244958,0.00419617,0.00337219,-1.00605774,0.305176,0.061035,0.000000
895146541,0.00485229,0.00227356,-1.00665283,0.488281,0.000000,0.061035
900137125,0.00486755,0.00170898,-1.00634766,0.366211,0.061035,-0.122070
905136791,0.00424194,0.00134277,-1.00559998,0.305176,0.122070,-0.061035
910151791,0.00346375,0.00131226,-1.00575256,0.427246,0.061035,0.000000
915135958,0.00265503,0.00180054,-1.00643921,0.366211,0.000000,-0.122070
920118708,0.00210571,0.00221252,-1.00625610,0.244141,0.000000,-0.061035
925127583,0.00181580,0.00228882,-1.00523376,0.305176,0.183105,0.061035
930153708,0.00090027,0.00265503,-1.00491333,0.305176,-0.061035,0.000000
935159875,-0.00048828,0.00335693,-1.00617981,0.366211,0.000000,0.000000
940136125,-0.00096130,0.00387573,-1.00746155,0.244141,0.000000,-0.122070
945165916,-0.00041199,0.00419617,-1.00715637,0.305176,0.061035,-0.061035
950154916,-0.00003052,0.00424194,-1.00605774,0.305176,0.061035,-0.061035
955168750,-0.00032043,0.00402832,-1.00572205,0.305176,0.000000,-0.122070
960151666,-0.00061035,0.00366211,-1.00633240,0.305176,0.061035,-0.244141
965125916,-0.00030518,0.00297546,-1.00669861,0.183105,-0.061035,0.061035
970121541,0.00035095,0.00221252,-1.00605774,0.244141,0.061035,0.000000
975185708,0.00106812,0.00209045,-1.00526428,0.244141,0.061035,0.000000
980135500,0.00164795,0.00276184,-1.00543213,0.366211,0.061035,-0.061035
985186958,0.00233459,0.00364685,-1.00561523,0.305176,0.000000,-0.061035
990133875,0.00311279,0.00405884,-1.00524902,0.244141,0.122070,-0.061035
995272250,0.00370789,0.00405884,-1.00512695,0.244141,0.183105,-0.061035
1000157375,0.00434875,0.00415039,-1.00567627,0.488281,0.061035,-0.061035
1005166666,0.00491333,0.00431824,-1.00648499,0.183105,0.061035,-0.183105
1010173583,0.00460815,0.00411987,-1.00691223,0.305176,-0.061035,-0.122070
1015176000,0.00340271,0.00349426,-1.00697327,0.305176,0.000000,-0.061035
1020169625,0.00241089,0.00296021,-1.00704956,0.427246,-0.061035,-0.061035
1025170041,0.00213623,0.00279236,-1.00698853,0.366211,0.000000,-0.061035
1030184125,0.00212097,0.00268555,-1.00611877,0.305176,0.061035,0.000000
1035178708,0.00164795,0.00254822,-1.00491333,0.305176,0.061035,-0.061035
1040170250,0.00080872,0.00267029,-1.00477600,0.427246,0.183105,-0.061035
1045185541,0.00036621,0.00288391,-1.00572205,0.305176,0.061035,0.000000
1050186958,0.00036621,0.00296021,-1.00608826,0.427246,0.061035,-0.122070
1055192125,0.00047302,0.00296021,-1.00538635,0.122070,0.183105,-0.122070
1060179375,0.00050354,0.00315857,-1.00480652,0.305176,0.000000,0.000000
1065186291,0.00057983,0.00376892,-1.00524902,0.305176,0.000000,-0.061035
1070160291,0.00080872,0.00440979,-1.00614929,0.427246,-0.061035,-0.061035
1075189875,0.00112915,0.00462341,-1.00611877,0.183105,0.061035,-0.061035
1080184750,0.00158691,0.00430298,-1.00579834,0.244141,0.061035,0.000000
1085167916,0.00219727,0.00407410,-1.00639343,0.244141,0.000000,-0.061035
1090195250,0.00283813,0.00404358,-1.00691223,0.305176,-0.061035,-0.122070
1095188083,0.00331116,0.00396729,-1.00607300,0.488281,0.061035,-0.061035
1100266208,0.00352478,0.00376892,-1.00500488,0.305176,0.061035,-0.244141
1105177166,0.00364685,0.00334167,-1.00531006,0.366211,0.061035,-0.061035
1110208625,0.00338745,0.00294495,-1.00643921,0.366211,0.061035,-0.061035
1115152083,0.00260925,0.00270081,-1.00668335,0.427246,0.000000,-0.122070
1120172208,0.00196838,0.00265503,-1.00592041,0.427246,0.000000,-0.183105
1125217958,0.00199890,0.00288391,-1.00559998,0.305176,0.061035,0.000000
1130188583,0.00238037,0.00325012,-1.00634766,0.244141,0.000000,-0.122070
1135147708,0.00263977,0.00335693,-1.00694275,0.488281,0.000000,-0.244141
1140172541,0.00230408,0.00315857,-1.00622559,0.427246,0.244141,-0.061035
1145184208,0.00143433,0.00315857,-1.00543213,0.183105,0.061035,-0.122070
1150189791,0.00038147,0.00349426,-1.00608826,0.305176,0.000000,-0.122070
1155181583,-0.00016785,0.00350952,-1.00706482,0.183105,-0.061035,0.000000
1160199833,0.00000000,0.00314331,-1.00653076,0.183105,0.061035,0.000000
1165212416,0.00022888,0.00291443,-1.00549316,0.305176,0.061035,-0.122070
1170176208,0.00015259,0.00289917,-1.00595093,0.366211,0.061035,-0.122070
1175229291,0.00068665,0.00291443,-1.00703430,0.183105,0.000000,-0.122070
1180211333,0.00190735,0.00292969,-1.00660706,0.305176,0.122070,0.061035
1185181375,0.00247192,0.00303650,-1.00515747,0.244141,0.000000,-0.061035
1190190125,0.00233459,0.00354004,-1.00488281,0.305176,0.061035,-0.183105
1195203458,0.00268555,0.00405884,-1.00619507,0.244141,0.000000,-0.122070
1200196208,0.00364685,0.00398254,-1.00677490,0.305176,0.122070,0.061035
1205237541,0.00425720,0.00372314,-1.00559998,0.244141,0.061035,-0.122070
1210221416,0.00405884,0.00379944,-1.00497437,0.366211,0.183105,-0.122070
1215217625,0.00357056,0.00395203,-1.00627136,0.305176,0.000000,-0.122070
1220160625,0.00332642,0.00375366,-1.00753784,0.305176,0.000000,-0.061035
1225237833,0.00318909,0.00344849,-1.00668335,0.427246,0.122070,0.061035
1230215583,0.00267029,0.00335693,-1.00509644,0.427246,0.061035,0.061035
1235171916,0.00201416,0.00349426,-1.00535583,0.244141,0.122070,0.000000
1240186083,0.00134277,0.00364685,-1.00709534,0.427246,0.000000,-0.061035
1245198000,0.00047302,0.00376892,-1.00750732,0.244141,0.000000,-0.122070
1250172208,0.00000000,0.00395203,-1.00581360,0.366211,0.122070,-0.061035
1255218958,0.00012207,0.00437927,-1.00453186,0.488281,0.000000,-0.122070
1260199041,0.00039673,0.00474548,-1.00534058,0.366211,0.000000,-0.183105
1265180291,0.00025940,0.00448608,-1.00640869,0.244141,0.061035,-0.061035
1270189458,-0.00009155,0.00369263,-1.00578308,0.183105,0.000000,-0.122070
1275309666,0.00004578,0.00300598,-1.00462341,0.183105,0.061035,-0.122070
1280207000,0.00099182,0.00279236,-1.00518799,0.244141,0.000000,0.000000
1285213791,0.00205994,0.00265503,-1.00680542,0.244141,-0.061035,-0.122070
1290221000,0.00254822,0.00216675,-1.00694275,0.305176,0.061035,-0.183105
1295225833,0.00242615,0.00181580,-1.00563049,0.061035,-0.061035,-0.061035
1300206500,0.00225830,0.00196838,-1.00543213,0.305176,0.000000,0.000000
1305213083,0.00238037,0.00193787,-1.00660706,0.366211,0.000000,-0.061035
1310222958,0.00270081,0.00167847,-1.00683594,0.244141,0.122070,-0.122070
1315208958,0.00296021,0.00195312,-1.00578308,0.244141,0.122070,0.000000
1320218458,0.00315857,0.00294495,-1.00555420,0.244141,0.122070,-0.061035
1325233541,0.00318909,0.00381470,-1.00665283,0.305176,0.061035,0.000000
1330202083,0.00271606,0.00399780,-1.00723267,0.366211,0.000000,0.000000
1335186833,0.00187683,0.00372314,-1.00628662,0.244141,0.000000,-0.122070
1340405083,0.00135803,0.00366211,-1.00531006,0.305176,-0.061035,-0.061035
1345256250,0.00102234,0.00401306,-1.00582886,0.488281,0.122070,-0.122070
1350235125,0.00025940,0.00419617,-1.00706482,0.305176,0.061035,-0.061035
1355224833,-0.00044250,0.00402832,-1.00711060,0.305176,0.061035,-0.061035
1360283791,-0.00053406,0.00376892,-1.00573730,0.305176,0.061035,-0.183105
1365231333,-0.00019836,0.00337219,-1.00518799,0.305176,0.061035,0.000000
1370266375,0.00015259,0.00297546,-1.00648499,0.366211,-0.061035,0.000000
1375258416,0.00068665,0.00306702,-1.00729370,0.305176,0.061035,-0.061035
1380206125,0.00140381,0.00370789,-1.00601196,0.244141,0.061035,-0.061035
1385205166,0.00192261,0.00431824,-1.00457764,0.366211,0.000000,-0.122070
1390250791,0.00204468,0.00440979,-1.00520325,0.366211,0.183105,0.000000
1395254750,0.00198364,0.00387573,-1.00665283,0.305176,0.122070,-0.061035
1400342083,0.00199890,0.00314331,-1.00660706,0.366211,0.183105,-0.122070
1405221333,0.00245667,0.00294495,-1.00515747,0.244141,0.061035,-0.122070
1410372750,0.00338745,0.00303650,-1.00473022,0.305176,0.061035,-0.061035
1415234375,0.00382996,0.00236511,-1.00604248,0.244141,0.000000,-0.061035
1420218458,0.00318909,0.00111389,-1.00692749,0.305176,0.122070,-0.061035
1425218208,0.00216675,0.00061035,-1.00619507,0.183105,-0.122070,-0.061035
1430219791,0.00134277,0.00105286,-1.00544739,0.305176,0.000000,0.000000
1435201208,0.00071716,0.00143433,-1.00596619,0.366211,0.061035,0.000000
1440256958,0.00041199,0.00155640,-1.00671387,0.366211,-0.061035,-0.061035
1445298166,0.00030518,0.00196838,-1.00639343,0.366211,0.122070,0.000000
1450218041,-0.00004578,0.00271606,-1.00566101,0.122070,0.061035,-0.122070
1455283750,-0.00077820,0.00381470,-1.00573730,0.305176,-0.061035,-0.061035
1460246125,-0.00140381,0.00531006,-1.00621033,0.366211,0.183105,-0.061035
1465250541,-0.00144958,0.00651550,-1.00617981,0.244141,0.000000,-0.122070
1470282041,-0.00077820,0.00666809,-1.00569153,0.183105,0.061035,-0.122070
1475268083,0.00021362,0.00608826,-1.00561523,0.244141,-0.061035,-0.061035
1480233375,0.00077820,0.00550842,-1.00617981,0.427246,0.000000,-0.122070
1485243416,0.00077820,0.00521851,-1.00646973,0.244141,-0.122070,-0.183105
1490278291,0.00108337,0.00483704,-1.00599670,0.366211,0.122070,-0.061035
1495347916,0.00218201,0.00404358,-1.00581360,0.427246,0.061035,-0.061035
1500292250,0.00331116,0.00328064,-1.00688171,0.305176,0.061035,0.000000
1505375500,0.00396729,0.00292969,-1.00773621,0.366211,-0.061035,0.000000
1510307625,0.00437927,0.00253296,-1.00663757,0.488281,0.183105,0.061035
1515263041,0.00456238,0.00213623,-1.00497437,0.244141,0.061035,-0.183105
1520265916,0.00460815,0.00231934,-1.00486755,0.305176,0.061035,-0.122070
1525266416,0.00468445,0.00300598,-1.00602722,0.427246,0.122070,-0.122070
1530259666,0.00444031,0.00347900,-1.00630188,0.366211,0.183105,0.000000
1535239500,0.00373840,0.00340271,-1.00489807,0.244141,0.061035,-0.061035
1540283875,0.00259399,0.00286865,-1.00415039,0.305176,0.122070,-0.061035
1545278583,0.00108337,0.00190735,-1.00512695,0.122070,0.122070,-0.244141
1550241083,0.00000000,0.00102234,-1.00576782,0.244141,0.122070,-0.122070
1555291958,-0.00042725,0.00103760,-1.00531006,0.305176,0.000000,0.000000
1560550666,-0.00085449,0.00169373,-1.00526428,0.305176,0.061035,-0.061035
1565296666,-0.00131226,0.00242615,-1.00634766,0.366211,0.183105,-0.061035
1570270875,-0.00137329,0.00328064,-1.00724792,0.305176,0.061035,-0.061035
1575352083,-0.00120544,0.00422668,-1.00662231,0.183105,0.061035,0.061035
1580252583,-0.00067139,0.00506592,-1.00553894,0.305176,0.061035,-0.122070
1585304750,0.00065613,0.00582886,-1.00576782,0.427246,0.122070,0.000000
1590293000,0.00225830,0.00624084,-1.00669861,0.305176,0.061035,-0.061035
1595280333,0.00335693,0.00605774,-1.00651550,0.305176,0.183105,-0.061035
1600273125,0.00366211,0.00559998,-1.00558472,0.366211,0.122070,-0.122070
1605275000,0.00335693,0.00521851,-1.00578308,0.366211,-0.061035,0.000000
1610340458,0.00306702,0.00477600,-1.00679016,0.244141,0.000000,0.061035
1615280208,0.00338745,0.00364685,-1.00656128,0.305176,0.122070,-0.061035
1620350083,0.00422668,0.00216675,-1.00506592,0.427246,0.061035,0.000000
1625297625,0.00469971,0.00141907,-1.00439453,0.366211,0.122070,0.061035
1630271125,0.00428772,0.00111389,-1.00509644,0.305176,0.061035,-0.183105
1635323333,0.00355530,0.00048828,-1.00576782,0.305176,0.000000,0.061035
1640304541,0.00308228,-0.00001526,-1.00549316,0.427246,0.061035,-0.061035
1645283000,0.00254822,0.00038147,-1.00494385,0.305176,0.000000,-0.061035
1650289166,0.00167847,0.00149536,-1.00512695,0.366211,0.000000,-0.183105
1655281250,0.00053406,0.00254822,-1.00572205,0.305176,0.000000,0.000000
1660277166,-0.00047302,0.00289917,-1.00608826,0.244141,-0.061035,-0.122070
1665295916,-0.00100708,0.00250244,-1.00628662,0.427246,0.122070,-0.061035
1670250083,-0.00093079,0.00209045,-1.00646973,0.305176,0.183105,0.000000
1675285208,-0.00061035,0.00259399,-1.00662231,0.183105,0.000000,0.000000
1680280833,-0.00051880,0.00378418,-1.00643921,0.183105,0.000000,-0.122070
1685280208,-0.00073242,0.00453186,-1.00598145,0.305176,0.061035,-0.061035
1690300916,-0.00074768,0.00482178,-1.00585938,0.366211,0.000000,-0.122070
1695273833,-0.00025940,0.00531006,-1.00614929,0.305176,0.061035,0.000000
1700249416,0.00062561,0.00576782,-1.00616455,0.244141,-0.122070,-0.061035
1705271083,0.00173950,0.00592041,-1.00549316,0.305176,0.061035,0.000000
1710279791,0.00285339,0.00624084,-1.00508118,0.305176,0.122070,-0.061035
1715260291,0.00376892,0.00648499,-1.00567627,0.305176,0.061035,-0.061035
1720341041,0.00453186,0.00585938,-1.00657654,0.488281,-0.061035,0.000000
1725276041,0.00538635,0.00460815,-1.00671387,0.305176,0.061035,-0.122070
1730293208,0.00582886,0.00344849,-1.00552368,0.305176,0.000000,-0.122070
1735248666,0.00543213,0.00257874,-1.00410461,0.427246,0.000000,-0.122070
1740413291,0.00460815,0.00186157,-1.00480652,0.366211,0.183105,-0.183105
1745300041,0.00366211,0.00106812,-1.00689697,0.366211,0.122070,-0.061035
1750280166,0.00263977,0.00025940,-1.00764465,0.488281,0.000000,-0.061035
1755332666,0.00170898,-0.00041199,-1.00698853,0.488281,0.000000,0.000000
1760284541,0.00112915,-0.00086975,-1.00608826,0.732422,0.061035,0.000000
1765281458,0.00044250,-0.00097656,-1.00460815,0.549316,0.000000,-0.061035
1770285500,-0.00057983,-0.00050354,-1.00387573,0.671387,0.122070,0.122070
1775296625,-0.00155640,0.00042725,-1.00486755,0.427246,-0.061035,-0.122070
1780276375,-0.00181580,0.00161743,-1.00555420,0.244141,0.183105,0.000000
1785285583,-0.00151062,0.00312805,-1.00564575,0.183105,0.061035,-0.122070
1790279625,-0.00091553,0.00485229,-1.00668335,0.183105,0.061035,-0.061035
1795285375,-0.00012207,0.00613403,-1.00820923,0.000000,0.122070,0.000000
1800310791,0.00056458,0.00648499,-1.00917053,0.244141,0.000000,-0.061035
1805308500,0.00111389,0.00617981,-1.00866699,0.305176,0.061035,-0.061035
1810303500,0.00161743,0.00582886,-1.00639343,0.183105,-0.061035,-0.122070
1815298500,0.00263977,0.00556946,-1.00468445,0.244141,0.000000,-0.061035
1820293708,0.00433350,0.00488281,-1.00550842,0.305176,0.061035,-0.122070
1825344166,0.00588989,0.00373840,-1.00654602,0.366211,0.000000,0.000000
1830286250,0.00653076,0.00282288,-1.00578308,0.305176,0.061035,-0.122070
1835274250,0.00648499,0.00230408,-1.00485229,0.427246,0.122070,0.000000
1840315875,0.00633240,0.00173950,-1.00524902,0.427246,0.061035,0.000000
1845303458,0.00624084,0.00105286,-1.00613403,0.305176,0.122070,-0.122070
1850325333,0.00588989,0.00045776,-1.00593567,0.366211,0.061035,-0.244141
1855300125,0.00494385,0.00007629,-1.00454712,0.244141,0.061035,-0.061035
1860281333,0.00363159,-0.00001526,-1.00387573,0.244141,0.244141,0.000000
1865317083,0.00212097,0.00025940,-1.00500488,0.366211,-0.061035,0.061035
1870312875,0.00044250,0.00086975,-1.00636292,0.366211,0.061035,-0.061035
1875436416,-0.00128174,0.00112915,-1.00611877,0.244141,0.061035,-0.122070
1880299791,-0.00291443,0.00085449,-1.00518799,0.366211,0.000000,-0.061035
1885310791,-0.00386047,0.00085449,-1.00537109,0.427246,0.061035,0.061035
1890306875,-0.00382996,0.00158691,-1.00587463,0.366211,0.061035,0.000000
1895310875,-0.00323486,0.00302124,-1.00541687,0.244141,0.061035,0.000000
1900295083,-0.00216675,0.00462341,-1.00506592,0.183105,0.061035,-0.122070
1905311958,-0.00076294,0.00588989,-1.00599670,0.244141,0.061035,-0.061035
1910317541,0.00027466,0.00714111,-1.00718689,0.305176,-0.061035,-0.122070
1915313291,0.00134277,0.00849915,-1.00688171,0.305176,0.061035,-0.122070
1920313375,0.00312805,0.00900269,-1.00569153,0.366211,0.000000,-0.061035
1925344250,0.00517273,0.00820923,-1.00578308,0.427246,-0.061035,-0.183105
1930322375,0.00624084,0.00694275,-1.00689697,0.244141,-0.061035,-0.061035
1935307541,0.00599670,0.00598145,-1.00677490,0.305176,0.122070,-0.061035
1940328541,0.00561523,0.00537109,-1.00521851,0.366211,-0.061035,0.000000
1945333250,0.00581360,0.00433350,-1.00425720,0.244141,-0.122070,-0.122070
1950306541,0.00581360,0.00250244,-1.00492859,0.305176,0.122070,-0.122070
1955331375,0.00491333,0.00054932,-1.00619507,0.305176,0.000000,-0.183105
1960344916,0.00340271,-0.00071716,-1.00646973,0.305176,0.122070,0.061035
1965331541,0.00184631,-0.00103760,-1.00538635,0.488281,0.122070,0.000000
1970342750,0.00036621,-0.00085449,-1.00479126,0.305176,0.000000,-0.122070
1975368708,-0.00088501,-0.00067139,-1.00593567,0.427246,0.061035,-0.122070
1980444291,-0.00187683,-0.00019836,-1.00720215,0.366211,-0.061035,-0.183105
1985344375,-0.00242615,0.00108337,-1.00686646,0.244141,0.000000,-0.183105
1990329833,-0.00254822,0.00311279,-1.00521851,0.305176,0.000000,-0.061035
1995322958,-0.00244141,0.00491333,-1.00437927,0.305176,0.061035,-0.183105
2000336541,-0.00210571,0.00585938,-1.00584412,0.305176,0.061035,-0.122070
2005322125,-0.00141907,0.00622559,-1.00709534,0.183105,0.000000,-0.183105
2010333333,-0.00032043,0.00624084,-1.00645447,0.488281,0.061035,-0.061035
2015327541,0.00073242,0.00572205,-1.00538635,0.427246,0.061035,0.000000
2020328333,0.00115967,0.00482178,-1.00511169,0.244141,0.061035,-0.122070
2025350416,0.00140381,0.00407410,-1.00593567,0.305176,-0.061035,-0.122070
2030321250,0.00245667,0.00373840,-1.00683594,0.244141,0.061035,-0.122070
2035330583,0.00408936,0.00350952,-1.00610352,0.366211,0.000000,0.061035
2040376791,0.00506592,0.00321960,-1.00488281,0.305176,0.000000,0.000000
2045332791,0.00518799,0.00297546,-1.00482178,0.488281,0.000000,-0.061035
2050319916,0.00538635,0.00256348,-1.00491333,0.244141,0.000000,-0.061035
2055362291,0.00581360,0.00193787,-1.00482178,0.244141,-0.183105,-0.183105
2060350166,0.00559998,0.00117493,-1.00570679,0.366211,0.061035,-0.061035
2065335208,0.00462341,0.00033569,-1.00633240,0.366211,0.122070,-0.122070
2070326750,0.00331116,-0.00010681,-1.00553894,0.366211,0.000000,-0.061035
2075360416,0.00205994,0.00009155,-1.00521851,0.427246,0.000000,-0.061035
2080337291,0.00100708,0.00044250,-1.00611877,0.366211,-0.183105,0.000000
2085400625,0.00006104,0.00045776,-1.00685120,0.244141,-0.122070,0.000000
2090375791,-0.00077820,0.00024414,-1.00640869,0.244141,0.061035,0.122070
2095366666,-0.00164795,0.00042725,-1.00532532,0.061035,0.000000,0.000000
2100347541,-0.00251770,0.00120544,-1.00582886,0.000000,-0.122070,0.061035
2105361541,-0.00286865,0.00236511,-1.00822449,0.244141,0.061035,-0.122070
2110370416,-0.00230408,0.00376892,-1.00929260,0.122070,0.061035,0.000000
2115362833,-0.00137329,0.00489807,-1.00679016,0.122070,0.000000,-0.122070
2120333250,-0.00103760,0.00524902,-1.00428772,0.061035,-0.061035,-0.061035
2125351166,-0.00094604,0.00497437,-1.00538635,0.061035,0.000000,0.000000
2130356333,-0.00003052,0.00457764,-1.00729370,0.000000,-0.061035,-0.061035
2135344250,0.00140381,0.00437927,-1.00708008,0.366211,0.122070,-0.122070
2140359666,0.00234985,0.00453186,-1.00559998,0.183105,0.000000,-0.183105
2145354458,0.00297546,0.00477600,-1.00444031,0.183105,0.122070,-0.122070
2150405208,0.00378418,0.00471497,-1.00453186,0.427246,0.000000,0.000000
2155403666,0.00460815,0.00447083,-1.00537109,0.366211,-0.061035,-0.061035
2160375541,0.00497437,0.00434875,-1.00511169,0.244141,0.000000,-0.061035
2165351791,0.00495911,0.00456238,-1.00427246,0.305176,-0.061035,-0.061035
2170383500,0.00485229,0.00532532,-1.00595093,0.427246,-0.061035,-0.061035
2175381250,0.00454712,0.00634766,-1.00773621,0.366211,0.061035,-0.122070
2180360333,0.00369263,0.00682068,-1.00492859,0.244141,0.183105,-0.122070
2185377000,0.00260925,0.00636292,-1.00300598,0.305176,-0.061035,-0.122070
2190422541,0.00138855,0.00524902,-1.00726318,0.427246,-0.122070,-0.183105
2195361083,0.00025940,0.00375366,-1.01068115,0.122070,0.000000,-0.061035
2200392708,-0.00032043,0.00257874,-1.00933838,0.305176,0.061035,-0.061035
2205363833,-0.00067139,0.00190735,-1.00599670,0.427246,0.061035,-0.183105
2210402791,-0.00119019,0.00134277,-1.00361633,0.183105,0.061035,-0.061035
2215415041,-0.00180054,0.00105286,-1.00498962,0.366211,0.000000,-0.061035
2220357125,-0.00175476,0.00119019,-1.00781250,0.244141,0.061035,0.000000
2225412041,-0.00062561,0.00143433,-1.00721741,0.244141,0.122070,-0.061035
2230379333,0.00093079,0.00151062,-1.00418091,0.183105,0.061035,-0.122070
2235387333,0.00213623,0.00146484,-1.00402832,0.305176,0.061035,-0.122070
2240377416,0.00297546,0.00120544,-1.00656128,0.366211,0.061035,-0.122070
2245412625,0.00405884,0.00030518,-1.00770569,0.427246,0.061035,0.000000
2250379750,0.00526428,-0.00103760,-1.00633240,0.366211,0.061035,-0.061035
2255383125,0.00564575,-0.00157166,-1.00469971,0.305176,0.061035,-0.061035
2260398583,0.00511169,-0.00083923,-1.00527954,0.366211,-0.061035,-0.122070
2265399583,0.00477600,0.00022888,-1.00685120,0.183105,0.122070,-0.061035
2270366375,0.00480652,0.00131226,-1.00651550,0.366211,-0.061035,-0.122070
2275452041,0.00427246,0.00265503,-1.00505066,0.366211,0.061035,-0.183105
2280393791,0.00302124,0.00410461,-1.00535583,0.366211,0.061035,-0.061035
2285416125,0.00170898,0.00517273,-1.00680542,0.427246,0.061035,-0.122070
2290406291,0.00073242,0.00601196,-1.00683594,0.183105,-0.122070,0.000000
2295462500,-0.00012207,0.00677490,-1.00552368,0.122070,0.061035,-0.183105
2300405000,-0.00129700,0.00703430,-1.00491333,0.244141,-0.061035,0.000000
2305378750,-0.00267029,0.00697327,-1.00559998,0.305176,0.061035,-0.061035
2310428375,-0.00332642,0.00704956,-1.00604248,0.366211,0.061035,-0.183105
2315391083,-0.00296021,0.00706482,-1.00540161,0.183105,0.000000,-0.061035
2320397500,-0.00221252,0.00646973,-1.00494385,0.183105,0.000000,-0.061035
2325417958,-0.00170898,0.00518799,-1.00593567,0.366211,0.061035,0.000000
2330398708,-0.00099182,0.00360107,-1.00679016,0.183105,-0.061035,-0.244141
2335391750,0.00045776,0.00230408,-1.00579834,0.183105,0.000000,0.000000
2340433708,0.00219727,0.00138855,-1.00498962,0.305176,0.122070,-0.244141
2345422875,0.00361633,0.00067139,-1.00599670,0.305176,0.061035,-0.061035
2350405208,0.00482178,0.00036621,-1.00715637,0.183105,0.000000,-0.183105
2355436250,0.00570679,0.00062561,-1.00679016,0.427246,0.061035,-0.122070
2360376458,0.00617981,0.00117493,-1.00526428,0.305176,0.183105,-0.061035
2365434666,0.00628662,0.00161743,-1.00442505,0.305176,0.122070,0.000000
2370380791,0.00619507,0.00205994,-1.00531006,0.244141,0.000000,-0.061035
2375403750,0.00570679,0.00265503,-1.00643921,0.488281,0.122070,-0.122070
2380431625,0.00422668,0.00354004,-1.00622559,0.427246,0.122070,-0.183105
2385413750,0.00247192,0.00540161,-1.00477600,0.488281,0.000000,-0.061035
2390430583,0.00152588,0.00889587,-1.00257874,0.244141,0.061035,-0.183105
2395447916,0.00102234,0.01310730,-1.00109863,0.122070,0.061035,-0.122070
2400438375,-0.00022888,0.01570129,-1.00645447,0.549316,0.000000,-0.122070
2405403541,-0.00253296,0.01477051,-1.01632690,0.244141,0.183105,-0.061035
2410464250,-0.00451660,0.00994873,-1.01403809,1.586914,0.122070,0.061035
2415444375,-0.00515747,0.00289917,-1.00274658,-0.183105,0.061035,0.061035
2420417541,-0.00474548,-0.00344849,-0.99563599,-0.610352,0.183105,0.000000
2425403083,-0.00375366,-0.00714111,-0.99644470,0.915527,0.061035,0.122070
2430449125,-0.00219727,-0.00787354,-1.01655579,0.183105,0.061035,-0.061035
2435389291,0.00010681,-0.00698853,-1.02246094,0.061035,0.061035,-0.061035
2440435208,0.00276184,-0.00592041,-0.99818420,0.427246,0.061035,-0.122070
2445437916,0.00488281,-0.00439453,-0.99522400,0.671387,0.000000,-0.244141
2450619875,0.00633240,-0.00247192,-1.00936890,-0.244141,0.061035,-0.122070
2455426125,0.00738525,-0.00050354,-1.00918579,0.610352,0.061035,-0.244141
2460380708,0.00820923,0.00140381,-1.00672913,0.671387,0.000000,-0.183105
2465454291,0.00820923,0.00312805,-1.00460815,-0.122070,0.122070,-0.061035
2470456125,0.00685120,0.00454712,-0.99874878,0.610352,0.061035,-0.122070
2475546833,0.00457764,0.00581360,-1.00389099,0.610352,0.061035,0.061035
2480402416,0.00234985,0.00700378,-1.01202393,0.061035,0.000000,-0.061035
2485436291,0.00044250,0.00790405,-1.00477600,0.488281,0.061035,0.061035
2490411500,-0.00129700,0.00871277,-0.99955750,0.549316,0.122070,0.000000
2495431500,-0.00241089,0.00944519,-1.00637817,0.183105,0.000000,0.000000
2500476291,-0.00263977,0.00909424,-1.00871277,0.183105,0.122070,0.000000
2505421916,-0.00233459,0.00776672,-1.00679016,0.549316,0.122070,0.000000
2510411666,-0.00169373,0.00680542,-1.00741577,0.122070,0.000000,-0.183105
2515387625,-0.00042725,0.00677490,-1.00628662,0.122070,0.000000,-0.244141
2520429125,0.00099182,0.00665283,-1.00559998,0.488281,0.000000,-0.183105
2525402375,0.00198364,0.00521851,-1.00796509,0.366211,0.000000,-0.122070
2530412916,0.00306702,0.00241089,-1.00686646,0.122070,0.122070,-0.183105
2535401666,0.00413513,-0.00079346,-1.00430298,0.427246,0.122070,-0.122070
2540445750,0.00404358,-0.00360107,-1.00604248,0.305176,0.061035,-0.061035
2545430750,0.00323486,-0.00576782,-1.00677490,0.305176,0.000000,-0.061035
2550468166,0.00297546,-0.00703430,-1.00465393,0.366211,0.000000,0.122070
2555538500,0.00354004,-0.00666809,-1.00492859,0.122070,0.061035,0.061035
2560458458,0.00404358,-0.00448608,-1.00643921,0.244141,-0.061035,-0.122070
2565448208,0.00387573,-0.00102234,-1.00656128,0.244141,-0.061035,-0.122070
2570690625,0.00360107,0.00325012,-1.00654602,0.244141,0.061035,0.000000
2575436500,0.00349426,0.00804138,-1.00614929,0.305176,0.122070,-0.061035
2580461250,0.00341797,0.01278687,-1.00563049,0.427246,0.000000,-0.183105
2585429541,0.00306702,0.01603699,-1.00624084,0.305176,0.061035,-0.305176
2590583375,0.00195312,0.01669312,-1.00653076,0.305176,0.122070,-0.122070
2595429833,0.00038147,0.01524353,-1.00550842,0.244141,0.000000,-0.061035
2600411083,-0.00117493,0.01266479,-1.00558472,0.366211,0.061035,-0.122070
2605480958,-0.00268555,0.00909424,-1.00683594,0.244141,0.122070,-0.061035
2610412958,-0.00396729,0.00460815,-1.00665283,0.305176,0.061035,-0.061035
2615414291,-0.00466919,0.00022888,-1.00578308,0.366211,0.122070,-0.061035
2620479208,-0.00436401,-0.00299072,-1.00582886,0.366211,0.061035,0.122070
2625472875,-0.00282288,-0.00451660,-1.00608826,0.244141,0.061035,-0.061035
2630443916,-0.00090027,-0.00459290,-1.00634766,0.366211,0.061035,0.122070
2635426458,0.00083923,-0.00358582,-1.00640869,0.427246,0.122070,0.000000
2640448416,0.00256348,-0.00152588,-1.00604248,0.122070,0.122070,-0.244141
2645442875,0.00424194,0.00126648,-1.00578308,0.305176,0.122070,-0.183105
2650453583,0.00566101,0.00376892,-1.00578308,0.244141,0.061035,-0.244141
2655437416,0.00631714,0.00480652,-1.00569153,0.305176,0.122070,-0.244141
2660452833,0.00613403,0.00418091,-1.00567627,0.183105,0.000000,-0.244141
2665446375,0.00547791,0.00273132,-1.00650024,0.427246,0.061035,-0.061035
2670567583,0.00434875,0.00135803,-1.00744629,0.122070,0.183105,-0.122070
2675460583,0.00300598,0.00030518,-1.00665283,0.305176,0.183105,0.061035
2680434791,0.00164795,-0.00039673,-1.00506592,0.305176,0.000000,0.000000
2685454083,0.00024414,-0.00050354,-1.00457764,0.244141,0.061035,0.061035
2690430583,-0.00056458,0.00056458,-1.00534058,0.244141,-0.122070,0.183105
2695431125,-0.00064087,0.00279236,-1.00619507,0.305176,-0.061035,0.061035
2700449791,-0.00022888,0.00559998,-1.00610352,0.183105,0.061035,-0.061035
2705457333,0.00024414,0.00813293,-1.00552368,0.305176,0.061035,-0.183105
2710436583,0.00038147,0.00933838,-1.00602722,0.427246,-0.061035,-0.244141
2715441208,0.00068665,0.00903320,-1.00717163,0.366211,0.122070,-0.183105
2720448791,0.00144958,0.00767517,-1.00698853,0.305176,0.000000,-0.061035
2725455833,0.00193787,0.00576782,-1.00540161,0.305176,0.061035,-0.183105
2730460791,0.00161743,0.00367737,-1.00453186,0.366211,-0.061035,-0.183105
2735443791,0.00085449,0.00125122,-1.00556946,0.488281,-0.122070,-0.122070
2740491083,0.00071716,-0.00166321,-1.00709534,0.366211,0.061035,0.000000
2745445708,0.00167847,-0.00408936,-1.00704956,0.244141,0.000000,-0.061035
2750448916,0.00292969,-0.00460815,-1.00593567,0.244141,0.122070,0.061035
2755449791,0.00367737,-0.00296021,-1.00569153,0.366211,-0.061035,0.061035
2760459041,0.00419617,-0.00003052,-1.00645447,0.488281,0.122070,-0.061035
2765464916,0.00497437,0.00308228,-1.00643921,0.427246,0.061035,0.061035
2770495541,0.00566101,0.00582886,-1.00553894,0.366211,0.183105,0.000000
2775463166,0.00556946,0.00837708,-1.00527954,0.122070,0.061035,-0.244141
2780458958,0.00479126,0.01065063,-1.00604248,0.305176,0.000000,0.061035
2785462041,0.00381470,0.01173401,-1.00643921,0.427246,0.061035,-0.244141
2790453541,0.00270081,0.01091003,-1.00575256,0.244141,-0.061035,-0.122070
2795464166,0.00160217,0.00848389,-1.00526428,0.183105,0.183105,0.000000
2800468666,0.00007629,0.00517273,-1.00602722,0.305176,0.000000,-0.183105
2805479750,-0.00209045,0.00201416,-1.00659180,0.366211,0.061035,0.000000
2810453958,-0.00387573,-0.00004578,-1.00610352,0.305176,0.061035,0.000000
2815492166,-0.00416565,-0.00122070,-1.00579834,0.122070,0.061035,0.061035
2820462250,-0.00297546,-0.00180054,-1.00648499,0.244141,0.122070,0.061035
2825498750,-0.00125122,-0.00154114,-1.00715637,0.305176,0.061035,0.122070
2830477041,0.00016785,-0.00028992,-1.00679016,0.305176,0.061035,0.061035
2835467208,0.00123596,0.00163269,-1.00593567,0.366211,0.122070,0.000000
2840484791,0.00251770,0.00382996,-1.00590515,0.183105,0.000000,-0.183105
2845586333,0.00392151,0.00572205,-1.00677490,0.366211,0.183105,-0.122070
2850502291,0.00492859,0.00686646,-1.00740051,0.366211,0.122070,-0.122070
2855530125,0.00537109,0.00708008,-1.00689697,0.244141,-0.061035,-0.183105
2860463000,0.00508118,0.00630188,-1.00604248,0.183105,0.061035,-0.244141
2865539791,0.00405884,0.00500488,-1.00608826,0.366211,0.000000,-0.122070
2870471166,0.00268555,0.00363159,-1.00656128,0.244141,0.122070,0.000000
2875518041,0.00154114,0.00224304,-1.00628662,0.488281,0.061035,0.122070
2880473083,0.00074768,0.00112915,-1.00544739,0.366211,0.000000,0.061035
2885518333,0.00032043,0.00103760,-1.00518799,0.244141,0.000000,0.000000
2890486916,0.00025940,0.00201416,-1.00584412,0.427246,0.183105,0.000000
2895479375,0.00077820,0.00328064,-1.00614929,0.427246,0.122070,0.061035
2900485791,0.00173950,0.00415039,-1.00547791,0.305176,0.122070,-0.122070
2905612291,0.00207520,0.00456238,-1.00535583,0.244141,0.061035,-0.122070
2910524500,0.00115967,0.00474548,-1.00669861,0.305176,0.000000,0.000000
2915493375,0.00000000,0.00451660,-1.00775146,0.244141,0.061035,-0.122070
2920485791,-0.00015259,0.00354004,-1.00717163,0.305176,0.122070,-0.061035
2925535958,0.00021362,0.00186157,-1.00605774,0.244141,0.000000,-0.122070
2930490208,0.00022888,-0.00010681,-1.00608826,0.244141,0.122070,0.000000
2935470416,-0.00007629,-0.00175476,-1.00715637,0.305176,0.122070,-0.061035
2940549291,-0.00028992,-0.00231934,-1.00709534,0.366211,0.122070,-0.061035
2945555500,0.00024414,-0.00157166,-1.00569153,0.366211,0.061035,0.061035
2950518208,0.00146484,0.00009155,-1.00543213,0.366211,0.183105,-0.061035
2955523375,0.00253296,0.00228882,-1.00674438,0.366211,-0.061035,-0.122070
2960486541,0.00344849,0.00491333,-1.00729370,0.244141,0.061035,-0.061035
2965538875,0.00505066,0.00761414,-1.00601196,0.366211,0.000000,-0.122070
2970550166,0.00691223,0.00971985,-1.00498962,0.305176,0.122070,-0.183105
2975587333,0.00756836,0.01072693,-1.00576782,0.366211,0.000000,0.000000
2980509166,0.00651550,0.01052856,-1.00677490,0.427246,-0.061035,-0.061035
2985497375,0.00476074,0.00921631,-1.00633240,0.427246,0.061035,-0.061035
2990507041,0.00334167,0.00723267,-1.00540161,0.488281,0.061035,-0.122070
2995540083,0.00228882,0.00486755,-1.00570679,0.305176,0.000000,-0.122070
3000480416,0.00120544,0.00209045,-1.00679016,0.305176,0.122070,0.000000
3005502416,0.00000000,-0.00035095,-1.00704956,0.366211,0.061035,-0.061035
3010510333,-0.00112915,-0.00181580,-1.00642395,0.366211,0.061035,0.122070
3015491958,-0.00186157,-0.00245667,-1.00634766,0.183105,0.122070,0.061035
3020500625,-0.00184631,-0.00277710,-1.00718689,0.305176,0.061035,0.000000
3025511375,-0.00125122,-0.00280762,-1.00721741,0.427246,0.000000,-0.122070
3030495750,-0.00054932,-0.00219727,-1.00584412,0.366211,0.122070,-0.122070
3035521791,0.00022888,-0.00080872,-1.00460815,0.244141,0.122070,-0.122070
3040511041,0.00103760,0.00094604,-1.00485229,0.366211,0.000000,-0.061035
3045510666,0.00172424,0.00256348,-1.00585938,0.366211,0.061035,-0.183105
3050518541,0.00230408,0.00390625,-1.00602722,0.244141,0.122070,-0.244141
3055511083,0.00274658,0.00473022,-1.00540161,0.183105,0.122070,-0.061035
3060512541,0.00302124,0.00462341,-1.00541687,0.305176,0.061035,-0.122070
3065524708,0.00337219,0.00408936,-1.00610352,0.244141,0.061035,-0.061035
3070513625,0.00369263,0.00396729,-1.00656128,0.305176,0.000000,0.000000
3075526458,0.00372314,0.00453186,-1.00637817,0.427246,0.122070,0.061035
3080510916,0.00393677,0.00552368,-1.00605774,0.305176,0.061035,-0.122070
3085528208,0.00427246,0.00654602,-1.00610352,0.244141,0.122070,-0.061035
3090510750,0.00418091,0.00732422,-1.00605774,0.305176,-0.061035,-0.122070
3095505333,0.00379944,0.00791931,-1.00541687,0.366211,-0.122070,0.061035
3100566250,0.00349426,0.00816345,-1.00511169,0.244141,0.061035,-0.061035
3105522500,0.00309753,0.00756836,-1.00601196,0.305176,0.061035,-0.061035
3110528166,0.00251770,0.00624084,-1.00691223,0.305176,0.000000,-0.122070
3115514166,0.00169373,0.00463867,-1.00665283,0.366211,-0.061035,-0.061035
3120535291,0.00051880,0.00245667,-1.00610352,0.305176,0.000000,-0.061035
3125619458,-0.00088501,-0.00018311,-1.00642395,0.305176,0.000000,-0.122070
3130522333,-0.00196838,-0.00231934,-1.00724792,0.366211,0.061035,0.000000
3135520875,-0.00201416,-0.00350952,-1.00720215,0.244141,0.122070,0.000000
3140545708,-0.00117493,-0.00382996,-1.00607300,0.427246,0.000000,0.000000
3145545500,-0.00022888,-0.00323486,-1.00512695,0.305176,-0.061035,-0.061035
3150517083,0.00062561,-0.00193787,-1.00521851,0.244141,0.000000,-0.061035
3155536208,0.00189209,-0.00015259,-1.00563049,0.244141,0.061035,-0.061035
3160536000,0.00325012,0.00213623,-1.00605774,0.305176,0.122070,0.000000
3165546083,0.00398254,0.00453186,-1.00657654,0.366211,0.061035,-0.061035
3170667833,0.00402832,0.00656128,-1.00689697,0.183105,0.000000,-0.061035
3175608916,0.00373840,0.00793457,-1.00680542,0.305176,0.061035,-0.061035
3180638416,0.00363159,0.00845337,-1.00633240,0.305176,-0.061035,-0.183105
3185548750,0.00378418,0.00837708,-1.00581360,0.305176,0.122070,-0.061035
3190532125,0.00309753,0.00787354,-1.00584412,0.244141,0.061035,0.000000
3195640250,0.00170898,0.00694275,-1.00610352,0.488281,0.122070,0.122070
3200577833,0.00119019,0.00575256,-1.00610352,0.427246,0.000000,-0.061035
3205552958,0.00152588,0.00456238,-1.00602722,0.427246,0.183105,-0.061035
3210549750,0.00131226,0.00386047,-1.00593567,0.427246,0.000000,-0.122070
3215556500,0.00027466,0.00363159,-1.00599670,0.244141,0.244141,-0.122070
3220529875,-0.00042725,0.00334167,-1.00627136,0.366211,-0.061035,0.000000
3225583958,-0.00033569,0.00309753,-1.00605774,0.427246,0.000000,-0.061035
3230565291,-0.00006104,0.00326538,-1.00547791,0.244141,0.122070,-0.061035
3235615083,0.00003052,0.00332642,-1.00581360,0.122070,0.061035,-0.122070
3240562791,0.00050354,0.00285339,-1.00672913,0.488281,-0.061035,0.000000
3245584541,0.00140381,0.00195312,-1.00668335,0.366211,0.000000,-0.183105
3250687625,0.00209045,0.00067139,-1.00613403,0.366211,0.000000,0.000000
3255481791,0.00239563,-0.00061035,-1.00590515,0.305176,0.000000,-0.183105
3260566750,0.00239563,-0.00122070,-1.00581360,0.183105,0.000000,0.000000
3265607583,0.00198364,-0.00093079,-1.00538635,0.305176,0.061035,-0.061035
3270550791,0.00161743,-0.00016785,-1.00469971,0.183105,0.061035,0.000000
3275601291,0.00184631,0.00097656,-1.00447083,0.244141,0.000000,-0.061035
3280651125,0.00259399,0.00273132,-1.00500488,0.427246,0.061035,0.000000
3285551250,0.00332642,0.00454712,-1.00587463,0.427246,0.061035,-0.061035
3290639500,0.00372314,0.00619507,-1.00613403,0.305176,-0.061035,0.000000
3295601750,0.00389099,0.00741577,-1.00559998,0.305176,0.061035,-0.061035
3300571708,0.00378418,0.00770569,-1.00544739,0.244141,0.000000,-0.122070
3305578000,0.00343323,0.00735474,-1.00590515,0.366211,0.000000,-0.183105
3310543791,0.00289917,0.00686646,-1.00599670,0.244141,0.061035,-0.122070
3315547750,0.00242615,0.00622559,-1.00564575,0.305176,0.122070,-0.061035
3320610000,0.00181580,0.00508118,-1.00556946,0.244141,0.061035,-0.061035
3325601208,0.00056458,0.00347900,-1.00584412,0.366211,0.000000,-0.061035
3330612416,-0.00048828,0.00187683,-1.00585938,0.488281,0.061035,0.000000
3335589958,-0.00028992,0.00093079,-1.00559998,0.305176,0.122070,0.000000
3340637083,0.00057983,0.00064087,-1.00605774,0.427246,0.061035,-0.061035
3345628750,0.00114441,0.00074768,-1.00711060,0.366211,0.061035,-0.061035
3350560208,0.00134277,0.00129700,-1.00717163,0.183105,0.000000,-0.061035
3355618166,0.00148010,0.00205994,-1.00585938,0.244141,0.000000,-0.122070
3360586750,0.00186157,0.00271606,-1.00482178,0.305176,-0.061035,-0.122070
3365597375,0.00288391,0.00346375,-1.00515747,0.244141,-0.061035,-0.122070
3370602541,0.00393677,0.00399780,-1.00596619,0.244141,0.061035,-0.061035
3375588541,0.00393677,0.00370789,-1.00590515,0.244141,0.122070,-0.061035
3380621333,0.00305176,0.00305176,-1.00532532,0.305176,0.061035,-0.183105
3385569916,0.00259399,0.00259399,-1.00544739,0.122070,-0.061035,-0.122070
3390601416,0.00292969,0.00241089,-1.00637817,0.244141,0.000000,-0.061035
3395604375,0.00314331,0.00239563,-1.00651550,0.061035,-0.061035,-0.061035
3400559041,0.00280762,0.00238037,-1.00541687,0.183105,0.122070,0.000000
3405572375,0.00231934,0.00242615,-1.00518799,0.183105,0.122070,0.000000
3410590916,0.00218201,0.00268555,-1.00639343,0.305176,0.183105,-0.061035
3415581291,0.00218201,0.00314331,-1.00672913,0.183105,0.183105,-0.061035
3420619833,0.00189209,0.00395203,-1.00549316,0.305176,0.061035,-0.061035
3425599625,0.00164795,0.00508118,-1.00466919,0.427246,0.061035,0.000000
3430609500,0.00163269,0.00590515,-1.00511169,0.244141,0.061035,0.000000
3435575083,0.00115967,0.00579834,-1.00563049,0.366211,0.183105,-0.183105
3440613333,0.00016785,0.00508118,-1.00553894,0.427246,0.061035,-0.183105
3445607041,-0.00018311,0.00436401,-1.00531006,0.305176,0.000000,-0.061035
3450619375,0.00048828,0.00376892,-1.00585938,0.488281,-0.061035,-0.122070
3455612291,0.00111389,0.00328064,-1.00688171,0.366211,0.122070,-0.061035
3460594625,0.00097656,0.00285339,-1.00698853,0.305176,0.061035,-0.061035
3465624458,0.00077820,0.00234985,-1.00599670,0.427246,0.122070,-0.061035
3470604166,0.00093079,0.00166321,-1.00556946,0.305176,0.061035,0.000000
3475620000,0.00144958,0.00106812,-1.00646973,0.244141,0.000000,-0.061035
3480645000,0.00222778,0.00112915,-1.00730896,0.427246,-0.061035,-0.061035
3485639958,0.00271606,0.00228882,-1.00672913,0.305176,0.122070,-0.183105
3490660333,0.00289917,0.00413513,-1.00579834,0.366211,0.061035,-0.122070
3495622416,0.00318909,0.00553894,-1.00599670,0.366211,0.122070,0.000000
3500598791,0.00332642,0.00588989,-1.00636292,0.244141,0.000000,-0.183105
3505608375,0.00296021,0.00558472,-1.00537109,0.366211,0.061035,-0.122070
3510634250,0.00231934,0.00531006,-1.00442505,0.183105,0.061035,-0.061035
3515601541,0.00163269,0.00515747,-1.00527954,0.366211,0.061035,-0.122070
3520636208,0.00080872,0.00450134,-1.00645447,0.305176,0.183105,-0.061035
3525627833,0.00024414,0.00308228,-1.00613403,0.305176,0.061035,-0.061035
3530608375,0.00041199,0.00177002,-1.00500488,0.427246,0.061035,-0.061035
3535631125,0.00097656,0.00112915,-1.00482178,0.305176,-0.061035,-0.061035
3540748458,0.00122070,0.00088501,-1.00567627,0.183105,-0.061035,-0.061035
3545660833,0.00120544,0.00050354,-1.00613403,0.427246,0.061035,0.000000
3550641041,0.00157166,-0.00001526,-1.00549316,0.122070,0.061035,0.000000
3555594458,0.00219727,-0.00003052,-1.00497437,0.244141,0.000000,-0.183105
3560642916,0.00254822,0.00080872,-1.00564575,0.305176,0.000000,-0.183105
3565645041,0.00267029,0.00204468,-1.00617981,0.488281,0.000000,-0.061035
3570610791,0.00273132,0.00320435,-1.00556946,0.305176,0.000000,-0.122070
3575720041,0.00245667,0.00411987,-1.00466919,0.427246,0.061035,-0.183105
3580664625,0.00181580,0.00463867,-1.00482178,0.244141,0.061035,-0.122070
3585614708,0.00125122,0.00465393,-1.00573730,0.305176,0.061035,-0.061035
3590625250,0.00088501,0.00447083,-1.00595093,0.244141,0.000000,-0.061035
3595652000,0.00074768,0.00448608,-1.00553894,0.305176,0.000000,-0.061035
3600658875,0.00094604,0.00453186,-1.00585938,0.488281,0.061035,-0.061035
3605626083,0.00149536,0.00451660,-1.00685120,0.366211,0.183105,0.000000
3610669833,0.00189209,0.00448608,-1.00714111,0.183105,0.000000,0.000000
3615615375,0.00192261,0.00404358,-1.00621033,0.305176,0.122070,-0.061035
3620625458,0.00196838,0.00338745,-1.00555420,0.244141,0.122070,-0.061035
3625678958,0.00224304,0.00328064,-1.00627136,0.183105,0.061035,-0.122070
3630669416,0.00236511,0.00381470,-1.00694275,0.305176,-0.061035,-0.122070
3635680166,0.00209045,0.00402832,-1.00624084,0.427246,0.000000,-0.061035
3640643625,0.00155640,0.00378418,-1.00523376,0.366211,0.000000,-0.183105
3645678541,0.00135803,0.00331116,-1.00543213,0.305176,0.061035,-0.061035
3650633708,0.00170898,0.00251770,-1.00630188,0.244141,0.061035,-0.061035
3655621916,0.00166321,0.00161743,-1.00627136,0.366211,0.061035,-0.122070
3660668250,0.00091553,0.00108337,-1.00544739,0.305176,0.122070,-0.122070
3665659791,0.00045776,0.00109863,-1.00532532,0.305176,0.000000,-0.061035
3670658500,0.00065613,0.00137329,-1.00643921,0.244141,0.000000,0.000000
3675677500,0.00091553,0.00170898,-1.00718689,0.244141,0.061035,0.000000
3680665291,0.00077820,0.00238037,-1.00653076,0.244141,0.122070,-0.061035
3685682041,0.00062561,0.00328064,-1.00547791,0.183105,0.061035,-0.122070
3690687166,0.00097656,0.00411987,-1.00529480,0.366211,0.000000,-0.122070
3695743000,0.00164795,0.00489807,-1.00602722,0.305176,0.061035,-0.061035
3700671416,0.00224304,0.00558472,-1.00654602,0.366211,-0.061035,-0.061035
3705656333,0.00247192,0.00582886,-1.00631714,0.366211,0.061035,-0.061035
3710682500,0.00228882,0.00564575,-1.00639343,0.183105,0.000000,-0.122070
3715671125,0.00199890,0.00541687,-1.00712585,0.305176,0.000000,-0.061035
3720686583,0.00187683,0.00466919,-1.00735474,0.305176,-0.122070,0.000000
3725689208,0.00172424,0.00318909,-1.00605774,0.244141,0.183105,0.000000
3730655458,0.00129700,0.00192261,-1.00459290,0.183105,0.122070,-0.061035
3735670041,0.00100708,0.00138855,-1.00457764,0.244141,0.061035,0.000000
3740690583,0.00115967,0.00141907,-1.00553894,0.366211,0.122070,0.061035
3745685000,0.00140381,0.00172424,-1.00605774,0.305176,0.061035,-0.183105
3750675916,0.00134277,0.00213623,-1.00566101,0.366211,-0.061035,-0.061035
3755679750,0.00093079,0.00263977,-1.00524902,0.366211,0.000000,0.000000
3760663833,0.00083923,0.00296021,-1.00540161,0.244141,0.061035,-0.061035
3765692500,0.00167847,0.00320435,-1.00531006,0.427246,0.000000,-0.122070
3770646000,0.00305176,0.00376892,-1.00480652,0.244141,0.061035,0.000000
3775673875,0.00352478,0.00437927,-1.00483704,0.366211,0.122070,-0.122070
3780649125,0.00270081,0.00437927,-1.00561523,0.244141,-0.061035,-0.122070
3785652625,0.00158691,0.00399780,-1.00599670,0.122070,0.000000,-0.061035
3790682250,0.00099182,0.00369263,-1.00541687,0.305176,0.061035,0.000000
3795691000,0.00091553,0.00355530,-1.00509644,0.488281,0.122070,0.000000
3800764958,0.00103760,0.00370789,-1.00578308,0.244141,0.000000,-0.122070
3805670875,0.00125122,0.00405884,-1.00631714,0.305176,0.061035,-0.061035
3810729416,0.00134277,0.00439453,-1.00604248,0.305176,0.000000,-0.061035
3815667291,0.00117493,0.00424194,-1.00563049,0.183105,0.061035,-0.061035
3820694208,0.00096130,0.00379944,-1.00581360,0.305176,0.000000,-0.122070
3825702208,0.00091553,0.00382996,-1.00662231,0.244141,0.061035,0.000000
3830683000,0.00080872,0.00393677,-1.00724792,0.305176,0.000000,-0.061035
3835653541,0.00068665,0.00340271,-1.00671387,0.366211,-0.061035,-0.061035
3840672500,0.00074768,0.00262451,-1.00559998,0.305176,0.061035,-0.122070
3845686916,0.00074768,0.00216675,-1.00537109,0.427246,0.000000,-0.061035
3850673250,0.00076294,0.00195312,-1.00646973,0.366211,0.183105,0.061035
3855682625,0.00138855,0.00172424,-1.00712585,0.244141,0.122070,-0.061035
3860707583,0.00215149,0.00128174,-1.00621033,0.244141,0.183105,-0.122070
3865711666,0.00225830,0.00091553,-1.00537109,0.305176,0.183105,-0.122070
3870706458,0.00204468,0.00070190,-1.00614929,0.366211,0.061035,0.061035
3875733333,0.00221252,0.00073242,-1.00718689,0.366211,0.061035,0.061035
3880717333,0.00286865,0.00129700,-1.00688171,0.488281,-0.122070,-0.061035
3885707625,0.00341797,0.00224304,-1.00614929,0.244141,0.061035,0.000000
3890699416,0.00357056,0.00338745,-1.00617981,0.305176,0.244141,-0.122070
3895717166,0.00347900,0.00477600,-1.00639343,0.244141,0.183105,0.061035
3900663708,0.00291443,0.00575256,-1.00610352,0.305176,0.000000,0.000000
3905742083,0.00204468,0.00592041,-1.00585938,0.305176,0.061035,-0.122070
3910679125,0.00100708,0.00570679,-1.00622559,0.305176,-0.061035,-0.061035
3915678541,-0.00013733,0.00529480,-1.00650024,0.366211,0.061035,0.000000
3920688375,-0.00091553,0.00473022,-1.00650024,0.366211,0.000000,0.000000
3925721000,-0.00114441,0.00434875,-1.00592041,0.305176,0.061035,-0.061035
3930740250,-0.00109863,0.00430298,-1.00518799,0.366211,0.000000,-0.061035
3935677750,-0.00073242,0.00442505,-1.00556946,0.366211,0.061035,-0.061035
3940702333,0.00003052,0.00465393,-1.00624084,0.427246,-0.061035,-0.122070
3945702916,0.00097656,0.00476074,-1.00611877,0.427246,0.000000,-0.061035
3950684458,0.00192261,0.00444031,-1.00602722,0.366211,0.000000,-0.061035
3955681041,0.00273132,0.00389099,-1.00572205,0.488281,0.000000,-0.183105
3960756916,0.00328064,0.00329590,-1.00485229,0.366211,-0.061035,-0.122070
3965722791,0.00347900,0.00263977,-1.00492859,0.122070,0.061035,-0.061035
3970692375,0.00343323,0.00207520,-1.00598145,0.366211,0.000000,-0.122070
3975771625,0.00321960,0.00149536,-1.00650024,0.305176,0.122070,0.000000
3980718666,0.00315857,0.00051880,-1.00669861,0.305176,0.122070,0.000000
3985701250,0.00343323,-0.00024414,-1.00704956,0.366211,0.061035,-0.122070
3990717208,0.00321960,0.00000000,-1.00694275,0.366211,0.061035,-0.122070
3995723250,0.00213623,0.00105286,-1.00648499,0.305176,0.061035,-0.061035
4000693541,0.00097656,0.00189209,-1.00640869,0.305176,0.183105,0.000000
4005707500,0.00083923,0.00238037,-1.00636292,0.488281,0.061035,-0.061035
4010783625,0.00128174,0.00318909,-1.00595093,0.427246,0.000000,-0.183105
4015731791,0.00128174,0.00459290,-1.00563049,0.427246,0.061035,-0.183105
4020716000,0.00108337,0.00608826,-1.00546265,0.305176,0.000000,-0.061035
4025716500,0.00135803,0.00691223,-1.00544739,0.488281,0.122070,-0.183105
4030690375,0.00189209,0.00709534,-1.00595093,0.488281,0.183105,-0.122070
4035691000,0.00175476,0.00737000,-1.00651550,0.305176,0.000000,-0.183105
4040919166,0.00083923,0.00778198,-1.00688171,0.427246,-0.061035,-0.061035
4045742458,0.00004578,0.00741577,-1.00689697,0.366211,0.000000,-0.061035
4050715791,-0.00001526,0.00607300,-1.00634766,0.305176,0.061035,-0.183105
4055718750,0.00036621,0.00477600,-1.00611877,0.305176,0.061035,-0.061035
4060700583,0.00070190,0.00411987,-1.00671387,0.427246,0.061035,-0.061035
4065734541,0.00059509,0.00340271,-1.00662231,0.427246,0.122070,0.000000
4070741208,0.00028992,0.00195312,-1.00549316,0.305176,0.061035,0.000000
4075761416,0.00050354,0.00024414,-1.00517273,0.183105,0.000000,0.061035
4080717416,0.00111389,-0.00065613,-1.00613403,0.244141,0.061035,-0.061035
4085722500,0.00134277,-0.00071716,-1.00650024,0.305176,0.244141,-0.061035
4090782166,0.00112915,-0.00079346,-1.00585938,0.244141,0.122070,0.061035
4095723208,0.00108337,-0.00119019,-1.00576782,0.183105,0.000000,0.122070
4100706166,0.00152588,-0.00126648,-1.00607300,0.183105,0.183105,0.000000
4105719166,0.00245667,-0.00079346,-1.00546265,0.366211,0.122070,0.000000
4110740125,0.00379944,-0.00021362,-1.00457764,0.305176,0.122070,-0.122070
4115713708,0.00465393,0.00036621,-1.00436401,0.366211,0.183105,0.000000
4120702625,0.00450134,0.00126648,-1.00502014,0.305176,0.061035,-0.061035
4125724833,0.00413513,0.00239563,-1.00611877,0.366211,0.000000,0.000000
4130702416,0.00411987,0.00344849,-1.00677490,0.244141,0.122070,-0.061035
4135700250,0.00408936,0.00454712,-1.00674438,0.305176,0.122070,0.000000
4140745083,0.00381470,0.00575256,-1.00672913,0.305176,-0.061035,-0.061035
4145736750,0.00361633,0.00671387,-1.00674438,0.244141,0.122070,-0.061035
4150709375,0.00349426,0.00723267,-1.00636292,0.488281,0.061035,-0.183105
4155869166,0.00303650,0.00737000,-1.00511169,0.671387,0.305176,-0.061035
4160751166,0.00247192,0.00740051,-1.00215149,0.549316,0.183105,-0.061035
4165824666,0.00196838,0.00747681,-0.99896240,0.488281,0.000000,-0.183105
4170752958,0.00143433,0.00688171,-0.99882507,-0.061035,-0.122070,-0.061035
4175775875,0.00099182,0.00515747,-1.00689697,0.122070,0.000000,-0.061035
4180757291,0.00057983,0.00303650,-1.02095032,0.244141,-0.061035,-0.122070
4185791750,0.00006104,0.00105286,-1.02336121,0.122070,0.061035,-0.061035
4190738416,-0.00012207,-0.00053406,-1.00926208,0.305176,0.000000,-0.061035
4195750000,0.00027466,-0.00152588,-0.99795532,0.305176,0.000000,-0.061035
4200762625,0.00082397,-0.00157166,-0.99925232,0.244141,0.061035,0.000000
4205764458,0.00105286,-0.00083923,-1.00422668,0.122070,0.122070,0.000000
4210759291,0.00103760,0.00038147,-1.00721741,0.366211,0.000000,-0.061035
4215780291,0.00117493,0.00202942,-1.00733948,0.305176,0.061035,-0.183105
4220740916,0.00180054,0.00375366,-1.00378418,0.366211,0.061035,-0.122070
4225762875,0.00259399,0.00506592,-1.00213623,0.427246,0.183105,-0.122070
4230779083,0.00288391,0.00593567,-1.00547791,0.305176,0.061035,0.000000
4235734166,0.00277710,0.00680542,-1.00750732,0.305176,0.061035,-0.061035
4240774541,0.00270081,0.00701904,-1.00622559,0.488281,0.061035,0.000000
4245835000,0.00228882,0.00617981,-1.00566101,0.610352,0.061035,-0.122070
4250786375,0.00146484,0.00515747,-1.00537109,0.183105,0.183105,-0.061035
4255744041,0.00100708,0.00433350,-1.00389099,0.244141,0.061035,0.122070
4260781458,0.00093079,0.00366211,-1.00436401,0.305176,0.061035,0.122070
4265769166,0.00068665,0.00323486,-1.00726318,0.366211,0.000000,0.000000
4270737708,0.00030518,0.00303650,-1.00910950,0.427246,-0.061035,-0.122070
4275785625,0.00032043,0.00309753,-1.00921631,0.305176,0.061035,-0.122070
4280788083,0.00094604,0.00320435,-1.00834656,0.366211,-0.061035,-0.061035
4285761458,0.00169373,0.00282288,-1.00659180,0.488281,0.122070,-0.061035
4290761125,0.00177002,0.00218201,-1.00553894,0.366211,0.061035,-0.061035
4295776333,0.00088501,0.00184631,-1.00622559,0.366211,0.244141,-0.061035
4300771458,-0.00003052,0.00186157,-1.00700378,0.305176,0.000000,-0.122070
4305772000,0.00021362,0.00193787,-1.00622559,0.366211,0.061035,-0.061035
4310769208,0.00126648,0.00196838,-1.00498962,0.305176,0.061035,0.000000
4315780708,0.00198364,0.00215149,-1.00520325,0.488281,0.061035,0.000000
4320805708,0.00201416,0.00273132,-1.00636292,0.488281,0.061035,-0.122070
4325761708,0.00181580,0.00332642,-1.00665283,0.366211,0.000000,-0.061035
4330749083,0.00199890,0.00354004,-1.00553894,0.366211,0.000000,-0.061035
4335754250,0.00230408,0.00370789,-1.00500488,0.305176,0.000000,0.000000
4340792333,0.00233459,0.00408936,-1.00645447,0.305176,-0.122070,-0.122070
4345805375,0.00231934,0.00436401,-1.00778198,0.427246,0.122070,-0.061035
4350790125,0.00233459,0.00425720,-1.00698853,0.305176,0.000000,-0.122070
4355752208,0.00218201,0.00396729,-1.00552368,0.366211,0.061035,-0.061035
4360793750,0.00195312,0.00373840,-1.00566101,0.427246,0.000000,-0.061035
4365780916,0.00172424,0.00334167,-1.00675964,0.366211,0.122070,0.000000
4370772375,0.00131226,0.00271606,-1.00636292,0.305176,0.000000,-0.122070
4375811666,0.00080872,0.00207520,-1.00442505,0.244141,0.000000,0.061035
4380785416,0.00061035,0.00144958,-1.00390625,0.305176,0.061035,-0.061035
4385788875,0.00080872,0.00109863,-1.00588989,0.244141,0.000000,-0.122070
4390815625,0.00115967,0.00123596,-1.00775146,0.427246,0.000000,0.000000
4395802500,0.00167847,0.00170898,-1.00712585,0.366211,0.061035,-0.122070
4400799333,0.00245667,0.00247192,-1.00572205,0.244141,0.122070,0.000000
4405765833,0.00328064,0.00349426,-1.00611877,0.305176,0.000000,-0.061035
4410774125,0.00381470,0.00448608,-1.00733948,0.366211,0.061035,0.000000
4415792125,0.00384521,0.00534058,-1.00706482,0.305176,0.061035,0.061035
4420782541,0.00355530,0.00602722,-1.00563049,0.122070,-0.061035,-0.122070
4425797916,0.00347900,0.00631714,-1.00508118,0.305176,0.061035,-0.061035
4430776625,0.00384521,0.00598145,-1.00605774,0.305176,-0.061035,-0.122070
4435789375,0.00389099,0.00524902,-1.00663757,0.366211,0.183105,-0.122070
4440789000,0.00332642,0.00444031,-1.00552368,0.244141,0.061035,0.000000
4445788000,0.00300598,0.00369263,-1.00462341,0.183105,0.061035,-0.122070
4450790375,0.00277710,0.00332642,-1.00575256,0.244141,0.122070,-0.061035
4455812916,0.00192261,0.00325012,-1.00778198,0.427246,0.000000,-0.122070
4460795000,0.00083923,0.00292969,-1.00817871,0.305176,0.061035,0.000000
4465800791,0.00038147,0.00219727,-1.00637817,0.183105,0.000000,-0.122070
4470784750,0.00062561,0.00138855,-1.00492859,0.427246,0.000000,0.061035
4475878916,0.00103760,0.00071716,-1.00524902,0.305176,0.122070,-0.061035
4480815083,0.00115967,0.00039673,-1.00607300,0.183105,-0.061035,-0.122070
4485801125,0.00106812,0.00076294,-1.00628662,0.366211,0.061035,-0.061035
4490801041,0.00125122,0.00146484,-1.00613403,0.427246,0.000000,-0.061035
4495793000,0.00180054,0.00202942,-1.00575256,0.366211,-0.183105,0.000000
4500805791,0.00231934,0.00244141,-1.00561523,0.244141,0.000000,0.000000
4505811875,0.00248718,0.00277710,-1.00592041,0.244141,0.061035,0.000000
4510848083,0.00233459,0.00279236,-1.00614929,0.427246,0.000000,0.000000
4515801083,0.00231934,0.00285339,-1.00646973,0.244141,0.061035,-0.061035
4520816333,0.00274658,0.00347900,-1.00708008,0.244141,0.061035,0.000000
4525800083,0.00357056,0.00439453,-1.00685120,0.183105,0.000000,0.000000
4530809875,0.00456238,0.00498962,-1.00595093,0.427246,0.122070,0.000000
4535802083,0.00532532,0.00511169,-1.00570679,0.366211,0.122070,-0.061035
4540816541,0.00505066,0.00497437,-1.00599670,0.244141,0.000000,0.000000
4545834125,0.00364685,0.00465393,-1.00599670,0.366211,0.061035,-0.122070
4550828208,0.00222778,0.00405884,-1.00564575,0.305176,0.122070,-0.061035
4555817666,0.00170898,0.00349426,-1.00541687,0.305176,-0.061035,-0.122070
4560811166,0.00169373,0.00326538,-1.00549316,0.366211,0.000000,0.000000
4565817500,0.00143433,0.00297546,-1.00563049,0.427246,0.000000,-0.061035
4570801958,0.00093079,0.00210571,-1.00588989,0.366211,-0.122070,-0.122070
4575837000,0.00041199,0.00115967,-1.00628662,0.366211,0.122070,-0.061035
4580878333,0.00004578,0.00085449,-1.00662231,0.488281,0.122070,0.000000
4585826625,-0.00006104,0.00123596,-1.00674438,0.427246,0.000000,-0.061035
4590808541,-0.00001526,0.00178528,-1.00657654,0.488281,0.061035,0.061035
4595835833,0.00022888,0.00218201,-1.00640869,0.488281,0.000000,-0.061035
4600829041,0.00088501,0.00254822,-1.00643921,0.488281,0.000000,0.061035
4605816958,0.00135803,0.00302124,-1.00650024,0.366211,0.061035,-0.061035
4610814958,0.00111389,0.00364685,-1.00650024,0.427246,0.061035,-0.061035
4615815750,0.00094604,0.00424194,-1.00605774,0.366211,-0.061035,-0.183105
4620810000,0.00175476,0.00456238,-1.00540161,0.305176,0.000000,-0.244141
4625828708,0.00315857,0.00482178,-1.00538635,0.366211,-0.061035,-0.244141
4630817791,0.00416565,0.00498962,-1.00572205,0.244141,0.000000,0.000000
4635809333,0.00428772,0.00457764,-1.00540161,0.427246,0.000000,0.061035
4640819208,0.00396729,0.00366211,-1.00512695,0.427246,0.061035,0.000000
4645827416,0.00350952,0.00280762,-1.00572205,0.244141,0.000000,-0.122070
4650805583,0.00279236,0.00256348,-1.00665283,0.305176,0.000000,0.000000
4655813625,0.00195312,0.00276184,-1.00679016,0.427246,-0.061035,-0.122070
4660828625,0.00132751,0.00280762,-1.00592041,0.305176,0.122070,0.061035
4665850041,0.00085449,0.00262451,-1.00541687,0.305176,0.122070,0.061035
4670808958,0.00064087,0.00267029,-1.00598145,0.305176,0.061035,0.061035
4675844958,0.00067139,0.00292969,-1.00622559,0.183105,-0.061035,-0.122070
4680841541,0.00106812,0.00337219,-1.00526428,0.366211,0.061035,-0.183105
4685889291,0.00157166,0.00376892,-1.00468445,0.305176,0.061035,0.000000
4690847833,0.00141907,0.00370789,-1.00569153,0.305176,0.061035,-0.122070
4695836375,0.00076294,0.00320435,-1.00677490,0.427246,0.183105,0.000000
4700816291,0.00048828,0.00276184,-1.00646973,0.427246,0.000000,0.000000
4705839250,0.00082397,0.00276184,-1.00578308,0.366211,0.000000,-0.061035
4710835708,0.00117493,0.00300598,-1.00599670,0.366211,0.122070,-0.061035
4715827250,0.00126648,0.00303650,-1.00704956,0.305176,0.061035,-0.122070
4720825250,0.00155640,0.00270081,-1.00784302,0.366211,0.061035,0.061035
4725847458,0.00219727,0.00247192,-1.00714111,0.244141,0.000000,0.000000
4730844583,0.00277710,0.00288391,-1.00566101,0.305176,0.122070,-0.122070
4735853125,0.00273132,0.00370789,-1.00537109,0.366211,0.183105,0.000000
4740878291,0.00224304,0.00404358,-1.00582886,0.305176,0.000000,-0.061035
4745872583,0.00213623,0.00358582,-1.00517273,0.488281,0.000000,-0.183105
4750854083,0.00254822,0.00288391,-1.00457764,0.305176,0.000000,-0.183105
4755871916,0.00270081,0.00282288,-1.00550842,0.427246,0.000000,0.000000
4760854250,0.00228882,0.00331116,-1.00643921,0.366211,0.000000,-0.183105
4765858083,0.00192261,0.00346375,-1.00608826,0.305176,0.000000,-0.061035
4770842208,0.00196838,0.00325012,-1.00540161,0.244141,-0.061035,-0.061035
4775839125,0.00202942,0.00320435,-1.00558472,0.366211,0.061035,0.061035
4780854208,0.00186157,0.00315857,-1.00668335,0.305176,-0.122070,-0.183105
4785859458,0.00173950,0.00270081,-1.00721741,0.305176,-0.122070,-0.061035
4790864416,0.00172424,0.00233459,-1.00659180,0.305176,0.061035,0.000000
4795843166,0.00178528,0.00256348,-1.00622559,0.305176,0.000000,-0.122070
4800836708,0.00158691,0.00311279,-1.00686646,0.305176,-0.061035,-0.061035
4805900500,0.00117493,0.00344849,-1.00721741,0.366211,0.000000,-0.061035
4810933083,0.00091553,0.00332642,-1.00633240,0.244141,0.122070,-0.122070
4815880958,0.00086975,0.00291443,-1.00537109,0.183105,0.061035,-0.061035
4820883833,0.00091553,0.00273132,-1.00553894,0.183105,0.000000,0.000000
4825867833,0.00129700,0.00291443,-1.00598145,0.244141,-0.061035,0.000000
4830865333,0.00183105,0.00296021,-1.00552368,0.366211,0.061035,0.000000
4835927250,0.00221252,0.00276184,-1.00500488,0.244141,0.000000,-0.122070
4840932583,0.00273132,0.00279236,-1.00587463,0.244141,0.061035,-0.061035
4845863875,0.00335693,0.00317383,-1.00724792,0.244141,0.061035,0.000000
4850868833,0.00334167,0.00344849,-1.00720215,0.305176,0.122070,0.061035
4855868708,0.00250244,0.00352478,-1.00575256,0.366211,0.000000,-0.122070
4860876666,0.00204468,0.00373840,-1.00465393,0.305176,-0.061035,-0.122070
4865859666,0.00254822,0.00413513,-1.00491333,0.427246,0.061035,-0.061035
4870887708,0.00262451,0.00431824,-1.00538635,0.366211,0.000000,-0.061035
4875882000,0.00173950,0.00405884,-1.00515747,0.488281,0.000000,-0.122070
4880855916,0.00112915,0.00363159,-1.00524902,0.366211,0.000000,-0.061035
4885882416,0.00143433,0.00337219,-1.00624084,0.427246,0.122070,0.061035
4890854500,0.00169373,0.00329590,-1.00675964,0.183105,-0.061035,0.000000
4895879250,0.00109863,0.00306702,-1.00604248,0.305176,0.000000,-0.061035
4900866375,0.00013733,0.00247192,-1.00537109,0.366211,0.061035,-0.183105
4905877625,-0.00030518,0.00166321,-1.00576782,0.244141,0.183105,-0.183105
4910881375,0.00000000,0.00096130,-1.00653076,0.183105,0.000000,0.000000
4915879500,0.00051880,0.00053406,-1.00630188,0.183105,0.122070,-0.061035
4920853666,0.00090027,0.00041199,-1.00552368,0.122070,0.061035,-0.122070
4925902291,0.00102234,0.00053406,-1.00584412,0.244141,0.061035,-0.061035
4930889916,0.00102234,0.00112915,-1.00708008,0.366211,0.122070,-0.061035
4935861666,0.00126648,0.00238037,-1.00712585,0.305176,0.061035,-0.122070
4940876375,0.00173950,0.00360107,-1.00578308,0.244141,-0.061035,-0.061035
4945947916,0.00233459,0.00419617,-1.00500488,0.305176,0.000000,-0.244141
4950891041,0.00331116,0.00444031,-1.00564575,0.427246,0.000000,-0.122070
4955884708,0.00398254,0.00434875,-1.00621033,0.305176,0.061035,-0.183105
4960859083,0.00341797,0.00408936,-1.00540161,0.427246,0.061035,-0.061035
4965907250,0.00230408,0.00411987,-1.00514221,0.244141,0.000000,0.000000
4970878625,0.00189209,0.00437927,-1.00677490,0.366211,0.061035,-0.061035
4975945083,0.00207520,0.00468445,-1.00784302,0.366211,0.122070,0.000000
4980897208,0.00183105,0.00476074,-1.00671387,0.244141,0.061035,-0.061035
4985880333,0.00112915,0.00428772,-1.00531006,0.366211,0.122070,0.000000
4990948583,0.00086975,0.00363159,-1.00529480,0.427246,0.000000,0.000000
4996032041,0.00114441,0.00343323,-1.00599670,0.305176,0.000000,-0.122070
5000886083,0.00108337,0.00349426,-1.00648499,0.244141,-0.061035,-0.061035
5005949541,0.00044250,0.00303650,-1.00621033,0.305176,0.000000,-0.061035
5010976375,-0.00004578,0.00204468,-1.00590515,0.183105,0.000000,-0.061035
5015929250,-0.00016785,0.00105286,-1.00665283,0.244141,0.061035,-0.183105
5020913541,-0.00021362,0.00025940,-1.00717163,0.244141,-0.061035,-0.183105
5025902125,-0.00001526,-0.00015259,-1.00602722,0.183105,0.061035,0.000000
5030904666,0.00079346,-0.00009155,-1.00486755,0.183105,0.000000,-0.061035
5035898416,0.00187683,0.00050354,-1.00515747,0.366211,0.061035,0.000000
5040983916,0.00241089,0.00163269,-1.00596619,0.305176,0.061035,0.061035
5045930625,0.00236511,0.00259399,-1.00592041,0.305176,0.000000,-0.122070
5050906458,0.00274658,0.00334167,-1.00508118,0.305176,0.061035,-0.183105
5055920416,0.00396729,0.00418091,-1.00445557,0.183105,0.061035,-0.122070
5060906333,0.00512695,0.00509644,-1.00491333,0.122070,0.183105,-0.061035
5065927166,0.00541687,0.00578308,-1.00592041,0.366211,0.061035,-0.122070
5070906958,0.00469971,0.00587463,-1.00625610,0.305176,0.183105,0.000000
5075937708,0.00346375,0.00567627,-1.00592041,0.305176,0.061035,-0.061035
5080913875,0.00245667,0.00563049,-1.00596619,0.366211,0.061035,0.000000
5085921500,0.00169373,0.00546265,-1.00639343,0.427246,0.000000,-0.122070
5090939166,0.00077820,0.00494385,-1.00634766,0.488281,0.061035,-0.061035
5095904791,0.00003052,0.00405884,-1.00595093,0.183105,0.000000,-0.122070
5100957666,-0.00013733,0.00305176,-1.00633240,0.427246,0.000000,-0.061035
5105932166,-0.00007629,0.00225830,-1.00721741,0.366211,0.000000,-0.122070
5110903291,-0.00027466,0.00158691,-1.00704956,0.366211,0.061035,-0.122070
5115900166,-0.00064087,0.00106812,-1.00558472,0.366211,0.061035,0.061035
5120914750,-0.00036621,0.00083923,-1.00479126,0.427246,0.122070,-0.122070
5125957333,0.00038147,0.00065613,-1.00578308,0.366211,0.061035,-0.061035
5130929750,0.00054932,0.00059509,-1.00668335,0.427246,0.000000,0.061035
5135941458,0.00024414,0.00083923,-1.00607300,0.427246,0.061035,-0.183105
5141025708,0.00051880,0.00137329,-1.00534058,0.427246,-0.061035,-0.061035
5145970416,0.00146484,0.00187683,-1.00590515,0.366211,0.000000,0.061035
5150939166,0.00233459,0.00209045,-1.00650024,0.244141,0.000000,-0.061035
5156079875,0.00279236,0.00238037,-1.00555420,0.366211,0.000000,-0.122070
5160995833,0.00329590,0.00306702,-1.00440979,0.244141,0.122070,0.061035
5165938083,0.00387573,0.00407410,-1.00500488,0.244141,0.000000,-0.122070
5170962583,0.00442505,0.00494385,-1.00669861,0.244141,0.000000,0.000000
5175978208,0.00447083,0.00529480,-1.00714111,0.305176,0.183105,-0.122070
5180913541,0.00369263,0.00534058,-1.00592041,0.183105,0.000000,-0.122070
5185942708,0.00292969,0.00521851,-1.00512695,0.366211,0.061035,-0.122070
5190958125,0.00289917,0.00492859,-1.00616455,0.244141,0.061035,-0.122070
5195940125,0.00308228,0.00447083,-1.00729370,0.244141,-0.061035,-0.061035
5200931916,0.00251770,0.00389099,-1.00662231,0.183105,-0.061035,-0.122070
5206035833,0.00128174,0.00344849,-1.00511169,0.244141,0.183105,-0.061035
5210984125,0.00044250,0.00321960,-1.00492859,0.305176,0.000000,-0.122070
5215932166,0.00028992,0.00289917,-1.00602722,0.366211,0.000000,-0.183105
5220947708,0.00010681,0.00250244,-1.00643921,0.305176,0.122070,0.000000
5225941208,-0.00013733,0.00216675,-1.00575256,0.366211,-0.061035,-0.061035
5230929958,-0.00024414,0.00192261,-1.00546265,0.244141,-0.061035,-0.061035
5235984541,-0.00006104,0.00181580,-1.00619507,0.183105,0.000000,-0.122070
5240953916,0.00093079,0.00170898,-1.00642395,0.061035,0.000000,-0.122070
5245944333,0.00228882,0.00169373,-1.00553894,0.244141,0.122070,-0.061035
5251193333,0.00291443,0.00210571,-1.00518799,0.122070,0.183105,-0.122070
5256067708,0.00288391,0.00277710,-1.00605774,0.366211,0.000000,-0.061035
5260949750,0.00303650,0.00346375,-1.00646973,0.305176,0.061035,-0.122070
5265955166,0.00367737,0.00396729,-1.00540161,0.244141,0.000000,0.000000
5270994333,0.00395203,0.00405884,-1.00430298,0.122070,0.000000,-0.122070
5275989791,0.00350952,0.00392151,-1.00477600,0.244141,0.061035,-0.061035
5280947166,0.00299072,0.00372314,-1.00610352,0.366211,0.122070,-0.122070
5285933000,0.00274658,0.00340271,-1.00633240,0.305176,0.122070,0.000000
5290968166,0.00248718,0.00305176,-1.00541687,0.488281,0.061035,-0.061035
5295940458,0.00221252,0.00286865,-1.00517273,0.366211,0.061035,-0.061035
5300932875,0.00213623,0.00288391,-1.00601196,0.488281,0.061035,-0.061035
5305988916,0.00189209,0.00292969,-1.00653076,0.488281,0.061035,0.000000
5310959916,0.00154114,0.00306702,-1.00604248,0.244141,0.061035,0.000000
5315934083,0.00158691,0.00321960,-1.00538635,0.244141,0.000000,-0.122070
5320966333,0.00202942,0.00311279,-1.00567627,0.305176,0.061035,-0.061035
5325990708,0.00216675,0.00283813,-1.00646973,0.305176,-0.061035,-0.061035
5330952750,0.00173950,0.00254822,-1.00640869,0.427246,0.122070,-0.061035
5335946166,0.00122070,0.00234985,-1.00541687,0.244141,0.000000,-0.061035
5340985041,0.00105286,0.00213623,-1.00509644,0.366211,0.061035,0.000000
5345982166,0.00140381,0.00201416,-1.00575256,0.427246,0.000000,-0.061035
5350950166,0.00201416,0.00216675,-1.00575256,0.183105,0.122070,0.000000
5356003041,0.00221252,0.00251770,-1.00468445,0.122070,0.000000,-0.061035
5361026291,0.00187683,0.00297546,-1.00431824,0.366211,0.061035,-0.061035
5365988625,0.00183105,0.00314331,-1.00559998,0.183105,-0.061035,-0.122070
5370951958,0.00247192,0.00288391,-1.00694275,0.366211,0.061035,-0.122070
5376003333,0.00323486,0.00280762,-1.00642395,0.427246,0.122070,-0.122070
5380962041,0.00352478,0.00311279,-1.00521851,0.427246,0.122070,0.000000
5385970208,0.00331116,0.00341797,-1.00561523,0.305176,0.061035,-0.183105
5391019166,0.00271606,0.00347900,-1.00695801,0.061035,-0.061035,-0.061035
5395986791,0.00213623,0.00341797,-1.00663757,0.366211,0.061035,0.000000
5400963708,0.00210571,0.00340271,-1.00473022,0.122070,0.122070,-0.183105
5406022583,0.00228882,0.00354004,-1.00402832,0.183105,-0.061035,-0.122070
5410982541,0.00186157,0.00378418,-1.00552368,0.244141,0.061035,-0.061035
5415979875,0.00132751,0.00376892,-1.00688171,0.549316,0.061035,-0.122070
5420985375,0.00157166,0.00338745,-1.00653076,0.366211,0.061035,0.000000
5425973583,0.00202942,0.00279236,-1.00573730,0.244141,0.000000,0.000000
5430985250,0.00164795,0.00221252,-1.00596619,0.305176,-0.061035,0.000000
5436006875,0.00086975,0.00202942,-1.00663757,0.244141,0.061035,-0.061035
5441051916,0.00064087,0.00225830,-1.00628662,0.305176,0.122070,0.000000
5446033750,0.00094604,0.00256348,-1.00520325,0.183105,-0.061035,0.000000
5450955166,0.00137329,0.00294495,-1.00508118,0.305176,0.061035,-0.122070
5456052958,0.00186157,0.00332642,-1.00617981,0.244141,0.061035,-0.122070
5461030125,0.00260925,0.00344849,-1.00677490,0.366211,0.000000,-0.061035
5466020500,0.00329590,0.00318909,-1.00602722,0.427246,0.000000,0.061035
5471084625,0.00355530,0.00277710,-1.00553894,0.244141,0.000000,-0.122070
5476063666,0.00366211,0.00280762,-1.00643921,0.366211,0.000000,-0.122070
5481000166,0.00366211,0.00335693,-1.00730896,0.305176,0.000000,0.000000
5486004833,0.00323486,0.00376892,-1.00723267,0.305176,-0.061035,-0.122070
5491015625,0.00250244,0.00366211,-1.00703430,0.244141,0.122070,-0.061035
5496012458,0.00207520,0.00341797,-1.00695801,0.244141,0.122070,0.061035
5500970291,0.00192261,0.00312805,-1.00688171,0.305176,0.061035,-0.122070
5506150333,0.00172424,0.00242615,-1.00683594,0.305176,0.122070,-0.244141
5511051208,0.00161743,0.00164795,-1.00671387,0.244141,0.061035,-0.061035
5515977708,0.00154114,0.00154114,-1.00637817,0.305176,0.000000,-0.061035
5521023333,0.00134277,0.00183105,-1.00621033,0.183105,0.061035,-0.061035
5526036833,0.00117493,0.00207520,-1.00643921,0.366211,0.061035,-0.122070
5531003208,0.00094604,0.00239563,-1.00645447,0.427246,0.122070,-0.122070
5535988333,0.00032043,0.00279236,-1.00601196,0.305176,0.061035,0.000000
5541067750,-0.00012207,0.00299072,-1.00584412,0.305176,0.000000,0.000000
5546056958,0.00021362,0.00306702,-1.00592041,0.366211,0.000000,-0.122070
5550977625,0.00083923,0.00334167,-1.00573730,0.244141,0.061035,-0.122070
5556026458,0.00114441,0.00382996,-1.00544739,0.366211,0.122070,0.061035
5561016375,0.00132751,0.00427246,-1.00535583,0.366211,0.122070,-0.061035
5566071458,0.00169373,0.00445557,-1.00550842,0.305176,0.000000,-0.244141
5571049000,0.00231934,0.00442505,-1.00585938,0.305176,0.061035,-0.122070
5576103208,0.00286865,0.00433350,-1.00608826,0.427246,0.000000,-0.183105
5581034333,0.00314331,0.00428772,-1.00610352,0.305176,-0.061035,0.000000
5585988333,0.00358582,0.00401306,-1.00593567,0.305176,0.122070,-0.061035
5591042666,0.00399780,0.00334167,-1.00552368,0.183105,0.061035,0.000000
5596028625,0.00355530,0.00256348,-1.00520325,0.244141,0.122070,-0.061035
5600990416,0.00251770,0.00180054,-1.00559998,0.305176,0.000000,-0.122070
5606070375,0.00186157,0.00125122,-1.00613403,0.244141,0.122070,-0.061035
5611057916,0.00173950,0.00119019,-1.00599670,0.549316,-0.488281,-0.122070
5616028958,0.00158691,0.00120544,-1.00563049,1.525879,-1.281738,-0.122070
5621126041,0.00146484,0.00105286,-1.00315857,0.549316,0.976562,-0.122070
5626026458,0.00202942,0.00083923,-0.99462891,-0.732422,0.061035,-0.061035
5630986750,0.00250244,0.00094604,-0.99694824,1.037598,-0.793457,-0.122070
5636013833,0.00172424,0.00125122,-1.02322388,0.427246,0.427246,-0.183105
5641330375,0.00108337,0.00105286,-1.02336121,-0.610352,-0.061035,-0.183105
5646162666,0.00108337,0.00102234,-0.99443054,0.915527,-0.061035,-0.122070
5651020791,0.00103760,0.00190735,-0.99696350,0.305176,0.061035,-0.122070
5656088125,0.00117493,0.00321960,-1.01492310,0.000000,0.061035,-0.183105
5661028416,0.00177002,0.00451660,-1.01126099,0.305176,0.183105,-0.122070
5666036833,0.00263977,0.00575256,-1.00856018,0.732422,0.000000,-0.061035
5671133583,0.00315857,0.00706482,-1.00842285,-0.122070,0.183105,-0.183105
5676045041,0.00323486,0.00828552,-0.99835205,0.305176,-0.061035,-0.061035
5681032250,0.00302124,0.00907898,-1.00234985,0.732422,0.122070,-0.122070
5686007416,0.00321960,0.00901794,-1.01490784,-0.061035,0.000000,-0.122070
5691071208,0.00390625,0.00830078,-1.00793457,0.366211,0.000000,0.122070
5696047458,0.00405884,0.00746155,-0.99931335,0.488281,0.122070,-0.183105
5701011333,0.00346375,0.00657654,-1.00489807,0.000000,0.061035,0.122070
5706089333,0.00234985,0.00543213,-1.00802612,0.366211,0.061035,-0.183105
5711051250,0.00117493,0.00366211,-1.00666809,0.427246,0.061035,-0.061035
5716022416,0.00032043,0.00149536,-1.00613403,0.122070,0.061035,-0.122070
5721049083,-0.00024414,-0.00018311,-1.00285339,0.183105,0.122070,-0.183105
5726029708,-0.00059509,-0.00114441,-1.00364685,0.427246,0.122070,-0.061035
5731044750,-0.00057983,-0.00195312,-1.00885010,0.305176,0.183105,-0.061035
5736098750,-0.00013733,-0.00253296,-1.00646973,-0.061035,0.122070,-0.122070
5741216583,0.00028992,-0.00260925,-1.00051880,0.305176,-0.061035,-0.122070
5746088208,0.00010681,-0.00224304,-1.00482178,0.366211,0.061035,-0.183105
5751025541,-0.00027466,-0.00141907,-1.01077271,0.000000,-0.061035,-0.061035
5756052708,-0.00033569,-0.00021362,-1.00662231,0.488281,0.000000,-0.122070
5761031125,-0.00012207,0.00143433,-1.00302124,0.366211,0.000000,0.000000
5766047750,0.00065613,0.00314331,-1.00480652,0.183105,0.000000,0.000000
5771057875,0.00193787,0.00421143,-1.00590515,0.366211,0.122070,0.000000
5776129541,0.00299072,0.00453186,-1.00726318,0.366211,0.000000,-0.061035
5781023750,0.00312805,0.00457764,-1.00733948,0.183105,0.122070,0.000000
5786049666,0.00282288,0.00489807,-1.00328064,0.244141,0.061035,-0.122070
5791041375,0.00280762,0.00524902,-1.00282288,0.610352,0.061035,0.000000
5796047000,0.00292969,0.00517273,-1.00724792,0.183105,0.183105,0.000000
5801029083,0.00297546,0.00491333,-1.00772095,0.305176,0.122070,-0.061035
5806245416,0.00306702,0.00469971,-1.00526428,0.366211,0.061035,0.000000
5811060208,0.00328064,0.00433350,-1.00520325,0.427246,0.061035,0.000000
5816035125,0.00323486,0.00401306,-1.00616455,0.244141,0.000000,0.000000
5821040833,0.00274658,0.00370789,-1.00718689,0.305176,-0.061035,-0.183105
5826041416,0.00212097,0.00300598,-1.00769043,0.244141,0.000000,-0.122070
5831064666,0.00187683,0.00215149,-1.00605774,0.122070,0.000000,-0.061035
5836044791,0.00224304,0.00158691,-1.00523376,0.366211,0.061035,-0.183105
5841045083,0.00279236,0.00157166,-1.00692749,0.366211,0.122070,0.000000
5846051583,0.00286865,0.00205994,-1.00711060,0.427246,0.000000,0.061035
5851074458,0.00242615,0.00236511,-1.00492859,0.183105,0.061035,-0.061035
5856079333,0.00166321,0.00231934,-1.00413513,0.488281,0.000000,-0.122070
5861070750,0.00102234,0.00219727,-1.00537109,0.427246,0.061035,0.000000
5866070750,0.00091553,0.00216675,-1.00642395,0.244141,0.061035,-0.061035
5871062125,0.00132751,0.00271606,-1.00610352,0.183105,0.061035,-0.061035
5876078375,0.00178528,0.00367737,-1.00462341,0.244141,0.061035,-0.061035
5881127000,0.00180054,0.00421143,-1.00416565,0.366211,0.000000,-0.122070
5886103666,0.00181580,0.00450134,-1.00556946,0.183105,0.000000,-0.061035
5891048916,0.00218201,0.00479126,-1.00650024,0.366211,0.061035,0.000000
5896056083,0.00256348,0.00482178,-1.00604248,0.305176,0.061035,-0.122070
5901039916,0.00254822,0.00440979,-1.00604248,0.305176,0.061035,-0.183105
5906070333,0.00225830,0.00373840,-1.00685120,0.244141,0.000000,0.000000
5911060791,0.00219727,0.00297546,-1.00700378,0.366211,0.061035,-0.122070
5916065041,0.00236511,0.00215149,-1.00614929,0.366211,0.000000,-0.061035
5921055000,0.00254822,0.00183105,-1.00558472,0.183105,0.000000,-0.061035
5926100083,0.00271606,0.00202942,-1.00625610,0.427246,0.000000,0.000000
5931075416,0.00245667,0.00190735,-1.00723267,0.244141,0.061035,-0.122070
5936061541,0.00169373,0.00115967,-1.00688171,0.305176,0.061035,0.000000
5941067208,0.00106812,0.00035095,-1.00544739,0.305176,0.000000,-0.061035
5946118416,0.00109863,0.00041199,-1.00498962,0.305176,-0.061035,0.061035
5951086916,0.00149536,0.00143433,-1.00616455,0.183105,-0.122070,-0.061035
5956099375,0.00192261,0.00277710,-1.00711060,0.183105,0.061035,-0.061035
5961086208,0.00193787,0.00381470,-1.00645447,0.305176,0.061035,-0.183105
5966088041,0.00166321,0.00425720,-1.00521851,0.305176,0.061035,0.000000
5971056708,0.00183105,0.00404358,-1.00547791,0.366211,0.122070,-0.122070
5976169291,0.00233459,0.00384521,-1.00685120,0.305176,0.061035,-0.122070
5981094041,0.00280762,0.00422668,-1.00677490,0.183105,-0.061035,-0.122070
5986118125,0.00315857,0.00447083,-1.00502014,0.366211,0.122070,-0.061035
5991086208,0.00314331,0.00418091,-1.00442505,0.183105,0.122070,-0.122070
5996104416,0.00308228,0.00382996,-1.00581360,0.305176,0.000000,-0.183105
6001106583,0.00305176,0.00355530,-1.00711060,0.427246,-0.061035,-0.061035
6006100916,0.00248718,0.00334167,-1.00686646,0.244141,0.000000,-0.122070
6011136750,0.00138855,0.00299072,-1.00616455,0.122070,0.000000,-0.061035
6016086333,0.00065613,0.00282288,-1.00697327,0.244141,0.061035,0.000000
6021098750,0.00085449,0.00302124,-1.00819397,0.305176,0.000000,-0.061035
6026093208,0.00135803,0.00309753,-1.00711060,0.183105,0.061035,-0.183105
6031083041,0.00155640,0.00291443,-1.00482178,0.366211,0.000000,0.000000
6036069208,0.00148010,0.00253296,-1.00465393,0.244141,0.122070,0.061035
6041120208,0.00125122,0.00209045,-1.00619507,0.305176,-0.061035,-0.183105
6046122375,0.00115967,0.00180054,-1.00654602,0.305176,0.061035,-0.061035
6051105125,0.00131226,0.00167847,-1.00523376,0.366211,-0.061035,0.000000
6056111583,0.00155640,0.00196838,-1.00436401,0.183105,-0.061035,-0.061035
6061067541,0.00151062,0.00238037,-1.00553894,0.244141,-0.061035,-0.183105
6066113958,0.00112915,0.00270081,-1.00750732,0.183105,0.000000,-0.061035
6071083208,0.00094604,0.00317383,-1.00793457,0.305176,0.000000,-0.061035
6076148375,0.00157166,0.00376892,-1.00709534,0.183105,0.061035,0.000000
6081099500,0.00254822,0.00427246,-1.00677490,0.366211,0.000000,-0.061035
6086105291,0.00305176,0.00445557,-1.00668335,0.427246,-0.061035,0.061035
6091197291,0.00303650,0.00440979,-1.00579834,0.244141,0.000000,-0.122070
6096080791,0.00283813,0.00425720,-1.00447083,0.305176,0.061035,0.061035
6101120875,0.00233459,0.00410461,-1.00407410,0.305176,0.061035,-0.061035
6106104916,0.00183105,0.00370789,-1.00515747,0.183105,0.061035,-0.122070
6111079500,0.00209045,0.00291443,-1.00621033,0.305176,0.061035,-0.122070
6116117833,0.00260925,0.00212097,-1.00579834,0.366211,0.061035,-0.122070
6121094000,0.00239563,0.00158691,-1.00520325,0.427246,0.183105,0.000000
6126108625,0.00160217,0.00117493,-1.00576782,0.305176,0.000000,-0.061035
6131134750,0.00125122,0.00111389,-1.00650024,0.427246,0.061035,-0.122070
6136098875,0.00119019,0.00144958,-1.00639343,0.244141,0.061035,0.061035
6141110250,0.00091553,0.00161743,-1.00584412,0.366211,0.061035,-0.061035
6146147583,0.00099182,0.00160217,-1.00527954,0.427246,0.061035,0.061035
6151141041,0.00163269,0.00187683,-1.00515747,0.244141,0.061035,-0.061035
6156113500,0.00213623,0.00233459,-1.00564575,0.427246,-0.061035,-0.122070
6161123458,0.00202942,0.00270081,-1.00588989,0.366211,0.061035,-0.061035
6166102708,0.00193787,0.00315857,-1.00540161,0.183105,0.122070,0.000000
6171146416,0.00222778,0.00372314,-1.00479126,0.244141,-0.061035,0.000000
6176152125,0.00247192,0.00437927,-1.00451660,0.366211,0.000000,-0.122070
6181090583,0.00245667,0.00474548,-1.00485229,0.244141,0.000000,-0.122070
6186132125,0.00215149,0.00463867,-1.00570679,0.305176,0.122070,-0.061035
6191151833,0.00166321,0.00439453,-1.00640869,0.366211,0.000000,-0.061035
6196166333,0.00141907,0.00433350,-1.00628662,0.305176,0.061035,0.000000
6201131166,0.00158691,0.00418091,-1.00581360,0.305176,0.000000,-0.122070
6206132250,0.00184631,0.00347900,-1.00598145,0.244141,0.061035,-0.183105
6211104375,0.00199890,0.00245667,-1.00651550,0.366211,0.061035,-0.061035
6216149125,0.00216675,0.00183105,-1.00627136,0.366211,-0.061035,0.061035
6221142708,0.00242615,0.00160217,-1.00521851,0.305176,0.122070,-0.061035
6226106833,0.00242615,0.00148010,-1.00462341,0.244141,0.061035,-0.122070
6231129833,0.00177002,0.00131226,-1.00518799,0.244141,0.000000,-0.122070
6236119291,0.00076294,0.00120544,-1.00576782,0.366211,0.122070,-0.061035
6241151125,0.00053406,0.00140381,-1.00559998,0.305176,0.122070,-0.122070
6246153625,0.00141907,0.00178528,-1.00564575,0.305176,0.061035,-0.061035
6251155583,0.00222778,0.00210571,-1.00611877,0.122070,0.061035,-0.061035
6256161291,0.00224304,0.00251770,-1.00660706,0.366211,-0.061035,-0.183105
6261143041,0.00215149,0.00288391,-1.00679016,0.183105,0.000000,-0.061035
6266170583,0.00247192,0.00305176,-1.00625610,0.427246,0.000000,-0.061035
6271135791,0.00274658,0.00335693,-1.00561523,0.305176,0.061035,-0.061035
6276147833,0.00238037,0.00382996,-1.00584412,0.305176,0.183105,-0.122070
6281148125,0.00181580,0.00433350,-1.00622559,0.305176,0.061035,0.061035
6286143166,0.00181580,0.00488281,-1.00556946,0.366211,-0.061035,-0.122070
6291153375,0.00193787,0.00529480,-1.00485229,0.305176,0.000000,0.000000
6296159041,0.00195312,0.00523376,-1.00488281,0.366211,0.122070,-0.122070
6301145041,0.00213623,0.00468445,-1.00514221,0.305176,0.122070,-0.061035
6306146166,0.00216675,0.00405884,-1.00552368,0.427246,0.061035,-0.061035
6311167416,0.00199890,0.00360107,-1.00590515,0.183105,0.122070,0.000000
6316168708,0.00169373,0.00315857,-1.00616455,0.427246,-0.061035,0.061035
6321131750,0.00119019,0.00227356,-1.00653076,0.366211,-0.061035,-0.061035
6326179416,0.00115967,0.00125122,-1.00657654,0.183105,-0.122070,0.061035
6331165666,0.00187683,0.00080872,-1.00621033,0.305176,0.061035,-0.061035
6336158916,0.00268555,0.00085449,-1.00627136,0.244141,0.122070,0.061035
6341137500,0.00280762,0.00100708,-1.00671387,0.427246,0.061035,0.000000
6346187000,0.00205994,0.00120544,-1.00625610,0.244141,0.122070,0.000000
6351223250,0.00119019,0.00152588,-1.00489807,0.549316,0.000000,0.000000
6356186458,0.00094604,0.00221252,-1.00413513,0.183105,0.061035,-0.061035
6361215375,0.00132751,0.00341797,-1.00431824,0.244141,0.122070,0.061035
6366168500,0.00183105,0.00471497,-1.00462341,0.305176,0.061035,-0.061035
6371139250,0.00196838,0.00526428,-1.00547791,0.366211,0.000000,-0.061035
6376161041,0.00164795,0.00474548,-1.00704956,0.366211,0.061035,0.000000
6381127666,0.00155640,0.00375366,-1.00793457,0.366211,0.000000,0.000000
6386145666,0.00212097,0.00291443,-1.00752258,0.366211,0.061035,0.000000
6391179791,0.00257874,0.00253296,-1.00651550,0.183105,0.061035,-0.061035
6396179041,0.00244141,0.00276184,-1.00529480,0.244141,0.061035,0.061035
6401145666,0.00228882,0.00323486,-1.00500488,0.305176,0.122070,-0.122070
6406159333,0.00207520,0.00352478,-1.00569153,0.305176,0.061035,0.000000
6411185916,0.00151062,0.00372314,-1.00585938,0.366211,-0.122070,0.061035
6416159875,0.00135803,0.00372314,-1.00553894,0.427246,0.000000,-0.183105
6421152791,0.00205994,0.00337219,-1.00555420,0.366211,0.061035,0.000000
6426164916,0.00270081,0.00285339,-1.00578308,0.488281,0.000000,0.000000
6431154208,0.00262451,0.00268555,-1.00590515,0.244141,0.061035,-0.061035
6436146208,0.00209045,0.00279236,-1.00602722,0.244141,-0.183105,-0.122070
6441185875,0.00195312,0.00271606,-1.00607300,0.122070,-0.061035,-0.122070
6446174333,0.00227356,0.00224304,-1.00593567,0.305176,0.061035,-0.061035
6451174083,0.00204468,0.00155640,-1.00643921,0.305176,0.061035,0.000000
6456254625,0.00148010,0.00103760,-1.00735474,0.366211,0.122070,0.000000
6461190833,0.00163269,0.00112915,-1.00740051,0.305176,0.000000,0.000000
6466186000,0.00207520,0.00177002,-1.00660706,0.305176,-0.061035,-0.122070
6471211791,0.00199890,0.00239563,-1.00590515,0.366211,0.000000,-0.061035
6476229750,0.00195312,0.00286865,-1.00550842,0.366211,-0.061035,-0.061035
6481152750,0.00259399,0.00344849,-1.00537109,0.366211,-0.061035,-0.122070
6486167583,0.00323486,0.00392151,-1.00549316,0.305176,0.061035,-0.061035
6491183458,0.00311279,0.00375366,-1.00555420,0.244141,-0.122070,-0.244141
6496196916,0.00265503,0.00338745,-1.00518799,0.427246,0.000000,-0.061035
6501194958,0.00224304,0.00361633,-1.00480652,0.122070,0.061035,0.000000
6506236291,0.00177002,0.00404358,-1.00492859,0.305176,0.000000,-0.122070
6511191041,0.00155640,0.00390625,-1.00567627,0.305176,0.061035,-0.061035
6516201041,0.00161743,0.00349426,-1.00646973,0.305176,0.061035,-0.122070
6521198750,0.00169373,0.00335693,-1.00640869,0.244141,0.122070,-0.061035
6526165583,0.00193787,0.00355530,-1.00575256,0.244141,0.122070,0.000000
6531189166,0.00210571,0.00370789,-1.00549316,0.183105,0.000000,-0.183105
6536186791,0.00205994,0.00355530,-1.00572205,0.366211,0.122070,-0.183105
6541198541,0.00219727,0.00325012,-1.00592041,0.366211,0.122070,-0.122070
6546218416,0.00262451,0.00283813,-1.00593567,0.366211,0.122070,-0.122070
6551199125,0.00294495,0.00254822,-1.00588989,0.488281,0.000000,-0.122070
6556211916,0.00299072,0.00262451,-1.00582886,0.244141,0.000000,0.000000
6561218375,0.00277710,0.00270081,-1.00550842,0.244141,0.000000,-0.183105
6566214791,0.00219727,0.00234985,-1.00486755,0.244141,0.061035,-0.061035
6571188333,0.00181580,0.00198364,-1.00460815,0.244141,-0.061035,0.061035
6576217541,0.00202942,0.00218201,-1.00549316,0.366211,0.183105,0.061035
6581168000,0.00245667,0.00256348,-1.00680542,0.305176,0.122070,0.000000
6586283250,0.00277710,0.00289917,-1.00700378,0.366211,0.000000,-0.122070
6591214916,0.00286865,0.00326538,-1.00619507,0.183105,0.061035,-0.183105
6596217625,0.00239563,0.00358582,-1.00572205,0.305176,0.122070,-0.122070
6601186458,0.00144958,0.00375366,-1.00624084,0.305176,0.183105,-0.122070
6606196291,0.00102234,0.00379944,-1.00666809,0.244141,0.000000,-0.061035
6611197625,0.00151062,0.00402832,-1.00605774,0.122070,0.061035,-0.183105
6616233375,0.00221252,0.00405884,-1.00547791,0.244141,0.061035,0.000000
6621191791,0.00251770,0.00369263,-1.00630188,0.305176,-0.061035,-0.122070
6626179458,0.00234985,0.00334167,-1.00743103,0.305176,0.061035,-0.061035
6631207208,0.00195312,0.00302124,-1.00720215,0.244141,0.122070,-0.122070
6636182875,0.00157166,0.00247192,-1.00604248,0.305176,-0.061035,-0.183105
6641216041,0.00149536,0.00192261,-1.00563049,0.366211,0.061035,-0.061035
6646242708,0.00175476,0.00196838,-1.00653076,0.366211,0.000000,-0.061035
6651211875,0.00215149,0.00251770,-1.00706482,0.427246,0.061035,-0.061035
6656203958,0.00263977,0.00302124,-1.00593567,0.305176,-0.122070,-0.122070
6661258166,0.00291443,0.00367737,-1.00482178,0.305176,0.122070,-0.122070
6666214875,0.00282288,0.00447083,-1.00535583,0.366211,0.000000,-0.061035
6671180541,0.00273132,0.00471497,-1.00625610,0.305176,-0.061035,-0.061035
6676193041,0.00299072,0.00428772,-1.00593567,0.305176,0.000000,-0.122070
6681200625,0.00315857,0.00384521,-1.00532532,0.305176,0.061035,-0.244141
6686209833,0.00302124,0.00354004,-1.00556946,0.244141,-0.061035,-0.061035
6691203791,0.00259399,0.00300598,-1.00607300,0.427246,0.000000,0.000000
6696215500,0.00195312,0.00231934,-1.00596619,0.244141,0.061035,0.000000
6701182541,0.00123596,0.00198364,-1.00559998,0.427246,-0.061035,-0.061035
6706219458,0.00073242,0.00225830,-1.00573730,0.366211,0.061035,-0.061035
6711216625,0.00097656,0.00244141,-1.00619507,0.305176,0.061035,-0.122070
6716201916,0.00190735,0.00238037,-1.00634766,0.366211,0.000000,0.061035
6721232166,0.00256348,0.00270081,-1.00585938,0.305176,0.061035,-0.122070
6726212500,0.00251770,0.00323486,-1.00547791,0.183105,0.000000,-0.122070
6731217500,0.00212097,0.00331116,-1.00582886,0.305176,0.122070,-0.061035
6736200083,0.00180054,0.00303650,-1.00602722,0.305176,0.000000,0.000000
6741253375,0.00180054,0.00286865,-1.00521851,0.366211,0.061035,-0.061035
6746220875,0.00209045,0.00286865,-1.00437927,0.366211,0.122070,-0.061035
6751205208,0.00239563,0.00277710,-1.00477600,0.305176,0.000000,-0.061035
6756264750,0.00248718,0.00259399,-1.00576782,0.244141,0.000000,-0.122070
6761249041,0.00242615,0.00251770,-1.00584412,0.427246,0.000000,-0.061035
6766315958,0.00222778,0.00248718,-1.00524902,0.427246,0.061035,-0.061035
6771265375,0.00189209,0.00244141,-1.00508118,0.244141,0.122070,-0.061035
6776242833,0.00148010,0.00256348,-1.00541687,0.244141,0.061035,-0.061035
6781225875,0.00109863,0.00321960,-1.00566101,0.305176,0.061035,-0.061035
6786238250,0.00097656,0.00425720,-1.00541687,0.366211,0.000000,0.000000
6791224541,0.00126648,0.00474548,-1.00526428,0.183105,0.061035,-0.061035
6796253583,0.00146484,0.00459290,-1.00633240,0.366211,0.122070,0.000000
6801244291,0.00125122,0.00431824,-1.00767517,0.244141,0.183105,0.000000
6806271416,0.00115967,0.00405884,-1.00704956,0.366211,0.000000,-0.061035
6811232208,0.00135803,0.00376892,-1.00527954,0.244141,0.122070,0.000000
6816357125,0.00167847,0.00360107,-1.00485229,0.305176,0.061035,-0.183105
6821257375,0.00213623,0.00360107,-1.00610352,0.366211,-0.061035,-0.061035
6826242958,0.00245667,0.00350952,-1.00697327,0.427246,0.061035,0.000000
6831220500,0.00250244,0.00329590,-1.00625610,0.366211,0.122070,0.000000
6836316541,0.00234985,0.00286865,-1.00540161,0.366211,0.000000,-0.061035
6841259291,0.00205994,0.00260925,-1.00584412,0.366211,0.000000,-0.122070
6846244541,0.00205994,0.00273132,-1.00646973,0.244141,0.122070,-0.061035
6851268791,0.00259399,0.00282288,-1.00605774,0.488281,0.183105,0.000000
6856264833,0.00305176,0.00254822,-1.00541687,0.427246,0.122070,-0.061035
6861245083,0.00302124,0.00219727,-1.00566101,0.183105,0.122070,-0.183105
6866269333,0.00262451,0.00253296,-1.00604248,0.305176,0.061035,-0.122070
6871227250,0.00213623,0.00331116,-1.00555420,0.305176,0.122070,-0.061035
6876243708,0.00173950,0.00326538,-1.00500488,0.305176,0.000000,-0.122070
6881272916,0.00138855,0.00230408,-1.00540161,0.427246,0.000000,-0.061035
6886243333,0.00123596,0.00166321,-1.00637817,0.427246,-0.061035,-0.061035
6891275250,0.00140381,0.00193787,-1.00688171,0.305176,0.244141,-0.061035
6896259666,0.00186157,0.00257874,-1.00637817,0.305176,0.061035,-0.061035
6901239583,0.00207520,0.00321960,-1.00575256,0.305176,0.122070,0.000000
6906254958,0.00161743,0.00384521,-1.00604248,0.305176,0.183105,0.000000
6911254666,0.00123596,0.00430298,-1.00648499,0.244141,0.122070,0.000000
6916270041,0.00172424,0.00445557,-1.00593567,0.183105,0.061035,0.000000
6921316333,0.00259399,0.00442505,-1.00549316,0.366211,0.000000,-0.122070
6926301583,0.00279236,0.00436401,-1.00628662,0.244141,0.122070,-0.061035
6931274875,0.00256348,0.00416565,-1.00735474,0.366211,0.122070,0.000000
6936255375,0.00260925,0.00358582,-1.00704956,0.305176,-0.061035,-0.061035
6941247500,0.00259399,0.00294495,-1.00588989,0.427246,0.122070,-0.122070
6946253916,0.00222778,0.00244141,-1.00559998,0.244141,0.122070,-0.122070
6951253791,0.00204468,0.00189209,-1.00650024,0.366211,0.000000,-0.061035
6956283791,0.00210571,0.00117493,-1.00762939,0.305176,0.122070,-0.122070
6961249875,0.00198364,0.00068665,-1.00801086,0.427246,0.061035,-0.183105
6966272958,0.00183105,0.00106812,-1.00732422,0.305176,-0.061035,0.000000
6971307250,0.00202942,0.00216675,-1.00662231,1.586914,-0.122070,-0.244141
6976334750,0.00221252,0.00308228,-1.00520325,0.854492,0.244141,-0.061035
6981249375,0.00230408,0.00349426,-0.99797058,2.136230,-0.122070,-0.122070
6986313333,0.00267029,0.00381470,-0.99188232,1.281738,-0.183105,-0.244141
6991261875,0.00320435,0.00369263,-0.99424744,-0.427246,0.244141,-0.061035
6996286541,0.00376892,0.00297546,-0.99789429,0.427246,0.122070,-0.061035
7001290833,0.00404358,0.00230408,-1.01754761,0.305176,0.061035,-0.122070
7006261958,0.00422668,0.00186157,-1.03491211,-0.366211,0.061035,0.000000
7011248416,0.00450134,0.00186157,-1.01873779,-0.488281,0.244141,-0.122070
7016314791,0.00415039,0.00250244,-1.00323486,0.305176,0.122070,-0.061035
7021258041,0.00288391,0.00314331,-1.00827026,-0.427246,0.061035,0.000000
7026253875,0.00148010,0.00340271,-1.00819397,-0.366211,0.061035,-0.183105
7031272250,0.00071716,0.00347900,-1.00291443,0.305176,-0.061035,-0.122070
7036262083,0.00039673,0.00376892,-1.00508118,-0.183105,-0.061035,-0.061035
7041310750,0.00009155,0.00451660,-1.00410461,-0.122070,-0.061035,0.000000
7046304958,-0.00036621,0.00503540,-1.00076294,0.183105,0.061035,-0.061035
7051281458,-0.00073242,0.00500488,-1.00579834,0.244141,0.061035,-0.122070
7056314000,-0.00051880,0.00477600,-1.00706482,0.610352,0.000000,-0.061035
7061289583,-0.00001526,0.00460815,-1.00180054,0.061035,0.000000,-0.122070
7066305583,0.00064087,0.00424194,-1.00039673,-0.610352,0.000000,-0.122070
7071291708,0.00158691,0.00384521,-1.00256348,0.427246,-0.061035,-0.122070
7076370541,0.00263977,0.00373840,-1.01214600,0.488281,0.061035,-0.122070
7081294708,0.00387573,0.00344849,-1.01455688,0.061035,0.122070,-0.122070
7086266791,0.00503540,0.00302124,-0.99955750,0.183105,0.122070,-0.183105
7091321666,0.00566101,0.00280762,-0.99671936,0.732422,-0.061035,-0.061035
7096316041,0.00576782,0.00257874,-1.00881958,0.122070,0.061035,0.000000
7101282625,0.00558472,0.00216675,-1.00962830,0.305176,0.061035,0.000000
7106311625,0.00564575,0.00192261,-1.00497437,0.549316,-0.061035,0.122070
7111276958,0.00593567,0.00204468,-1.00581360,0.000000,-0.061035,-0.061035
7116292916,0.00555420,0.00248718,-1.00390625,0.305176,0.061035,-0.061035
7121306166,0.00424194,0.00303650,-1.00387573,0.488281,-0.122070,-0.122070
7126320791,0.00283813,0.00331116,-1.00973511,0.305176,0.061035,-0.183105
7131281166,0.00152588,0.00334167,-1.00843811,0.122070,0.000000,-0.061035
7136314250,-0.00003052,0.00361633,-1.00318909,0.488281,0.183105,-0.061035
7141283541,-0.00146484,0.00401306,-1.00476074,0.183105,0.000000,0.000000
7146329625,-0.00212097,0.00392151,-1.00701904,0.183105,-0.061035,-0.122070
7151306875,-0.00202942,0.00337219,-1.00631714,0.366211,-0.061035,0.061035
7156308791,-0.00152588,0.00280762,-1.00657654,0.244141,0.000000,-0.183105
7161281791,-0.00082397,0.00267029,-1.00614929,0.305176,0.122070,0.000000
7166320041,0.00015259,0.00280762,-1.00505066,0.305176,0.000000,-0.061035
7171296083,0.00129700,0.00285339,-1.00625610,0.183105,0.122070,-0.061035
7176333583,0.00250244,0.00271606,-1.00607300,0.305176,0.000000,-0.061035
7181279875,0.00381470,0.00257874,-1.00418091,0.366211,0.000000,0.000000
7186296750,0.00479126,0.00273132,-1.00534058,0.366211,0.061035,0.000000
7191296625,0.00527954,0.00302124,-1.00689697,0.244141,0.061035,-0.183105
7196332208,0.00584412,0.00320435,-1.00613403,0.427246,0.061035,-0.183105
7201323500,0.00650024,0.00337219,-1.00555420,0.488281,-0.061035,0.000000
7206328000,0.00639343,0.00369263,-1.00572205,0.244141,0.122070,-0.061035
7211301541,0.00517273,0.00372314,-1.00605774,0.305176,0.061035,-0.061035
7216351416,0.00373840,0.00315857,-1.00621033,0.305176,0.061035,-0.061035
7221323166,0.00267029,0.00262451,-1.00527954,0.366211,0.061035,-0.061035
7226319041,0.00152588,0.00263977,-1.00431824,0.244141,0.061035,-0.122070
7231376250,-0.00024414,0.00286865,-1.00549316,0.366211,0.183105,0.000000
7236302833,-0.00189209,0.00283813,-1.00737000,0.183105,0.000000,0.061035
7241304375,-0.00224304,0.00273132,-1.00694275,0.305176,0.000000,-0.061035
7246357250,-0.00137329,0.00299072,-1.00538635,0.366211,0.122070,0.000000
7251334500,-0.00032043,0.00349426,-1.00529480,0.183105,0.122070,-0.183105
7256322000,0.00022888,0.00386047,-1.00599670,0.305176,0.000000,-0.061035
7261298500,0.00030518,0.00382996,-1.00662231,0.305176,0.000000,0.000000
7266345833,0.00047302,0.00363159,-1.00694275,0.244141,0.183105,-0.183105
7271332833,0.00141907,0.00369263,-1.00674438,0.366211,0.122070,-0.061035
7276356625,0.00285339,0.00373840,-1.00689697,0.305176,0.061035,0.000000
7281336458,0.00387573,0.00323486,-1.00737000,0.366211,0.122070,0.000000
7286326041,0.00428772,0.00219727,-1.00730896,0.366211,-0.061035,0.000000
7291313916,0.00437927,0.00158691,-1.00685120,0.183105,0.122070,0.000000
7296327125,0.00416565,0.00173950,-1.00643921,0.427246,0.122070,-0.122070
7301352333,0.00378418,0.00198364,-1.00614929,0.122070,0.061035,-0.061035
7306319375,0.00370789,0.00202942,-1.00564575,0.427246,0.122070,-0.061035
7311315916,0.00369263,0.00227356,-1.00552368,0.183105,0.061035,-0.061035
7316302583,0.00335693,0.00289917,-1.00625610,0.244141,0.000000,-0.061035
7321310250,0.00257874,0.00343323,-1.00675964,0.366211,0.061035,-0.061035
7326366458,0.00160217,0.00384521,-1.00622559,0.244141,0.122070,-0.061035
7331342208,0.00093079,0.00431824,-1.00527954,0.183105,0.061035,-0.061035
7336333750,0.00061035,0.00428772,-1.00550842,0.366211,0.061035,-0.122070
7341367916,0.00028992,0.00364685,-1.00653076,0.305176,0.000000,-0.183105
7346364750,-0.00009155,0.00320435,-1.00628662,0.305176,0.061035,-0.122070
7351366083,-0.00062561,0.00312805,-1.00505066,0.305176,0.122070,-0.122070
7356328875,-0.00117493,0.00308228,-1.00479126,0.366211,0.000000,0.000000
7361304708,-0.00099182,0.00317383,-1.00587463,0.305176,0.122070,0.000000
7366341083,0.00033569,0.00315857,-1.00663757,0.366211,0.000000,-0.061035
7371311250,0.00189209,0.00265503,-1.00602722,0.366211,0.061035,-0.061035
7376360333,0.00263977,0.00218201,-1.00509644,0.427246,0.000000,0.000000
7381353791,0.00280762,0.00254822,-1.00523376,0.305176,-0.061035,-0.061035
7386368291,0.00320435,0.00346375,-1.00610352,0.305176,0.000000,-0.122070
7391356041,0.00357056,0.00376892,-1.00666809,0.244141,0.122070,-0.122070
7396360541,0.00358582,0.00297546,-1.00663757,0.305176,0.000000,0.061035
7401372875,0.00364685,0.00177002,-1.00666809,0.183105,0.061035,0.000000
7406369166,0.00404358,0.00105286,-1.00698853,0.183105,0.122070,-0.122070
7411338500,0.00419617,0.00108337,-1.00672913,0.244141,0.000000,-0.244141
7416360250,0.00358582,0.00155640,-1.00590515,0.488281,0.000000,0.000000
7421335125,0.00263977,0.00196838,-1.00553894,0.244141,0.122070,-0.183105
7426349833,0.00181580,0.00228882,-1.00593567,0.305176,0.122070,-0.061035
7431336291,0.00120544,0.00279236,-1.00636292,0.244141,0.122070,0.000000
7436337291,0.00103760,0.00366211,-1.00605774,0.366211,0.122070,-0.061035
7441383333,0.00088501,0.00456238,-1.00555420,0.366211,0.061035,-0.061035
7446372791,0.00044250,0.00497437,-1.00590515,0.305176,0.122070,0.061035
7451355166,-0.00012207,0.00477600,-1.00685120,0.305176,0.122070,-0.061035
7456358125,-0.00039673,0.00422668,-1.00708008,0.244141,0.000000,0.000000
7461344166,0.00001526,0.00384521,-1.00605774,0.244141,0.122070,-0.122070
7466365416,0.00090027,0.00369263,-1.00506592,0.305176,0.061035,0.000000
7471348833,0.00160217,0.00331116,-1.00521851,0.305176,0.183105,-0.122070
7476388000,0.00209045,0.00285339,-1.00576782,0.244141,0.000000,-0.061035
7481338041,0.00271606,0.00268555,-1.00572205,0.244141,-0.061035,-0.183105
7486370541,0.00321960,0.00247192,-1.00497437,0.366211,0.122070,0.061035
7491344375,0.00335693,0.00209045,-1.00463867,0.122070,0.000000,-0.183105
7496374125,0.00354004,0.00187683,-1.00572205,0.122070,-0.061035,-0.061035
7501344500,0.00376892,0.00187683,-1.00666809,0.305176,0.000000,0.000000
7506388041,0.00360107,0.00180054,-1.00607300,0.183105,-0.061035,-0.122070
7511376375,0.00334167,0.00175476,-1.00543213,0.244141,-0.061035,-0.183105
7516364166,0.00358582,0.00230408,-1.00634766,0.427246,0.000000,-0.122070
7521369125,0.00376892,0.00315857,-1.00723267,0.183105,0.061035,-0.061035
7526371750,0.00326538,0.00363159,-1.00621033,0.061035,0.122070,-0.122070
7531363916,0.00242615,0.00395203,-1.00502014,0.183105,0.061035,-0.244141
7536371875,0.00166321,0.00415039,-1.00581360,0.122070,0.061035,-0.061035
7541413291,0.00102234,0.00398254,-1.00752258,0.366211,0.122070,0.000000
7546383708,0.00071716,0.00376892,-1.00773621,0.244141,0.122070,0.000000
7551368291,0.00067139,0.00370789,-1.00630188,0.366211,0.122070,-0.061035
7556361500,0.00048828,0.00344849,-1.00524902,0.366211,0.122070,-0.061035
7561369083,0.00010681,0.00323486,-1.00566101,0.366211,0.122070,-0.183105
7566379416,-0.00022888,0.00325012,-1.00592041,0.305176,-0.061035,-0.061035
7571376833,0.00004578,0.00318909,-1.00506592,0.305176,0.183105,-0.122070
7576394916,0.00112915,0.00286865,-1.00486755,0.366211,0.122070,0.000000
7581376250,0.00216675,0.00260925,-1.00607300,0.244141,0.122070,0.000000
7586378041,0.00263977,0.00283813,-1.00660706,0.244141,0.000000,-0.122070
7591377625,0.00305176,0.00321960,-1.00563049,0.305176,0.061035,-0.061035
7596362250,0.00384521,0.00308228,-1.00512695,0.366211,0.000000,0.000000
7601354791,0.00434875,0.00262451,-1.00616455,0.244141,0.000000,-0.122070
7606406916,0.00440979,0.00247192,-1.00724792,0.366211,0.000000,-0.183105
7611390458,0.00459290,0.00224304,-1.00692749,0.305176,0.061035,-0.061035
7616389541,0.00480652,0.00175476,-1.00592041,0.122070,0.122070,-0.061035
7621373333,0.00453186,0.00161743,-1.00576782,0.366211,0.061035,-0.061035
7626407000,0.00344849,0.00210571,-1.00668335,0.305176,0.061035,-0.122070
7631373708,0.00241089,0.00276184,-1.00735474,0.183105,0.061035,0.061035
7636391791,0.00234985,0.00321960,-1.00688171,0.305176,0.061035,0.122070
7641377000,0.00248718,0.00343323,-1.00628662,0.244141,-0.061035,-0.061035
7646402791,0.00195312,0.00363159,-1.00630188,0.122070,-0.061035,-0.183105
7651377541,0.00105286,0.00422668,-1.00643921,0.183105,-0.061035,0.000000
7656435833,0.00025940,0.00526428,-1.00636292,0.366211,-0.061035,-0.061035
7661352875,-0.00024414,0.00582886,-1.00610352,0.244141,0.000000,0.000000
7666399541,-0.00018311,0.00509644,-1.00587463,0.183105,0.000000,-0.061035
7671380958,0.00057983,0.00355530,-1.00584412,0.427246,-0.061035,0.000000
7676418208,0.00166321,0.00230408,-1.00593567,0.366211,0.122070,0.061035
7681375833,0.00225830,0.00201416,-1.00581360,0.305176,0.000000,0.000000
7686389791,0.00219727,0.00236511,-1.00575256,0.305176,-0.061035,-0.061035
7691406958,0.00222778,0.00241089,-1.00640869,0.366211,0.000000,-0.122070
7696403958,0.00297546,0.00195312,-1.00683594,0.244141,0.061035,-0.061035
7701388583,0.00393677,0.00181580,-1.00613403,0.305176,0.183105,-0.061035
7706405541,0.00428772,0.00238037,-1.00512695,0.427246,-0.061035,-0.122070
7711389041,0.00421143,0.00299072,-1.00473022,0.244141,0.061035,-0.122070
7716420833,0.00454712,0.00331116,-1.00500488,0.305176,0.061035,0.000000
7721415708,0.00497437,0.00341797,-1.00590515,0.366211,0.000000,0.000000
7726402416,0.00453186,0.00343323,-1.00688171,0.305176,0.000000,0.000000
7731415750,0.00335693,0.00340271,-1.00685120,0.305176,0.000000,-0.061035
7736394958,0.00209045,0.00329590,-1.00628662,0.305176,0.122070,-0.061035
7741423583,0.00105286,0.00296021,-1.00643921,0.244141,0.122070,-0.122070
7746492208,0.00065613,0.00283813,-1.00662231,0.427246,0.000000,0.000000
7751409708,0.00088501,0.00321960,-1.00602722,0.122070,0.000000,-0.122070
7756440333,0.00085449,0.00355530,-1.00541687,0.305176,0.000000,-0.061035
7761421500,0.00018311,0.00360107,-1.00520325,0.305176,0.183105,-0.061035
7766416875,-0.00073242,0.00347900,-1.00537109,0.305176,0.122070,0.000000
7771422250,-0.00085449,0.00358582,-1.00619507,0.305176,0.061035,-0.061035
7776443958,0.00007629,0.00401306,-1.00703430,0.244141,0.122070,0.061035
7781413000,0.00103760,0.00431824,-1.00703430,0.183105,0.122070,-0.061035
7786405916,0.00164795,0.00410461,-1.00662231,0.305176,0.000000,-0.122070
7791416375,0.00231934,0.00369263,-1.00631714,0.366211,0.122070,-0.122070
7796429958,0.00254822,0.00366211,-1.00585938,0.366211,0.000000,-0.122070
7801389541,0.00204468,0.00378418,-1.00556946,0.366211,0.122070,0.000000
7806442083,0.00181580,0.00349426,-1.00607300,0.427246,0.122070,-0.061035
7811432791,0.00248718,0.00285339,-1.00671387,0.305176,0.000000,-0.183105
7816417666,0.00318909,0.00222778,-1.00645447,0.488281,0.183105,0.061035
7821442166,0.00303650,0.00166321,-1.00558472,0.305176,0.000000,0.000000
7826419958,0.00253296,0.00138855,-1.00514221,0.427246,0.061035,-0.061035
7831412166,0.00233459,0.00183105,-1.00550842,0.305176,0.183105,-0.061035
7836424333,0.00251770,0.00262451,-1.00601196,0.427246,0.000000,-0.061035
7841451958,0.00267029,0.00331116,-1.00590515,0.366211,0.061035,-0.061035
7846452000,0.00230408,0.00384521,-1.00561523,0.305176,0.122070,-0.122070
7851478875,0.00137329,0.00434875,-1.00569153,0.427246,0.061035,-0.061035
7856475000,0.00061035,0.00463867,-1.00590515,0.366211,0.000000,-0.183105
7861405166,0.00067139,0.00425720,-1.00611877,0.122070,0.000000,-0.061035
7866422708,0.00126648,0.00361633,-1.00619507,0.366211,0.061035,-0.122070
7871463375,0.00187683,0.00354004,-1.00621033,0.244141,0.061035,-0.061035
7876472416,0.00210571,0.00396729,-1.00679016,0.305176,0.000000,0.000000
7881463375,0.00164795,0.00405884,-1.00741577,0.244141,0.183105,-0.183105
7886444916,0.00105286,0.00367737,-1.00695801,0.427246,0.061035,0.061035
7891468708,0.00094604,0.00354004,-1.00563049,0.305176,0.000000,-0.061035
7896453166,0.00144958,0.00392151,-1.00503540,0.427246,0.183105,-0.122070
7901453375,0.00233459,0.00434875,-1.00605774,0.366211,0.061035,0.000000
7906455375,0.00311279,0.00447083,-1.00715637,0.488281,0.122070,-0.122070
7911458208,0.00311279,0.00431824,-1.00640869,0.305176,0.061035,-0.183105
7916468916,0.00250244,0.00370789,-1.00480652,0.305176,0.000000,-0.061035
7921449208,0.00257874,0.00273132,-1.00460815,0.366211,0.000000,-0.061035
7926475916,0.00332642,0.00209045,-1.00570679,0.305176,-0.061035,0.061035
7931448041,0.00350952,0.00218201,-1.00605774,0.183105,0.000000,-0.122070
7936426583,0.00328064,0.00242615,-1.00518799,0.244141,0.061035,0.000000
7941489041,0.00294495,0.00199890,-1.00474548,0.183105,-0.061035,-0.061035
7946469625,0.00201416,0.00125122,-1.00582886,0.366211,0.122070,-0.122070
7951470333,0.00094604,0.00126648,-1.00709534,0.305176,0.122070,-0.122070
7956472458,0.00073242,0.00192261,-1.00672913,0.305176,0.061035,0.000000
7961447166,0.00117493,0.00268555,-1.00558472,0.305176,0.061035,-0.061035
7966490416,0.00151062,0.00344849,-1.00550842,0.366211,0.000000,-0.122070
7971452625,0.00152588,0.00389099,-1.00605774,0.183105,0.122070,-0.122070
7976499708,0.00148010,0.00379944,-1.00573730,0.305176,0.122070,-0.061035
7981490500,0.00163269,0.00349426,-1.00512695,0.244141,0.183105,0.000000
7986446541,0.00204468,0.00352478,-1.00584412,0.244141,0.000000,0.061035
7991471708,0.00218201,0.00404358,-1.00698853,0.427246,0.061035,0.000000
7996492458,0.00204468,0.00463867,-1.00671387,0.427246,0.122070,-0.122070
8001463416,0.00202942,0.00451660,-1.00540161,0.305176,0.000000,-0.244141
8006524958,0.00212097,0.00346375,-1.00488281,0.366211,-0.122070,-0.183105
8011465625,0.00222778,0.00253296,-1.00561523,0.366211,0.000000,-0.061035
8016460916,0.00239563,0.00268555,-1.00654602,0.305176,0.000000,-0.122070
8021447166,0.00251770,0.00314331,-1.00662231,0.366211,0.061035,-0.122070
8026467833,0.00248718,0.00303650,-1.00592041,0.427246,-0.061035,-0.061035
8031478375,0.00245667,0.00247192,-1.00550842,0.305176,0.061035,0.061035
8036463333,0.00253296,0.00207520,-1.00596619,0.366211,0.122070,-0.061035
8041506916,0.00263977,0.00209045,-1.00633240,0.305176,0.000000,0.000000
8046503083,0.00254822,0.00212097,-1.00604248,0.488281,0.122070,-0.122070
8051487791,0.00233459,0.00230408,-1.00611877,0.366211,-0.122070,-0.122070
8056473541,0.00195312,0.00285339,-1.00619507,0.366211,0.000000,0.000000
8061456291,0.00126648,0.00314331,-1.00518799,0.488281,-0.061035,-0.061035
8066497500,0.00079346,0.00289917,-1.00468445,0.488281,-0.061035,-0.183105
8071472000,0.00123596,0.00288391,-1.00549316,0.427246,0.000000,-0.183105
8076489583,0.00186157,0.00302124,-1.00611877,0.305176,0.122070,0.000000
8081486250,0.00152588,0.00259399,-1.00595093,0.488281,-0.244141,0.000000
8086500291,0.00080872,0.00216675,-1.00671387,1.586914,-0.061035,0.000000
8091474666,0.00076294,0.00253296,-1.00859070,-0.122070,0.305176,0.000000
8096458750,0.00111389,0.00325012,-1.00112915,-0.183105,0.061035,-0.061035
8101465291,0.00108337,0.00386047,-0.99795532,0.732422,0.061035,0.000000
8106476833,0.00100708,0.00413513,-1.01544189,0.488281,0.000000,-0.183105
8111521541,0.00149536,0.00372314,-1.01672363,-0.061035,-0.061035,-0.122070
8116475291,0.00231934,0.00306702,-0.99867249,0.427246,0.122070,-0.183105
8121488666,0.00279236,0.00277710,-1.00056458,0.427246,0.000000,-0.122070
8126509583,0.00263977,0.00262451,-1.01062012,-0.366211,0.122070,-0.061035
8131511583,0.00268555,0.00219727,-1.00791931,0.366211,0.000000,0.000000
8136478458,0.00303650,0.00177002,-1.00747681,0.366211,0.000000,-0.122070
8141503250,0.00332642,0.00199890,-1.00872803,-0.122070,0.183105,0.000000
8146514625,0.00381470,0.00268555,-1.00292969,0.183105,0.183105,-0.183105
8151509833,0.00422668,0.00344849,-1.00399780,0.366211,0.122070,0.000000
8156506958,0.00408936,0.00448608,-1.00990295,0.183105,0.061035,-0.061035
8161509458,0.00350952,0.00552368,-1.00671387,0.183105,0.122070,0.000000
