timestamp_ns,accel_x,accel_y,accel_z,gyro_x,gyro_y,gyro_z
70410500,0.00289917,-0.00219727,-1.00698853,0.305176,0.061035,-0.061035
78552708,0.00300598,-0.00222778,-1.00769043,0.244141,0.183105,0.183105
79337833,0.00323486,-0.00186157,-1.00601196,0.244141,0.000000,0.000000
84814041,0.00389099,-0.00103760,-1.00492859,0.122070,0.000000,0.000000
89365500,0.00440979,0.00045776,-1.00579834,0.305176,0.061035,0.000000
95525375,0.00450134,0.00236511,-1.00721741,0.061035,-0.061035,-0.122070
100455208,0.00440979,0.00447083,-1.00666809,0.244141,0.061035,0.000000
104920708,0.00447083,0.00657654,-1.00454712,0.305176,0.061035,-0.061035
109788708,0.00483704,0.00831604,-1.00477600,0.366211,0.122070,0.000000
115016791,0.00520325,0.00932312,-1.00686646,0.366211,0.122070,0.061035
121071125,0.00495911,0.00976562,-1.00651550,0.244141,0.183105,-0.122070
130793708,0.00407410,0.00971985,-1.00459290,0.244141,0.061035,-0.061035
131895833,0.00302124,0.00874329,-1.00445557,0.488281,0.061035,-0.183105
142015916,0.00224304,0.00708008,-1.00563049,0.244141,0.122070,-0.183105
142020625,0.00170898,0.00541687,-1.00640869,0.366211,0.061035,0.061035
192914500,0.00138855,0.00389099,-1.00599670,0.427246,0.061035,-0.061035
192918250,0.00134277,0.00222778,-1.00500488,0.305176,0.061035,-0.122070
192920708,0.00128174,0.00047302,-1.00540161,0.244141,-0.061035,-0.061035
192922916,0.00111389,-0.00077820,-1.00675964,0.366211,0.000000,-0.061035
192925250,0.00114441,-0.00117493,-1.00704956,0.366211,0.061035,-0.061035
192927541,0.00152588,-0.00108337,-1.00581360,0.305176,0.122070,-0.061035
192929625,0.00231934,-0.00108337,-1.00485229,0.366211,0.061035,0.061035
192931625,0.00323486,-0.00109863,-1.00570679,0.305176,0.183105,-0.061035
192933583,0.00379944,-0.00045776,-1.00679016,0.244141,0.122070,0.000000
192935500,0.00402832,0.00083923,-1.00617981,0.305176,-0.061035,-0.061035
195190458,0.00430298,0.00219727,-1.00483704,0.366211,0.000000,0.061035
200349000,0.00474548,0.00299072,-1.00448608,0.305176,-0.122070,-0.122070
204350208,0.00489807,0.00350952,-1.00535583,0.183105,0.061035,-0.122070
211592333,0.00448608,0.00444031,-1.00593567,0.305176,-0.061035,-0.061035
214698000,0.00396729,0.00550842,-1.00520325,0.305176,0.000000,0.061035
220708708,0.00378418,0.00602722,-1.00471497,0.366211,0.122070,0.000000
225529958,0.00364685,0.00625610,-1.00521851,0.305176,0.000000,-0.061035
230043583,0.00323486,0.00674438,-1.00588989,0.305176,0.000000,-0.183105
234350416,0.00271606,0.00720215,-1.00599670,0.366211,0.122070,0.000000
239482291,0.00241089,0.00709534,-1.00523376,0.427246,0.061035,-0.061035
244349000,0.00234985,0.00660706,-1.00471497,0.244141,0.122070,-0.061035
249497625,0.00215149,0.00601196,-1.00529480,0.305176,-0.122070,-0.122070
254331000,0.00146484,0.00508118,-1.00579834,0.183105,0.000000,-0.122070
259989291,0.00079346,0.00382996,-1.00512695,0.366211,0.061035,-0.061035
264336916,0.00051880,0.00259399,-1.00442505,0.305176,0.061035,0.000000
269352416,0.00051880,0.00126648,-1.00502014,0.305176,0.000000,-0.061035
274331583,0.00094604,0.00010681,-1.00585938,0.244141,0.061035,0.000000
279372541,0.00180054,-0.00028992,-1.00581360,0.244141,-0.061035,-0.061035
284383083,0.00265503,-0.00012207,-1.00546265,0.366211,0.061035,0.000000
289363583,0.00306702,0.00003052,-1.00556946,0.305176,0.000000,-0.122070
294462750,0.00331116,0.00021362,-1.00621033,0.366211,0.000000,0.000000
299406500,0.00373840,0.00111389,-1.00672913,0.427246,0.061035,0.000000
304363416,0.00433350,0.00289917,-1.00611877,0.305176,0.122070,-0.122070
309382666,0.00466919,0.00492859,-1.00508118,0.305176,0.122070,-0.061035
314350291,0.00463867,0.00642395,-1.00520325,0.244141,0.000000,0.000000
319363791,0.00482178,0.00715637,-1.00601196,0.305176,0.183105,-0.061035
324375291,0.00512695,0.00727844,-1.00579834,0.305176,0.061035,-0.122070
329367625,0.00466919,0.00691223,-1.00503540,0.366211,0.000000,-0.061035
334354958,0.00338745,0.00617981,-1.00514221,0.122070,0.061035,-0.122070
339373500,0.00215149,0.00544739,-1.00559998,0.427246,-0.122070,-0.122070
344383250,0.00134277,0.00486755,-1.00518799,0.305176,0.061035,0.000000
349556791,0.00067139,0.00411987,-1.00434875,0.305176,0.061035,0.000000
354363166,0.00009155,0.00300598,-1.00421143,0.244141,-0.061035,-0.061035
359698541,-0.00006104,0.00193787,-1.00485229,0.244141,0.000000,-0.122070
364358791,0.00025940,0.00149536,-1.00556946,0.305176,0.122070,-0.061035
369392750,0.00099182,0.00180054,-1.00564575,0.366211,0.122070,-0.122070
374374041,0.00154114,0.00218201,-1.00514221,0.366211,0.000000,-0.061035
379393750,0.00170898,0.00213623,-1.00508118,0.366211,0.061035,0.000000
384369250,0.00204468,0.00192261,-1.00592041,0.305176,0.000000,-0.061035
389390541,0.00296021,0.00193787,-1.00650024,0.427246,0.122070,-0.183105
394370250,0.00416565,0.00231934,-1.00614929,0.305176,0.122070,-0.061035
399378041,0.00462341,0.00279236,-1.00584412,0.366211,0.122070,0.000000
404424791,0.00413513,0.00321960,-1.00598145,0.305176,0.000000,-0.061035
409399541,0.00379944,0.00395203,-1.00575256,0.122070,0.000000,0.000000
414366416,0.00407410,0.00451660,-1.00503540,0.366211,0.000000,-0.061035
419396708,0.00440979,0.00418091,-1.00459290,0.183105,-0.122070,0.000000
424399500,0.00448608,0.00360107,-1.00488281,0.122070,0.061035,-0.061035
429407541,0.00425720,0.00387573,-1.00564575,0.366211,0.000000,0.000000
434347791,0.00398254,0.00462341,-1.00627136,0.305176,0.061035,-0.183105
439391041,0.00396729,0.00498962,-1.00630188,0.244141,-0.244141,-0.244141
444399125,0.00382996,0.00495911,-1.00592041,0.366211,0.000000,0.000000
449596958,0.00320435,0.00486755,-1.00599670,0.183105,-0.061035,0.000000
454467541,0.00241089,0.00479126,-1.00639343,0.305176,0.061035,0.000000
459403833,0.00177002,0.00440979,-1.00607300,0.244141,-0.061035,-0.122070
464383958,0.00114441,0.00366211,-1.00535583,0.122070,-0.061035,-0.122070
469383875,0.00048828,0.00289917,-1.00527954,0.427246,0.000000,-0.061035
474410958,0.00019836,0.00219727,-1.00535583,0.366211,0.000000,-0.061035
479403791,0.00036621,0.00164795,-1.00494385,0.305176,0.061035,0.122070
484388041,0.00086975,0.00149536,-1.00454712,0.366211,0.122070,0.000000
489375291,0.00146484,0.00158691,-1.00473022,0.366211,0.000000,0.061035
494363333,0.00207520,0.00192261,-1.00521851,0.427246,0.122070,-0.061035
499387708,0.00271606,0.00260925,-1.00538635,0.305176,0.061035,-0.061035
504473750,0.00344849,0.00360107,-1.00495911,0.366211,0.061035,-0.122070
509380166,0.00444031,0.00473022,-1.00444031,0.366211,0.061035,0.000000
514445125,0.00582886,0.00563049,-1.00460815,0.366211,0.061035,0.000000
519451291,0.00657654,0.00585938,-1.00566101,0.366211,-0.122070,-0.122070
524403416,0.00582886,0.00540161,-1.00628662,0.305176,0.061035,-0.061035
529375416,0.00462341,0.00448608,-1.00585938,0.427246,0.122070,0.000000
534463000,0.00404358,0.00346375,-1.00555420,0.244141,0.000000,0.000000
539449708,0.00358582,0.00262451,-1.00567627,0.366211,-0.061035,-0.061035
544386916,0.00267029,0.00207520,-1.00558472,0.366211,0.061035,-0.061035
549510541,0.00173950,0.00177002,-1.00506592,0.244141,0.000000,-0.061035
554450708,0.00144958,0.00193787,-1.00491333,0.366211,-0.183105,0.000000
559418416,0.00157166,0.00219727,-1.00558472,0.366211,0.000000,0.000000
564451166,0.00138855,0.00212097,-1.00573730,0.305176,-0.061035,0.061035
569485208,0.00106812,0.00195312,-1.00521851,0.305176,0.000000,-0.061035
574417583,0.00108337,0.00193787,-1.00523376,0.244141,0.061035,0.061035
579408625,0.00122070,0.00222778,-1.00559998,0.183105,0.000000,-0.061035
584425958,0.00109863,0.00306702,-1.00624084,0.366211,0.122070,0.000000
589404916,0.00122070,0.00425720,-1.00685120,0.244141,0.183105,0.061035
594404125,0.00181580,0.00526428,-1.00582886,0.122070,-0.061035,-0.061035
599402916,0.00238037,0.00599670,-1.00419617,0.427246,-0.061035,0.000000
604507875,0.00260925,0.00656128,-1.00460815,0.305176,0.061035,-0.061035
609441458,0.00288391,0.00703430,-1.00563049,0.549316,0.061035,-0.061035
614458000,0.00328064,0.00714111,-1.00497437,0.305176,-0.061035,0.000000
619415000,0.00366211,0.00692749,-1.00411987,0.305176,0.000000,0.000000
624422583,0.00427246,0.00654602,-1.00415039,0.244141,-0.061035,-0.122070
629436541,0.00506592,0.00561523,-1.00471497,0.305176,0.000000,-0.061035
634470458,0.00547791,0.00404358,-1.00546265,0.244141,0.061035,-0.061035
639555416,0.00559998,0.00263977,-1.00570679,0.305176,0.122070,0.000000
644462291,0.00563049,0.00158691,-1.00517273,0.305176,0.000000,-0.122070
649506250,0.00526428,0.00074768,-1.00492859,0.244141,0.000000,-0.061035
654469000,0.00444031,0.00022888,-1.00561523,0.366211,-0.061035,-0.061035
659480208,0.00335693,-0.00010681,-1.00624084,0.244141,0.061035,0.000000
664468625,0.00233459,-0.00051880,-1.00595093,0.305176,0.000000,0.000000
669484166,0.00173950,-0.00045776,-1.00537109,0.366211,0.061035,-0.122070
674469291,0.00129700,0.00039673,-1.00546265,0.366211,0.122070,-0.183105
679481333,0.00088501,0.00146484,-1.00616455,0.366211,0.183105,0.000000
684536333,0.00044250,0.00259399,-1.00622559,0.305176,0.122070,0.000000
689729833,0.00006104,0.00387573,-1.00563049,0.305176,0.000000,-0.122070
694529458,0.00012207,0.00532532,-1.00547791,0.366211,0.000000,-0.061035
699514458,0.00064087,0.00721741,-1.00570679,0.366211,0.061035,-0.122070
704848166,0.00146484,0.00904846,-1.00573730,0.488281,0.183105,0.000000
709648000,0.00247192,0.00996399,-1.00582886,0.366211,0.061035,-0.061035
714590458,0.00346375,0.01004028,-1.00599670,0.488281,0.061035,-0.122070
719600291,0.00442505,0.00978088,-1.00569153,0.366211,0.000000,-0.122070
724553083,0.00506592,0.00888062,-1.00497437,0.488281,0.000000,-0.061035
729510041,0.00494385,0.00675964,-1.00433350,0.488281,0.122070,-0.122070
734528625,0.00427246,0.00407410,-1.00431824,0.488281,0.000000,0.000000
739495500,0.00379944,0.00204468,-1.00503540,0.427246,-0.061035,-0.061035
744511166,0.00349426,0.00074768,-1.00579834,0.427246,0.000000,0.061035
749498458,0.00312805,-0.00042725,-1.00582886,0.305176,0.000000,-0.061035
754529125,0.00286865,-0.00141907,-1.00555420,0.305176,0.061035,-0.061035
759517750,0.00263977,-0.00180054,-1.00575256,0.488281,0.061035,0.000000
764557708,0.00202942,-0.00149536,-1.00596619,0.427246,-0.061035,-0.061035
769593458,0.00129700,-0.00090027,-1.00570679,0.671387,0.122070,-0.061035
774545958,0.00090027,-0.00016785,-1.00540161,0.488281,0.061035,0.000000
779531000,0.00088501,0.00108337,-1.00546265,0.305176,-0.122070,-0.061035
784520916,0.00105286,0.00279236,-1.00575256,0.366211,0.122070,-0.122070
789504416,0.00129700,0.00413513,-1.00578308,0.366211,-0.061035,-0.183105
794531791,0.00132751,0.00471497,-1.00541687,0.366211,0.000000,-0.061035
799522541,0.00115967,0.00508118,-1.00486755,0.427246,0.122070,0.000000
804573708,0.00120544,0.00558472,-1.00480652,0.305176,-0.061035,0.000000
809620000,0.00134277,0.00605774,-1.00569153,0.427246,0.061035,0.000000
814527875,0.00126648,0.00650024,-1.00659180,0.366211,0.000000,-0.122070
819557666,0.00132751,0.00680542,-1.00663757,0.366211,-0.061035,-0.061035
824528166,0.00196838,0.00688171,-1.00662231,0.427246,-0.061035,0.122070
829569541,0.00279236,0.00671387,-1.00686646,0.366211,0.000000,-0.061035
834530500,0.00343323,0.00601196,-1.00654602,0.488281,0.000000,-0.183105
839572125,0.00408936,0.00476074,-1.00575256,0.305176,0.000000,-0.061035
844559041,0.00465393,0.00352478,-1.00544739,0.488281,-0.061035,-0.061035
849552125,0.00457764,0.00248718,-1.00566101,0.488281,0.000000,-0.061035
854546000,0.00387573,0.00134277,-1.00595093,0.366211,0.061035,-0.061035
859530750,0.00294495,0.00001526,-1.00619507,0.427246,0.061035,-0.061035
864519791,0.00212097,-0.00108337,-1.00608826,0.366211,0.061035,-0.061035
869596291,0.00161743,-0.00157166,-1.00564575,0.488281,-0.122070,-0.061035
874580000,0.00169373,-0.00157166,-1.00541687,0.244141,0.122070,0.000000
879521416,0.00230408,-0.00140381,-1.00587463,0.305176,0.061035,-0.122070
884564000,0.00270081,-0.00077820,-1.00660706,0.427246,0.000000,-0.061035
889538458,0.00247192,0.00059509,-1.00686646,0.488281,0.000000,0.000000
894554333,0.00221252,0.00202942,-1.00660706,0.305176,-0.061035,0.000000
899566583,0.00242615,0.00341797,-1.00631714,0.427246,0.000000,0.000000
904575541,0.00282288,0.00497437,-1.00596619,0.549316,0.000000,-0.122070
909560583,0.00299072,0.00637817,-1.00541687,0.366211,0.000000,-0.061035
914586250,0.00296021,0.00733948,-1.00480652,0.427246,0.122070,-0.061035
919578958,0.00291443,0.00788879,-1.00454712,0.183105,0.000000,-0.061035
924583625,0.00291443,0.00772095,-1.00473022,0.427246,0.061035,-0.122070
929570041,0.00294495,0.00659180,-1.00491333,0.427246,0.061035,-0.122070
934567916,0.00302124,0.00540161,-1.00486755,0.427246,-0.061035,-0.122070
939585708,0.00285339,0.00456238,-1.00498962,0.610352,0.000000,-0.183105
944534625,0.00238037,0.00355530,-1.00549316,0.488281,0.122070,-0.122070
949506291,0.00209045,0.00227356,-1.00596619,0.427246,-0.061035,0.000000
954592541,0.00224304,0.00100708,-1.00625610,0.488281,0.000000,0.122070
959561541,0.00244141,0.00013733,-1.00656128,0.427246,-0.061035,0.000000
964561833,0.00244141,0.00001526,-1.00697327,0.549316,-0.061035,0.000000
969586791,0.00215149,0.00059509,-1.00672913,0.488281,0.000000,-0.061035
974588375,0.00183105,0.00128174,-1.00486755,0.427246,0.000000,-0.061035
979559250,0.00184631,0.00161743,-1.00285339,0.488281,0.000000,0.000000
984569375,0.00205994,0.00178528,-1.00447083,0.366211,0.061035,0.000000
989580083,0.00245667,0.00184631,-1.00823975,0.244141,0.000000,-0.122070
994565208,0.00283813,0.00152588,-1.00903320,0.183105,0.183105,0.000000
999582916,0.00299072,0.00128174,-1.00750732,0.061035,0.000000,-0.122070
1004602500,0.00297546,0.00178528,-1.00634766,0.183105,0.061035,0.000000
1009567500,0.00312805,0.00271606,-1.00563049,0.244141,0.061035,0.000000
1014564333,0.00370789,0.00338745,-1.00547791,0.244141,0.122070,0.000000
1019572958,0.00430298,0.00378418,-1.00561523,0.244141,0.000000,-0.122070
1024593833,0.00454712,0.00436401,-1.00515747,0.244141,-0.061035,-0.061035
1029586375,0.00463867,0.00524902,-1.00494385,0.549316,0.061035,0.000000
1034598500,0.00442505,0.00608826,-1.00564575,0.427246,0.000000,0.000000
1039594583,0.00369263,0.00639343,-1.00572205,0.488281,0.000000,-0.122070
1044569666,0.00302124,0.00608826,-1.00524902,0.488281,0.000000,-0.183105
1049542708,0.00285339,0.00532532,-1.00559998,0.305176,-0.061035,-0.183105
1054602833,0.00250244,0.00427246,-1.00608826,0.427246,0.061035,-0.122070
1059597583,0.00152588,0.00306702,-1.00590515,0.488281,0.000000,-0.061035
1064603000,0.00061035,0.00183105,-1.00555420,0.488281,0.061035,-0.061035
1069654541,0.00030518,0.00085449,-1.00498962,0.427246,-0.061035,-0.122070
1074583750,0.00041199,0.00032043,-1.00474548,0.488281,0.000000,0.000000
1079587583,0.00050354,0.00000000,-1.00541687,0.183105,0.000000,0.000000
1084606875,0.00056458,-0.00038147,-1.00581360,0.427246,0.061035,-0.061035
1089601333,0.00099182,-0.00080872,-1.00524902,0.427246,-0.061035,-0.061035
1094601208,0.00181580,-0.00086975,-1.00518799,0.244141,-0.122070,-0.061035
1099610041,0.00259399,-0.00016785,-1.00611877,0.366211,0.000000,-0.183105
1104625750,0.00317383,0.00097656,-1.00613403,0.305176,-0.061035,-0.061035
1109612583,0.00363159,0.00201416,-1.00480652,0.305176,0.000000,-0.122070
1114609750,0.00407410,0.00291443,-1.00392151,0.366211,0.000000,-0.122070
1119620958,0.00462341,0.00364685,-1.00431824,0.305176,0.000000,-0.122070
1124607541,0.00515747,0.00398254,-1.00517273,0.366211,0.061035,0.000000
1129632916,0.00503540,0.00402832,-1.00567627,0.244141,-0.061035,0.000000
1134634250,0.00419617,0.00416565,-1.00579834,0.427246,0.000000,0.000000
1139599250,0.00344849,0.00436401,-1.00579834,0.305176,0.000000,0.000000
1144625000,0.00308228,0.00462341,-1.00607300,0.305176,0.061035,-0.061035
1149572250,0.00241089,0.00503540,-1.00624084,0.305176,-0.061035,0.061035
1154609666,0.00143433,0.00524902,-1.00561523,0.305176,0.122070,-0.061035
1159625416,0.00091553,0.00505066,-1.00495911,0.366211,0.061035,-0.061035
1164618250,0.00109863,0.00442505,-1.00546265,0.366211,-0.061035,0.000000
1169635500,0.00143433,0.00360107,-1.00640869,0.305176,0.061035,0.061035
1174614416,0.00152588,0.00277710,-1.00611877,0.244141,0.000000,0.000000
1179626791,0.00155640,0.00180054,-1.00462341,0.488281,0.000000,0.061035
1184653208,0.00163269,0.00071716,-1.00392151,0.488281,0.122070,-0.061035
1189655166,0.00157166,0.00001526,-1.00477600,0.427246,-0.122070,-0.122070
1194627583,0.00163269,-0.00016785,-1.00550842,0.427246,0.000000,-0.122070
1199649916,0.00202942,-0.00032043,-1.00526428,0.610352,0.000000,0.000000
1204625791,0.00260925,-0.00021362,-1.00469971,0.427246,0.061035,0.061035
1209628375,0.00325012,0.00050354,-1.00476074,0.305176,0.000000,-0.183105
1214625833,0.00373840,0.00160217,-1.00549316,0.549316,0.122070,0.000000
1219639375,0.00389099,0.00273132,-1.00555420,0.427246,0.061035,-0.122070
1224683916,0.00422668,0.00389099,-1.00477600,0.488281,0.061035,-0.061035
1229674833,0.00489807,0.00488281,-1.00456238,0.427246,0.122070,-0.061035
1234647625,0.00538635,0.00564575,-1.00544739,0.366211,0.061035,-0.061035
1239640500,0.00546265,0.00621033,-1.00659180,0.366211,0.122070,-0.122070
1244649500,0.00537109,0.00634766,-1.00685120,0.488281,0.122070,0.061035
1249626291,0.00517273,0.00582886,-1.00630188,0.488281,0.000000,-0.061035
1254637708,0.00466919,0.00466919,-1.00576782,0.366211,-0.122070,-0.061035
1259638458,0.00404358,0.00347900,-1.00488281,0.366211,-0.061035,-0.122070
1264647458,0.00328064,0.00260925,-1.00352478,0.488281,0.000000,0.061035
1269742750,0.00207520,0.00190735,-1.00384521,0.183105,0.122070,-0.061035
1274657791,0.00083923,0.00094604,-1.00636292,0.244141,0.061035,0.000000
1279642750,0.00030518,0.00000000,-1.00807190,0.244141,0.061035,-0.061035
1284655250,0.00033569,-0.00013733,-1.00744629,0.427246,0.122070,-0.122070
1289642666,0.00030518,0.00024414,-1.00570679,0.183105,0.000000,-0.061035
1294636041,-0.00007629,0.00038147,-1.00465393,0.183105,-0.122070,-0.061035
1299678333,-0.00059509,0.00044250,-1.00549316,0.366211,0.000000,-0.061035
1304670750,-0.00090027,0.00091553,-1.00680542,0.366211,0.061035,0.061035
1309649125,-0.00062561,0.00148010,-1.00621033,0.305176,0.061035,-0.061035
1314642166,0.00018311,0.00183105,-1.00453186,0.366211,0.122070,0.000000
1319641208,0.00068665,0.00199890,-1.00381470,0.366211,0.122070,0.000000
1324629208,0.00054932,0.00233459,-1.00436401,0.305176,-0.061035,0.000000
1329655041,0.00082397,0.00317383,-1.00527954,0.244141,0.000000,-0.122070
1334763916,0.00201416,0.00428772,-1.00575256,0.427246,0.061035,-0.061035
1339692000,0.00340271,0.00515747,-1.00588989,0.427246,0.122070,0.061035
1344675583,0.00415039,0.00547791,-1.00642395,0.183105,0.061035,0.000000
1349713833,0.00453186,0.00549316,-1.00691223,0.305176,0.061035,0.061035
1354702791,0.00518799,0.00561523,-1.00660706,0.305176,0.000000,0.061035
1359686250,0.00592041,0.00564575,-1.00585938,0.305176,0.122070,-0.061035
1364689666,0.00610352,0.00529480,-1.00561523,0.305176,0.122070,0.000000
1369708791,0.00581360,0.00483704,-1.00614929,0.305176,0.000000,-0.061035
1374662583,0.00512695,0.00428772,-1.00639343,0.305176,-0.061035,-0.122070
1379705916,0.00408936,0.00328064,-1.00573730,0.366211,0.122070,0.061035
1384717541,0.00309753,0.00195312,-1.00523376,0.488281,0.000000,-0.122070
1389692416,0.00225830,0.00077820,-1.00550842,0.183105,0.122070,0.000000
1394683541,0.00134277,0.00004578,-1.00613403,0.122070,0.183105,-0.061035
1399700125,0.00061035,-0.00035095,-1.00663757,0.122070,-0.061035,-0.183105
1404694541,0.00028992,-0.00050354,-1.00660706,0.122070,0.000000,0.000000
1409683250,0.00006104,-0.00035095,-1.00607300,0.244141,-0.061035,0.000000
1414678958,-0.00025940,0.00013733,-1.00523376,0.305176,0.000000,0.000000
1419687583,-0.00022888,0.00083923,-1.00404358,0.305176,0.061035,-0.061035
1424719541,0.00021362,0.00158691,-1.00337219,0.366211,0.061035,-0.061035
1429762791,0.00076294,0.00248718,-1.00427246,0.000000,0.000000,-0.122070
1434698541,0.00158691,0.00328064,-1.00604248,0.183105,0.122070,0.061035
1439705666,0.00286865,0.00386047,-1.00755310,0.244141,0.061035,0.000000
1444727291,0.00425720,0.00454712,-1.00770569,0.061035,0.000000,0.000000
1449685750,0.00540161,0.00535583,-1.00550842,0.061035,0.183105,-0.061035
1454672958,0.00631714,0.00604248,-1.00343323,0.244141,0.061035,0.061035
1459698125,0.00718689,0.00625610,-1.00445557,0.183105,0.061035,-0.061035
1464702541,0.00823975,0.00578308,-1.00637817,0.244141,0.061035,-0.183105
1469747083,0.00904846,0.00509644,-1.00659180,0.366211,0.000000,-0.061035
1474760291,0.00888062,0.00485229,-1.00627136,0.366211,0.000000,-0.305176
1479733958,0.00781250,0.00495911,-1.00605774,0.366211,0.122070,-0.061035
1484744375,0.00646973,0.00518799,-1.00573730,0.305176,0.000000,-0.122070
1489721916,0.00517273,0.00526428,-1.00581360,0.305176,0.000000,-0.183105
1494721125,0.00387573,0.00506592,-1.00607300,0.488281,0.000000,-0.122070
1499703458,0.00204468,0.00486755,-1.00556946,0.427246,-0.061035,-0.122070
1504757708,-0.00041199,0.00466919,-1.00529480,0.427246,-0.061035,-0.061035
1509739833,-0.00297546,0.00393677,-1.00543213,0.366211,0.122070,0.000000
1514714416,-0.00512695,0.00241089,-1.00506592,0.305176,0.061035,-0.061035
1519739166,-0.00640869,0.00062561,-1.00552368,0.305176,0.000000,0.000000
1524727041,-0.00651550,-0.00036621,-1.00653076,0.366211,0.000000,-0.122070
1529714875,-0.00570679,-0.00007629,-1.00657654,0.244141,0.000000,0.061035
1534737208,-0.00418091,0.00071716,-1.00595093,0.244141,0.000000,-0.061035
1539722125,-0.00205994,0.00123596,-1.00535583,0.183105,-0.061035,-0.183105
1544740666,0.00022888,0.00140381,-1.00511169,0.061035,0.000000,-0.061035
1549716916,0.00256348,0.00108337,-1.00534058,-0.061035,-0.061035,-0.061035
1554752750,0.00460815,0.00042725,-1.00544739,0.305176,-0.061035,-0.122070
1559709000,0.00619507,0.00032043,-1.00474548,0.183105,-0.061035,-0.061035
1564734458,0.00770569,0.00094604,-1.00407410,0.122070,0.000000,0.000000
1569741833,0.00921631,0.00140381,-1.00431824,0.244141,0.000000,0.000000
1574740625,0.01013184,0.00160217,-1.00500488,0.183105,0.061035,0.061035
1579720583,0.00996399,0.00173950,-1.00569153,0.244141,-0.122070,0.061035
1584781750,0.00917053,0.00173950,-1.00566101,0.305176,0.000000,-0.061035
1589722541,0.00845337,0.00221252,-1.00485229,0.305176,-0.061035,0.061035
1594723250,0.00747681,0.00329590,-1.00477600,0.183105,-0.061035,0.000000
1599734458,0.00584412,0.00419617,-1.00527954,0.122070,0.000000,-0.061035
1604779916,0.00398254,0.00439453,-1.00540161,0.183105,0.061035,-0.122070
1609778125,0.00231934,0.00453186,-1.00549316,0.244141,0.000000,0.000000
1614750541,0.00088501,0.00502014,-1.00538635,0.122070,-0.122070,-0.122070
1619758541,-0.00061035,0.00520325,-1.00474548,0.244141,0.061035,-0.122070
1624778208,-0.00195312,0.00465393,-1.00453186,0.305176,-0.061035,-0.122070
1629772625,-0.00254822,0.00382996,-1.00506592,0.244141,0.122070,-0.183105
1634887458,-0.00219727,0.00312805,-1.00546265,0.061035,-0.061035,-0.061035
1639778708,-0.00122070,0.00256348,-1.00555420,0.183105,0.000000,0.061035
1644756625,-0.00039673,0.00202942,-1.00561523,0.183105,0.061035,0.122070
1649734583,0.00025940,0.00157166,-1.00527954,0.000000,0.061035,0.000000
1654794291,0.00151062,0.00128174,-1.00498962,0.183105,0.183105,0.000000
1659729083,0.00325012,0.00094604,-1.00559998,0.122070,-0.061035,-0.122070
1664781000,0.00483704,0.00057983,-1.00616455,0.061035,0.122070,0.000000
1669803625,0.00604248,0.00062561,-1.00567627,0.000000,0.061035,-0.061035
1674784916,0.00718689,0.00122070,-1.00527954,0.061035,-0.061035,0.000000
1679772291,0.00842285,0.00172424,-1.00569153,0.183105,0.000000,0.000000
1684812166,0.00921631,0.00184631,-1.00592041,0.061035,-0.061035,0.000000
1689779000,0.00868225,0.00221252,-1.00579834,0.061035,0.061035,-0.061035
1694746916,0.00691223,0.00271606,-1.00572205,0.183105,0.000000,0.000000
1699763916,0.00486755,0.00279236,-1.00592041,0.122070,0.000000,-0.122070
1704761166,0.00306702,0.00294495,-1.00634766,0.183105,0.122070,0.061035
1709796208,0.00141907,0.00375366,-1.00616455,0.183105,0.061035,0.061035
1714772666,-0.00004578,0.00479126,-1.00498962,0.122070,0.061035,-0.122070
1719801708,-0.00115967,0.00550842,-1.00393677,0.305176,0.183105,0.061035
1724809916,-0.00196838,0.00587463,-1.00474548,0.183105,0.000000,-0.183105
1729801666,-0.00267029,0.00610352,-1.00669861,0.244141,0.122070,0.000000
1734781750,-0.00318909,0.00630188,-1.00656128,0.305176,-0.061035,-0.061035
1739850791,-0.00340271,0.00630188,-1.00532532,0.427246,0.000000,-0.061035
1744805125,-0.00306702,0.00581360,-1.00569153,0.183105,0.000000,0.061035
1749781791,-0.00190735,0.00466919,-1.00605774,0.122070,0.000000,0.000000
1754815958,-0.00022888,0.00315857,-1.00546265,0.305176,0.000000,0.000000
1759811625,0.00146484,0.00180054,-1.00477600,0.366211,0.000000,-0.061035
1764815250,0.00280762,0.00073242,-1.00418091,0.122070,-0.061035,0.000000
1769807708,0.00392151,-0.00007629,-1.00459290,0.305176,0.122070,0.122070
1774780291,0.00526428,-0.00036621,-1.00595093,0.183105,0.000000,0.000000
1779768958,0.00685120,0.00009155,-1.00639343,0.122070,0.061035,-0.122070
1784824166,0.00820923,0.00088501,-1.00541687,0.244141,-0.122070,0.061035
1789805416,0.00872803,0.00128174,-1.00505066,0.305176,0.000000,0.000000
1794853166,0.00820923,0.00135803,-1.00570679,0.183105,-0.122070,-0.122070
1799782041,0.00706482,0.00169373,-1.00590515,0.244141,0.061035,-0.061035
1804821916,0.00541687,0.00245667,-1.00570679,0.366211,0.061035,-0.122070
1809832000,0.00317383,0.00363159,-1.00587463,0.244141,0.122070,-0.122070
1814813208,0.00131226,0.00498962,-1.00613403,0.244141,-0.061035,-0.061035
1819823958,0.00057983,0.00605774,-1.00604248,0.366211,0.061035,-0.061035
1824831916,0.00000000,0.00663757,-1.00566101,0.305176,-0.061035,-0.122070
1829844541,-0.00172424,0.00659180,-1.00517273,0.366211,0.000000,0.000000
1834812916,-0.00375366,0.00611877,-1.00508118,0.305176,-0.122070,-0.061035
1839842666,-0.00422668,0.00578308,-1.00546265,0.305176,0.000000,-0.122070
1844827541,-0.00311279,0.00573730,-1.00576782,0.427246,0.000000,-0.061035
1849807375,-0.00160217,0.00550842,-1.00564575,0.305176,0.000000,-0.183105
1854793500,-0.00019836,0.00476074,-1.00541687,0.488281,0.122070,0.000000
1859798791,0.00117493,0.00366211,-1.00534058,0.427246,0.122070,-0.061035
1864807625,0.00236511,0.00268555,-1.00532532,0.366211,0.000000,0.000000
1869875250,0.00361633,0.00210571,-1.00482178,0.488281,0.061035,-0.061035
1874810041,0.00537109,0.00132751,-1.00317383,0.122070,0.000000,-0.061035
1879794208,0.00677490,0.00048828,-1.00421143,0.427246,0.000000,-0.122070
1884807916,0.00730896,0.00012207,-1.00941467,0.244141,0.000000,0.000000
1889800416,0.00732422,-0.00071716,-1.00679016,0.244141,0.061035,0.000000
1894889541,0.00709534,-0.00158691,-1.00024414,0.549316,0.122070,-0.061035
1899814583,0.00669861,-0.00085449,-1.00476074,0.122070,-0.061035,0.000000
1904807083,0.00654602,0.00102234,-1.01025391,0.366211,0.061035,-0.122070
1909811166,0.00648499,0.00289917,-1.00772095,0.244141,0.000000,-0.061035
1914796458,0.00549316,0.00453186,-1.00230408,0.122070,0.000000,0.000000
1919853125,0.00344849,0.00599670,-1.00137329,0.366211,0.061035,0.000000
1924808875,0.00122070,0.00711060,-1.00737000,0.305176,0.061035,0.000000
1929861875,-0.00073242,0.00788879,-1.00904846,0.305176,0.000000,-0.061035
1934912041,-0.00241089,0.00851440,-1.00352478,0.305176,0.061035,-0.183105
1939912750,-0.00337219,0.00871277,-1.00178528,0.488281,0.122070,0.061035
1944865541,-0.00334167,0.00817871,-1.00563049,0.305176,0.061035,-0.061035
1949835750,-0.00270081,0.00698853,-1.00830078,0.488281,-0.061035,0.061035
1954826875,-0.00184631,0.00538635,-1.00596619,0.366211,0.061035,-0.183105
1959859916,-0.00085449,0.00389099,-1.00228882,0.427246,0.122070,-0.061035
1964874625,0.00013733,0.00265503,-1.00317383,0.366211,0.122070,-0.061035
1969865250,0.00151062,0.00132751,-1.00695801,0.244141,0.000000,0.000000
1974855333,0.00357056,0.00013733,-1.00813293,0.427246,0.122070,0.000000
1979843666,0.00558472,-0.00067139,-1.00601196,0.366211,0.000000,-0.122070
1984905250,0.00704956,-0.00137329,-1.00434875,0.366211,0.061035,-0.122070
1989838666,0.00793457,-0.00143433,-1.00567627,0.366211,0.061035,0.000000
1994823916,0.00846863,-0.00044250,-1.00784302,0.183105,0.000000,0.000000
1999856541,0.00863647,0.00090027,-1.00692749,0.427246,-0.061035,-0.061035
2004859791,0.00798035,0.00207520,-1.00366211,0.366211,0.061035,-0.061035
2009863916,0.00634766,0.00325012,-1.00262451,0.366211,-0.122070,0.000000
2014840750,0.00430298,0.00437927,-1.00610352,0.305176,0.000000,0.000000
2019855083,0.00257874,0.00508118,-1.00930786,0.183105,0.061035,-0.061035
2024842791,0.00163269,0.00553894,-1.00669861,0.183105,0.061035,0.000000
2029863666,0.00090027,0.00624084,-1.00289917,0.244141,0.122070,-0.061035
2034924208,-0.00039673,0.00700378,-1.00413513,0.244141,0.061035,0.061035
2039869541,-0.00180054,0.00708008,-1.00729370,0.244141,0.061035,-0.061035
2044845416,-0.00204468,0.00613403,-1.00729370,0.305176,0.122070,-0.122070
2049927000,-0.00137329,0.00502014,-1.00445557,0.305176,0.061035,-0.061035
2054836750,-0.00086975,0.00428772,-1.00335693,0.122070,-0.061035,-0.061035
2059891458,-0.00071716,0.00325012,-1.00576782,0.244141,0.183105,0.061035
2064868041,-0.00019836,0.00170898,-1.00755310,0.366211,0.000000,-0.061035
2069871666,0.00108337,0.00036621,-1.00631714,0.305176,0.061035,-0.061035
2074855250,0.00263977,-0.00032043,-1.00418091,0.366211,-0.061035,-0.122070
2079885541,0.00378418,-0.00067139,-1.00415039,0.305176,-0.061035,-0.122070
2084861000,0.00468445,-0.00068665,-1.00637817,0.366211,0.061035,0.000000
2089904333,0.00555420,-0.00010681,-1.00698853,0.427246,0.061035,0.000000
2094885833,0.00621033,0.00097656,-1.00526428,0.305176,0.000000,0.000000
2099870000,0.00677490,0.00236511,-1.00479126,0.427246,-0.061035,0.000000
2104896458,0.00695801,0.00364685,-1.00613403,0.244141,0.000000,-0.061035
2109914458,0.00614929,0.00466919,-1.00711060,0.488281,0.000000,-0.122070
2114886416,0.00448608,0.00563049,-1.00622559,0.122070,-0.122070,-0.061035
2119875708,0.00308228,0.00657654,-1.00451660,0.305176,0.061035,0.000000
2124867291,0.00259399,0.00715637,-1.00457764,0.244141,0.000000,-0.122070
2129878000,0.00234985,0.00709534,-1.00555420,0.366211,0.061035,-0.061035
2134906250,0.00173950,0.00680542,-1.00543213,0.244141,0.000000,-0.122070
2139911666,0.00129700,0.00637817,-1.00521851,0.122070,-0.061035,-0.061035
2144897458,0.00160217,0.00570679,-1.00553894,0.366211,0.000000,-0.061035
2149893333,0.00212097,0.00463867,-1.00656128,0.427246,0.061035,0.000000
2154987666,0.00205994,0.00314331,-1.00698853,0.183105,0.000000,0.000000
2159915125,0.00161743,0.00158691,-1.00529480,0.366211,-0.061035,-0.061035
2164875958,0.00135803,0.00030518,-1.00477600,0.244141,0.000000,0.000000
2169923875,0.00120544,-0.00061035,-1.00622559,0.366211,0.000000,-0.122070
2174896958,0.00134277,-0.00096130,-1.00671387,0.366211,-0.183105,-0.061035
2179924041,0.00210571,-0.00070190,-1.00563049,0.366211,0.000000,0.000000
2184916541,0.00283813,0.00001526,-1.00392151,0.244141,0.061035,0.000000
2189922250,0.00296021,0.00114441,-1.00436401,0.244141,0.000000,-0.061035
2194889625,0.00294495,0.00224304,-1.00605774,0.244141,-0.122070,0.000000
2199914583,0.00315857,0.00311279,-1.00547791,0.244141,-0.061035,-0.061035
2204932125,0.00357056,0.00408936,-1.00416565,0.427246,0.000000,0.000000
2209929125,0.00404358,0.00518799,-1.00483704,0.305176,0.000000,-0.061035
2214963000,0.00437927,0.00601196,-1.00547791,0.366211,0.061035,0.000000
2219945458,0.00434875,0.00637817,-1.00453186,0.244141,0.000000,-0.122070
2224928541,0.00379944,0.00642395,-1.00366211,0.427246,0.061035,0.000000
2229929916,0.00282288,0.00634766,-1.00422668,0.183105,-0.061035,0.000000
2234941791,0.00199890,0.00590515,-1.00611877,0.244141,0.000000,0.061035
2239913208,0.00166321,0.00520325,-1.00679016,0.244141,0.061035,0.000000
2244931083,0.00129700,0.00476074,-1.00572205,0.305176,0.061035,-0.061035
2249909208,0.00076294,0.00430298,-1.00526428,0.427246,0.122070,-0.061035
2254952583,0.00045776,0.00349426,-1.00546265,0.244141,0.061035,-0.061035
2260000416,0.00070190,0.00265503,-1.00505066,0.244141,0.000000,-0.061035
2264918958,0.00132751,0.00195312,-1.00453186,0.122070,0.122070,-0.244141
2269980416,0.00192261,0.00126648,-1.00488281,0.427246,0.000000,0.061035
2274934125,0.00244141,0.00090027,-1.00576782,0.366211,0.061035,-0.183105
2279940875,0.00283813,0.00079346,-1.00575256,0.366211,0.061035,0.061035
2284939875,0.00285339,0.00062561,-1.00523376,0.366211,-0.061035,-0.061035
2289908125,0.00257874,0.00048828,-1.00527954,0.305176,-0.061035,0.000000
2294958333,0.00245667,0.00061035,-1.00544739,0.366211,0.061035,0.000000
2299915458,0.00280762,0.00120544,-1.00500488,0.366211,0.061035,0.000000
2304945875,0.00343323,0.00190735,-1.00434875,0.366211,0.000000,0.000000
2309954875,0.00402832,0.00263977,-1.00456238,0.244141,0.122070,-0.122070
2314938083,0.00454712,0.00372314,-1.00553894,0.244141,0.000000,-0.122070
2319944000,0.00457764,0.00505066,-1.00584412,0.305176,0.000000,0.000000
2324912833,0.00398254,0.00605774,-1.00514221,0.305176,0.000000,0.000000
2329933208,0.00350952,0.00645447,-1.00480652,0.244141,0.000000,-0.061035
2334972375,0.00354004,0.00646973,-1.00561523,0.183105,0.000000,0.061035
2339956750,0.00340271,0.00643921,-1.00643921,0.366211,-0.061035,0.000000
2344946000,0.00265503,0.00592041,-1.00611877,0.305176,0.061035,-0.061035
2349960750,0.00180054,0.00463867,-1.00563049,0.305176,0.061035,-0.061035
2354961000,0.00125122,0.00300598,-1.00616455,0.366211,0.000000,0.000000
2359972875,0.00071716,0.00189209,-1.00654602,0.244141,0.061035,0.000000
2364982541,0.00000000,0.00140381,-1.00553894,0.305176,-0.061035,0.000000
2369977041,-0.00044250,0.00093079,-1.00471497,0.366211,0.000000,-0.061035
2374962000,-0.00019836,0.00065613,-1.00576782,0.427246,-0.061035,0.000000
2380002041,0.00079346,0.00082397,-1.00735474,0.122070,0.000000,-0.061035
2384965375,0.00216675,0.00129700,-1.00740051,0.366211,0.183105,0.061035
2389971708,0.00300598,0.00187683,-1.00624084,0.366211,0.000000,0.000000
2394979541,0.00311279,0.00267029,-1.00566101,0.244141,0.000000,-0.061035
2399954000,0.00315857,0.00382996,-1.00607300,0.427246,0.000000,-0.122070
2404951750,0.00370789,0.00509644,-1.00631714,0.488281,0.122070,-0.122070
2409986833,0.00448608,0.00578308,-1.00575256,0.305176,0.122070,-0.183105
2415013500,0.00483704,0.00558472,-1.00529480,0.244141,0.000000,-0.122070
2419994708,0.00463867,0.00491333,-1.00587463,0.366211,-0.061035,-0.061035
2424964291,0.00424194,0.00440979,-1.00668335,0.366211,0.000000,-0.122070
2429999541,0.00384521,0.00428772,-1.00640869,0.305176,0.061035,-0.183105
2434963166,0.00357056,0.00425720,-1.00575256,0.366211,0.061035,0.000000
2440007083,0.00346375,0.00407410,-1.00581360,0.366211,-0.061035,0.061035
2444977750,0.00317383,0.00401306,-1.00622559,0.305176,0.000000,-0.061035
2449993791,0.00239563,0.00402832,-1.00617981,0.244141,0.122070,0.000000
2455005666,0.00144958,0.00379944,-1.00556946,0.366211,0.000000,-0.061035
2459954666,0.00100708,0.00320435,-1.00526428,0.366211,0.061035,-0.122070
2464953625,0.00090027,0.00242615,-1.00559998,0.244141,-0.061035,-0.061035
2470021083,0.00042725,0.00169373,-1.00585938,0.061035,-0.061035,-0.122070
2474991208,0.00001526,0.00117493,-1.00563049,0.305176,0.000000,-0.061035
2479982708,0.00028992,0.00111389,-1.00523376,0.244141,0.000000,-0.122070
2484988458,0.00115967,0.00134277,-1.00517273,0.183105,0.000000,-0.122070
2490015375,0.00221252,0.00152588,-1.00521851,0.305176,0.061035,-0.061035
2494978208,0.00282288,0.00186157,-1.00502014,0.122070,0.061035,-0.183105
2499989041,0.00273132,0.00248718,-1.00503540,0.366211,0.000000,-0.061035
2505027375,0.00250244,0.00314331,-1.00566101,0.366211,0.000000,0.000000
2510009541,0.00286865,0.00398254,-1.00621033,0.244141,0.061035,-0.122070
2514990208,0.00396729,0.00521851,-1.00587463,0.244141,-0.061035,0.000000
2520084125,0.00482178,0.00637817,-1.00500488,0.427246,-0.061035,-0.061035
2525010000,0.00483704,0.00709534,-1.00503540,0.366211,0.000000,-0.061035
2530012625,0.00450134,0.00717163,-1.00605774,0.427246,-0.183105,0.000000
2535007833,0.00453186,0.00660706,-1.00662231,0.305176,0.000000,-0.061035
2539991791,0.00436401,0.00573730,-1.00616455,0.244141,0.122070,-0.061035
2545010125,0.00341797,0.00495911,-1.00531006,0.305176,0.061035,-0.122070
2549996416,0.00224304,0.00413513,-1.00502014,0.244141,0.061035,0.000000
2555003583,0.00149536,0.00296021,-1.00552368,0.244141,-0.061035,-0.061035
2560007541,0.00132751,0.00143433,-1.00604248,0.366211,0.122070,-0.061035
2564937958,0.00137329,-0.00010681,-1.00595093,0.183105,0.000000,-0.061035
2570025833,0.00126648,-0.00068665,-1.00555420,0.488281,0.061035,-0.061035
2575006625,0.00109863,0.00010681,-1.00534058,0.305176,0.061035,-0.122070
2580035875,0.00132751,0.00149536,-1.00561523,0.305176,0.061035,-0.122070
2585054833,0.00213623,0.00244141,-1.00543213,0.366211,0.061035,-0.183105
2590022625,0.00311279,0.00297546,-1.00517273,0.244141,0.061035,-0.122070
2595035291,0.00378418,0.00386047,-1.00605774,0.366211,0.183105,-0.061035
2600017083,0.00421143,0.00505066,-1.00680542,0.366211,0.122070,0.000000
2605044000,0.00434875,0.00598145,-1.00633240,0.366211,0.061035,0.000000
2610029708,0.00395203,0.00651550,-1.00546265,0.244141,-0.061035,-0.061035
2615008708,0.00343323,0.00662231,-1.00503540,0.122070,0.061035,0.000000
2620044958,0.00340271,0.00622559,-1.00543213,0.122070,0.000000,-0.183105
2625106541,0.00341797,0.00561523,-1.00650024,0.427246,0.122070,-0.061035
2630062916,0.00302124,0.00512695,-1.00674438,0.488281,0.000000,0.000000
2635017541,0.00251770,0.00469971,-1.00587463,0.366211,-0.061035,-0.061035
2640033875,0.00239563,0.00439453,-1.00576782,0.488281,-0.061035,-0.061035
2645025416,0.00267029,0.00425720,-1.00645447,0.427246,-0.061035,0.061035
2650062041,0.00311279,0.00389099,-1.00619507,0.366211,-0.061035,-0.061035
2655029416,0.00334167,0.00305176,-1.00524902,0.305176,0.122070,0.000000
2660037041,0.00305176,0.00196838,-1.00541687,0.366211,-0.122070,-0.183105
2665140458,0.00251770,0.00102234,-1.00662231,0.305176,0.183105,-0.122070
2670070250,0.00201416,0.00038147,-1.00666809,0.427246,-0.061035,-0.122070
2675055166,0.00148010,-0.00019836,-1.00514221,0.183105,-0.061035,-0.183105
2680009333,0.00096130,-0.00062561,-1.00434875,0.366211,0.000000,-0.061035
2685075750,0.00080872,-0.00041199,-1.00523376,0.244141,-0.122070,-0.183105
2690048958,0.00094604,0.00028992,-1.00617981,0.244141,-0.122070,-0.183105
2695055750,0.00106812,0.00112915,-1.00607300,0.305176,0.000000,-0.061035
2700019666,0.00135803,0.00195312,-1.00563049,0.244141,-0.061035,-0.061035
2705018791,0.00198364,0.00320435,-1.00575256,0.366211,0.000000,0.000000
2710066333,0.00297546,0.00518799,-1.00616455,0.366211,-0.061035,-0.122070
2715016375,0.00411987,0.00738525,-1.00611877,0.427246,-0.061035,-0.061035
2720069291,0.00517273,0.00886536,-1.00569153,0.305176,0.000000,0.000000
2725061708,0.00549316,0.00900269,-1.00559998,0.305176,-0.122070,-0.061035
2730095625,0.00476074,0.00827026,-1.00602722,0.427246,0.061035,-0.122070
2735059208,0.00370789,0.00762939,-1.00624084,0.366211,0.061035,-0.122070
2740058041,0.00305176,0.00688171,-1.00573730,0.366211,0.000000,-0.061035
2745031875,0.00280762,0.00537109,-1.00518799,0.244141,0.061035,-0.183105
2750057958,0.00254822,0.00338745,-1.00526428,0.244141,-0.122070,-0.061035
2755098958,0.00204468,0.00183105,-1.00544739,0.427246,-0.061035,-0.061035
2760089666,0.00155640,0.00112915,-1.00532532,0.366211,-0.061035,-0.061035
2765069458,0.00155640,0.00059509,-1.00524902,0.305176,0.061035,0.000000
2770083375,0.00205994,-0.00010681,-1.00537109,0.305176,0.061035,0.000000
2775049291,0.00244141,-0.00051880,-1.00584412,0.244141,0.000000,0.000000
2780051458,0.00238037,-0.00030518,-1.00648499,0.366211,0.061035,-0.061035
2785074375,0.00205994,0.00051880,-1.00642395,0.366211,0.000000,-0.122070
2790056000,0.00193787,0.00161743,-1.00553894,0.183105,0.061035,-0.061035
2795063166,0.00230408,0.00263977,-1.00509644,0.244141,0.122070,0.000000
2800090250,0.00300598,0.00332642,-1.00569153,0.366211,0.061035,-0.061035
2805139333,0.00323486,0.00363159,-1.00595093,0.366211,0.000000,-0.061035
2810112083,0.00285339,0.00398254,-1.00509644,0.244141,0.122070,0.000000
2815134583,0.00265503,0.00454712,-1.00437927,0.244141,-0.061035,0.061035
2820077583,0.00280762,0.00497437,-1.00468445,0.366211,0.183105,0.000000
2825089666,0.00288391,0.00521851,-1.00550842,0.488281,0.061035,-0.122070
2830081833,0.00260925,0.00541687,-1.00607300,0.183105,0.000000,-0.183105
2835073791,0.00244141,0.00564575,-1.00630188,0.366211,0.061035,-0.061035
2840058000,0.00312805,0.00584412,-1.00627136,0.305176,0.000000,-0.122070
2845108583,0.00399780,0.00579834,-1.00585938,0.305176,-0.061035,-0.122070
2850062833,0.00415039,0.00526428,-1.00521851,0.305176,-0.061035,-0.183105
2855091750,0.00370789,0.00421143,-1.00473022,0.427246,0.000000,0.061035
2860061791,0.00309753,0.00314331,-1.00468445,0.305176,0.061035,0.061035
2865092208,0.00250244,0.00245667,-1.00500488,0.305176,0.061035,0.061035
2870130791,0.00198364,0.00195312,-1.00511169,0.305176,0.000000,-0.061035
2875113125,0.00137329,0.00135803,-1.00480652,0.305176,0.000000,-0.061035
2880068500,0.00067139,0.00064087,-1.00450134,0.244141,0.061035,0.000000
2885111000,0.00050354,-0.00006104,-1.00491333,0.366211,0.122070,0.061035
2890113666,0.00108337,-0.00033569,-1.00573730,0.305176,-0.122070,-0.061035
2895086458,0.00196838,0.00012207,-1.00578308,0.366211,0.061035,-0.061035
2900091750,0.00257874,0.00117493,-1.00508118,0.244141,0.061035,-0.061035
2905092750,0.00286865,0.00247192,-1.00491333,0.305176,-0.061035,0.000000
2910124166,0.00305176,0.00389099,-1.00535583,0.427246,-0.061035,0.061035
2915076541,0.00325012,0.00506592,-1.00531006,0.244141,0.061035,-0.122070
2920130833,0.00329590,0.00572205,-1.00473022,0.244141,0.000000,-0.183105
2925121958,0.00320435,0.00617981,-1.00444031,0.183105,-0.061035,-0.061035
2930109916,0.00332642,0.00640869,-1.00492859,0.305176,0.000000,-0.122070
2935153125,0.00366211,0.00604248,-1.00572205,0.244141,0.061035,-0.122070
2940140458,0.00399780,0.00541687,-1.00564575,0.305176,0.061035,-0.061035
2945119833,0.00415039,0.00479126,-1.00503540,0.244141,0.122070,-0.061035
2950088208,0.00372314,0.00407410,-1.00524902,0.488281,0.000000,0.000000
2955135291,0.00299072,0.00337219,-1.00581360,0.366211,0.122070,-0.061035
2960099791,0.00270081,0.00286865,-1.00587463,0.305176,0.061035,-0.061035
2965068583,0.00273132,0.00256348,-1.00567627,0.244141,-0.061035,-0.061035
2970127083,0.00260925,0.00241089,-1.00546265,0.305176,0.122070,-0.183105
2975168000,0.00230408,0.00239563,-1.00541687,0.244141,-0.061035,-0.061035
2980095500,0.00201416,0.00239563,-1.00572205,0.244141,0.000000,0.000000
2985112375,0.00184631,0.00213623,-1.00617981,0.305176,-0.122070,-0.061035
2990126041,0.00164795,0.00170898,-1.00637817,0.305176,0.061035,-0.183105
2995127000,0.00148010,0.00177002,-1.00613403,0.305176,0.122070,0.000000
3000103333,0.00157166,0.00257874,-1.00570679,0.244141,0.122070,-0.122070
3005129500,0.00190735,0.00302124,-1.00534058,0.244141,0.061035,-0.061035
3010132708,0.00195312,0.00247192,-1.00529480,0.427246,-0.061035,-0.061035
3015144375,0.00170898,0.00216675,-1.00575256,0.244141,0.000000,0.000000
3020123125,0.00189209,0.00285339,-1.00639343,0.244141,0.061035,0.061035
3025120041,0.00277710,0.00389099,-1.00642395,0.305176,0.000000,0.000000
3030117041,0.00389099,0.00463867,-1.00566101,0.183105,0.061035,-0.122070
3035179791,0.00448608,0.00492859,-1.00521851,0.244141,0.061035,-0.122070
3040183541,0.00442505,0.00492859,-1.00564575,0.244141,0.000000,-0.122070
3045136666,0.00370789,0.00488281,-1.00622559,0.305176,-0.061035,-0.061035
3050122583,0.00283813,0.00485229,-1.00622559,0.244141,-0.061035,0.000000
3055119416,0.00259399,0.00483704,-1.00614929,0.183105,0.061035,-0.122070
3060151041,0.00267029,0.00453186,-1.00657654,0.366211,0.000000,-0.244141
3065128041,0.00248718,0.00363159,-1.00718689,0.305176,0.122070,-0.061035
3070137875,0.00219727,0.00230408,-1.00686646,0.305176,0.000000,-0.061035
3075133916,0.00221252,0.00135803,-1.00566101,0.305176,0.000000,-0.061035
3080125875,0.00219727,0.00140381,-1.00488281,0.305176,0.000000,-0.061035
3085129458,0.00189209,0.00198364,-1.00556946,0.427246,0.000000,-0.061035
3090133750,0.00192261,0.00254822,-1.00656128,0.366211,0.061035,0.000000
3095143458,0.00251770,0.00294495,-1.00610352,0.305176,0.061035,0.061035
3100153458,0.00299072,0.00325012,-1.00529480,0.305176,0.000000,-0.061035
3105191000,0.00263977,0.00347900,-1.00563049,0.427246,-0.061035,0.000000
3110150000,0.00166321,0.00382996,-1.00617981,0.366211,0.061035,-0.061035
3115149250,0.00112915,0.00444031,-1.00596619,0.427246,0.061035,0.061035
3120145708,0.00190735,0.00506592,-1.00555420,0.305176,0.000000,0.000000
3125144916,0.00335693,0.00538635,-1.00561523,0.488281,0.000000,-0.061035
3130141375,0.00399780,0.00523376,-1.00598145,0.366211,0.122070,-0.122070
3135148875,0.00370789,0.00471497,-1.00628662,0.305176,0.061035,0.061035
3140156750,0.00334167,0.00418091,-1.00602722,0.427246,0.061035,-0.061035
3145148791,0.00326538,0.00369263,-1.00538635,0.366211,0.000000,0.000000
3150167916,0.00331116,0.00321960,-1.00538635,0.244141,0.000000,0.000000
3155162291,0.00309753,0.00311279,-1.00616455,0.244141,0.061035,-0.061035
3160183166,0.00279236,0.00350952,-1.00648499,0.122070,0.122070,-0.122070
3165163666,0.00251770,0.00398254,-1.00593567,0.244141,-0.061035,0.000000
3170161541,0.00215149,0.00413513,-1.00534058,0.244141,0.000000,0.000000
3175171125,0.00199890,0.00384521,-1.00526428,0.427246,0.000000,-0.183105
3180178208,0.00224304,0.00360107,-1.00555420,0.488281,0.000000,-0.061035
3185165750,0.00256348,0.00360107,-1.00584412,0.427246,0.122070,0.000000
3190202333,0.00236511,0.00338745,-1.00590515,0.366211,-0.061035,-0.061035
3195165000,0.00157166,0.00314331,-1.00570679,0.366211,0.122070,0.000000
3200182541,0.00128174,0.00317383,-1.00563049,0.244141,0.000000,-0.122070
3205172416,0.00196838,0.00314331,-1.00596619,0.122070,-0.122070,0.000000
3210187958,0.00305176,0.00317383,-1.00611877,0.244141,0.000000,-0.122070
3215172375,0.00347900,0.00347900,-1.00546265,0.244141,0.000000,-0.061035
3220178833,0.00302124,0.00363159,-1.00483704,0.244141,0.000000,0.000000
3225178875,0.00268555,0.00355530,-1.00526428,0.244141,0.183105,-0.183105
3230187916,0.00291443,0.00364685,-1.00601196,0.244141,0.061035,0.000000
3235179958,0.00355530,0.00384521,-1.00598145,0.244141,0.000000,-0.061035
3240244291,0.00418091,0.00387573,-1.00537109,0.366211,0.061035,-0.122070
3245217000,0.00419617,0.00366211,-1.00514221,0.366211,-0.061035,-0.061035
3250210583,0.00373840,0.00352478,-1.00558472,0.305176,-0.061035,-0.061035
3255222583,0.00354004,0.00341797,-1.00613403,0.366211,0.061035,-0.061035
3260204041,0.00331116,0.00294495,-1.00578308,0.427246,0.061035,0.061035
3265188500,0.00260925,0.00251770,-1.00482178,0.366211,-0.061035,-0.061035
3270216541,0.00190735,0.00245667,-1.00485229,0.305176,0.000000,-0.122070
3275212125,0.00157166,0.00251770,-1.00564575,0.305176,-0.122070,0.061035
3280171208,0.00163269,0.00271606,-1.00569153,0.305176,0.061035,0.000000
3285219208,0.00184631,0.00306702,-1.00549316,0.122070,0.000000,-0.183105
3290194333,0.00184631,0.00318909,-1.00593567,0.427246,0.061035,-0.244141
3295186000,0.00167847,0.00335693,-1.00624084,0.183105,0.000000,-0.061035
3300190541,0.00160217,0.00396729,-1.00564575,0.366211,-0.061035,-0.061035
3305175916,0.00154114,0.00465393,-1.00480652,0.305176,0.061035,-0.122070
3310220458,0.00146484,0.00479126,-1.00427246,0.122070,0.122070,-0.061035
3315209791,0.00155640,0.00390625,-1.00247192,0.244141,-0.244141,-0.061035
3320187791,0.00215149,0.00317383,-1.00579834,0.488281,0.061035,-0.122070
3325187708,0.00312805,0.00364685,-1.01454163,0.366211,-0.061035,-0.183105
3330211125,0.00378418,0.00392151,-1.00631714,0.305176,0.061035,-0.122070
3335227958,0.00407410,0.00364685,-0.99435425,0.366211,0.061035,0.000000
3340227875,0.00401306,0.00314331,-1.00128174,0.061035,0.122070,-0.061035
3345201541,0.00344849,0.00273132,-1.01345825,0.732422,0.061035,0.000000
3350221833,0.00277710,0.00273132,-1.01156616,0.000000,-0.183105,-0.061035
3355236041,0.00227356,0.00308228,-0.99909973,0.366211,0.061035,0.000000
3360215666,0.00216675,0.00389099,-0.99859619,0.488281,0.000000,0.122070
3365231375,0.00224304,0.00460815,-1.00866699,0.244141,0.000000,0.000000
3370234250,0.00234985,0.00450134,-1.01057434,0.366211,-0.061035,-0.061035
3375247916,0.00236511,0.00411987,-1.00515747,0.183105,0.000000,-0.183105
3380237791,0.00198364,0.00419617,-1.00396729,0.366211,0.000000,0.000000
3385228041,0.00129700,0.00416565,-1.00552368,0.305176,0.000000,-0.061035
3390243333,0.00106812,0.00332642,-1.00665283,0.305176,0.061035,-0.122070
3395274500,0.00129700,0.00219727,-1.00633240,0.305176,0.122070,-0.061035
3400231125,0.00141907,0.00129700,-1.00463867,0.366211,0.061035,-0.061035
3405214916,0.00161743,0.00090027,-1.00526428,0.244141,0.000000,-0.061035
3410230125,0.00198364,0.00097656,-1.00614929,0.366211,0.061035,0.061035
3415224916,0.00260925,0.00169373,-1.00627136,0.366211,0.122070,-0.244141
3420238333,0.00337219,0.00300598,-1.00631714,0.122070,0.000000,-0.061035
3425199083,0.00373840,0.00413513,-1.00494385,0.244141,0.000000,0.000000
3430256416,0.00407410,0.00459290,-1.00477600,0.183105,0.061035,0.061035
3435229583,0.00463867,0.00477600,-1.00625610,0.427246,0.061035,-0.061035
3440203583,0.00521851,0.00512695,-1.00636292,0.366211,-0.061035,-0.183105
3445216416,0.00547791,0.00538635,-1.00610352,0.305176,0.000000,-0.061035
3450241041,0.00497437,0.00535583,-1.00593567,0.427246,0.061035,0.000000
3455273250,0.00392151,0.00489807,-1.00598145,0.305176,0.122070,0.000000
3460256833,0.00273132,0.00405884,-1.00616455,0.183105,0.000000,-0.122070
3465261833,0.00157166,0.00323486,-1.00572205,0.366211,0.061035,-0.061035
3470268208,0.00059509,0.00277710,-1.00573730,0.305176,-0.122070,-0.061035
3475269500,-0.00001526,0.00242615,-1.00556946,0.366211,0.000000,-0.122070
3480233916,-0.00033569,0.00207520,-1.00486755,0.305176,0.000000,-0.061035
3485273083,-0.00028992,0.00212097,-1.00488281,0.122070,0.000000,0.061035
3490258291,0.00025940,0.00276184,-1.00515747,0.305176,-0.244141,0.000000
3495263500,0.00091553,0.00381470,-1.00569153,0.244141,-0.122070,-0.061035
3500341625,0.00144958,0.00445557,-1.00582886,0.366211,0.122070,0.122070
3505258041,0.00227356,0.00424194,-1.00494385,0.366211,0.000000,-0.061035
3510250958,0.00346375,0.00393677,-1.00506592,0.427246,0.183105,-0.061035
3515253083,0.00468445,0.00401306,-1.00593567,0.244141,0.061035,0.061035
3520283583,0.00537109,0.00363159,-1.00553894,0.549316,0.000000,0.000000
3525279041,0.00526428,0.00286865,-1.00706482,0.366211,0.122070,0.000000
3530255750,0.00486755,0.00233459,-1.00753784,0.183105,0.000000,0.122070
3535260250,0.00445557,0.00202942,-1.00511169,0.976562,0.000000,0.000000
3540284000,0.00378418,0.00201416,-1.00372314,-0.305176,0.000000,0.061035
3545286125,0.00320435,0.00233459,-1.00196838,0.427246,0.061035,0.061035
3550294041,0.00340271,0.00317383,-1.00807190,0.793457,0.061035,-0.122070
3555251666,0.00424194,0.00381470,-1.01069641,-0.061035,0.183105,-0.122070
3560296375,0.00477600,0.00376892,-0.99978638,0.732422,-0.122070,-0.061035
3565275041,0.00466919,0.00364685,-0.99974060,0.000000,-0.122070,0.000000
3570326458,0.00399780,0.00320435,-1.00769043,0.244141,0.122070,0.000000
3575266958,0.00279236,0.00245667,-1.00965881,0.366211,0.000000,-0.122070
3580311416,0.00114441,0.00152588,-1.00651550,0.244141,-0.183105,-0.122070
3585289583,-0.00024414,0.00044250,-1.00085449,0.427246,0.061035,-0.122070
3590272666,-0.00068665,0.00001526,-1.00407410,0.183105,0.061035,0.000000
3595255625,-0.00050354,0.00013733,-1.01074219,0.366211,0.061035,0.061035
3600291291,-0.00033569,0.00062561,-1.00820923,0.366211,-0.061035,0.000000
3605275500,0.00000000,0.00189209,-1.00270081,0.305176,0.183105,0.000000
3610291458,0.00071716,0.00378418,-1.00247192,0.244141,0.061035,-0.061035
3615261125,0.00178528,0.00598145,-1.00724792,0.183105,0.000000,0.000000
3620319000,0.00296021,0.00788879,-1.00961304,0.244141,-0.061035,-0.061035
3625291958,0.00410461,0.00885010,-1.00598145,0.427246,0.122070,-0.061035
3630298291,0.00497437,0.00895691,-1.00302124,0.122070,0.061035,-0.061035
3635292375,0.00563049,0.00860596,-1.00416565,0.244141,0.061035,-0.122070
3640306166,0.00595093,0.00744629,-1.00634766,0.183105,0.061035,0.000000
3645273083,0.00550842,0.00515747,-1.00634766,0.244141,0.122070,0.000000
3650287916,0.00463867,0.00248718,-1.00447083,0.366211,0.000000,0.000000
3655295750,0.00389099,0.00041199,-1.00411987,0.305176,0.061035,0.061035
3660301500,0.00361633,-0.00102234,-1.00631714,0.366211,0.122070,-0.122070
3665308416,0.00366211,-0.00213623,-1.00755310,0.305176,0.061035,-0.061035
3670309750,0.00363159,-0.00234985,-1.00642395,0.244141,0.000000,0.061035
3675286833,0.00350952,-0.00114441,-1.00537109,0.366211,0.061035,0.061035
3680287125,0.00309753,0.00067139,-1.00541687,0.427246,0.000000,0.061035
3685314833,0.00247192,0.00227356,-1.00621033,0.427246,-0.061035,-0.183105
3690300125,0.00193787,0.00325012,-1.00608826,0.427246,0.061035,-0.061035
3695273916,0.00155640,0.00366211,-1.00515747,0.488281,0.000000,-0.183105
3700295375,0.00140381,0.00396729,-1.00595093,0.427246,0.061035,-0.061035
3705401125,0.00125122,0.00444031,-1.00654602,0.366211,0.061035,0.061035
3710329291,0.00093079,0.00494385,-1.00572205,0.244141,-0.061035,-0.122070
3715318083,0.00094604,0.00503540,-1.00559998,0.244141,0.061035,-0.122070
3720330833,0.00149536,0.00444031,-1.00563049,0.183105,-0.061035,-0.061035
3725319041,0.00224304,0.00369263,-1.00559998,0.305176,0.000000,0.000000
3730344375,0.00306702,0.00366211,-1.00564575,0.305176,0.061035,0.000000
3735335916,0.00401306,0.00407410,-1.00584412,0.366211,0.122070,0.061035
3740297750,0.00479126,0.00433350,-1.00625610,0.244141,0.061035,0.061035
3745341500,0.00531006,0.00431824,-1.00564575,0.366211,0.000000,0.000000
3750349916,0.00582886,0.00437927,-1.00543213,0.305176,0.000000,0.000000
3755347416,0.00621033,0.00466919,-1.00595093,0.244141,0.061035,-0.122070
3760322375,0.00601196,0.00473022,-1.00553894,0.244141,0.061035,-0.122070
3765353583,0.00541687,0.00419617,-1.00535583,0.366211,0.000000,-0.122070
3770356875,0.00488281,0.00308228,-1.00534058,0.366211,-0.061035,-0.061035
3775341666,0.00428772,0.00164795,-1.00500488,0.244141,0.122070,-0.183105
3780303625,0.00317383,0.00054932,-1.00497437,0.366211,0.000000,-0.061035
3785309916,0.00154114,-0.00003052,-1.00518799,0.183105,0.000000,0.061035
3790317875,0.00016785,-0.00038147,-1.00540161,0.183105,0.061035,0.122070
3795344541,-0.00038147,-0.00045776,-1.00508118,0.244141,0.000000,-0.122070
3800356708,-0.00024414,0.00006104,-1.00523376,0.488281,0.000000,0.000000
3805389625,0.00013733,0.00148010,-1.00656128,0.244141,0.061035,-0.061035
3810384916,0.00070190,0.00344849,-1.00677490,0.305176,0.000000,0.000000
3815347000,0.00154114,0.00529480,-1.00584412,0.244141,0.122070,-0.061035
3820327416,0.00228882,0.00660706,-1.00534058,0.244141,0.000000,-0.122070
3825356333,0.00260925,0.00740051,-1.00538635,0.366211,0.122070,-0.122070
3830346083,0.00283813,0.00753784,-1.00582886,0.305176,0.244141,-0.061035
3835356250,0.00335693,0.00694275,-1.00578308,0.244141,0.122070,-0.122070
3840366375,0.00396729,0.00596619,-1.00543213,0.244141,-0.061035,-0.061035
3845330875,0.00407410,0.00491333,-1.00581360,0.244141,0.061035,0.000000
3850367458,0.00370789,0.00369263,-1.00636292,0.366211,0.000000,-0.061035
3855363125,0.00334167,0.00251770,-1.00634766,0.305176,0.122070,-0.122070
3860436125,0.00306702,0.00164795,-1.00544739,0.427246,0.000000,0.061035
3865342458,0.00299072,0.00122070,-1.00482178,0.305176,0.061035,-0.122070
3870409791,0.00334167,0.00138855,-1.00584412,0.427246,0.000000,-0.061035
3875355625,0.00398254,0.00207520,-1.00712585,0.366211,-0.061035,-0.122070
3880355458,0.00418091,0.00292969,-1.00737000,0.366211,0.061035,-0.122070
3885385166,0.00393677,0.00344849,-1.00682068,0.244141,0.000000,-0.122070
3890392041,0.00341797,0.00355530,-1.00596619,0.366211,0.000000,-0.122070
3895377708,0.00260925,0.00361633,-1.00569153,0.305176,-0.061035,-0.061035
3900356375,0.00141907,0.00361633,-1.00575256,0.305176,0.000000,-0.061035
3905388416,0.00032043,0.00314331,-1.00532532,0.366211,0.000000,0.000000
3910391166,0.00012207,0.00251770,-1.00479126,0.244141,0.000000,-0.061035
3915346000,0.00064087,0.00202942,-1.00508118,0.305176,0.122070,-0.122070
3920390083,0.00091553,0.00169373,-1.00581360,0.183105,-0.122070,-0.061035
3925385958,0.00071716,0.00199890,-1.00543213,0.305176,0.061035,0.061035
3930373250,0.00105286,0.00286865,-1.00447083,0.366211,0.061035,-0.122070
3935380625,0.00225830,0.00364685,-1.00502014,0.183105,0.122070,0.000000
3940354208,0.00366211,0.00405884,-1.00633240,0.305176,0.000000,0.000000
3945376333,0.00448608,0.00456238,-1.00648499,0.366211,0.122070,-0.122070
3950375083,0.00474548,0.00543213,-1.00564575,0.244141,-0.061035,-0.183105
3955404416,0.00471497,0.00611877,-1.00526428,0.244141,0.061035,-0.122070
3960386708,0.00459290,0.00581360,-1.00587463,0.305176,-0.122070,-0.183105
3965440875,0.00465393,0.00450134,-1.00619507,0.366211,-0.061035,0.000000
3970435333,0.00450134,0.00312805,-1.00585938,0.305176,-0.061035,-0.122070
3975401041,0.00384521,0.00213623,-1.00567627,0.305176,0.000000,-0.122070
3980351875,0.00325012,0.00105286,-1.00576782,0.305176,0.061035,-0.122070
3985410916,0.00273132,0.00016785,-1.00631714,0.305176,-0.122070,0.000000
3990413375,0.00199890,0.00010681,-1.00679016,0.244141,-0.061035,0.000000
3995420250,0.00154114,0.00086975,-1.00624084,0.244141,0.061035,0.000000
4000375583,0.00166321,0.00181580,-1.00592041,0.305176,-0.061035,-0.061035
4005411208,0.00195312,0.00271606,-1.00668335,0.488281,0.183105,0.000000
4010411125,0.00228882,0.00389099,-1.00666809,0.244141,0.000000,-0.061035
4015373583,0.00262451,0.00529480,-1.00508118,0.305176,0.122070,-0.122070
4020398458,0.00262451,0.00631714,-1.00396729,0.366211,-0.061035,-0.183105
4025404708,0.00227356,0.00633240,-1.00486755,0.244141,0.061035,-0.061035
4030397708,0.00166321,0.00546265,-1.00631714,0.427246,0.122070,0.000000
4035399375,0.00132751,0.00454712,-1.00646973,0.305176,0.183105,-0.061035
4040386625,0.00187683,0.00410461,-1.00558472,0.366211,0.000000,-0.122070
4045375708,0.00271606,0.00364685,-1.00488281,0.244141,0.122070,-0.061035
4050411250,0.00299072,0.00276184,-1.00520325,0.488281,0.000000,-0.061035
4055437500,0.00285339,0.00158691,-1.00608826,0.366211,0.000000,-0.061035
4060422583,0.00328064,0.00073242,-1.00608826,0.366211,0.061035,0.061035
4065405333,0.00401306,0.00111389,-1.00550842,0.366211,0.061035,0.061035
4070479916,0.00447083,0.00274658,-1.00572205,0.183105,-0.061035,-0.061035
4075425083,0.00456238,0.00431824,-1.00610352,0.305176,0.000000,-0.061035
4080384500,0.00424194,0.00447083,-1.00561523,0.183105,0.000000,-0.122070
4085429916,0.00384521,0.00358582,-1.00523376,0.366211,0.122070,0.000000
4090423166,0.00340271,0.00308228,-1.00570679,0.305176,0.061035,0.000000
4095426708,0.00263977,0.00305176,-1.00640869,0.305176,0.122070,-0.183105
4100438750,0.00170898,0.00274658,-1.00633240,0.305176,-0.061035,0.000000
4105442250,0.00091553,0.00219727,-1.00570679,0.366211,0.000000,-0.122070
4110439458,0.00053406,0.00213623,-1.00556946,0.305176,-0.061035,0.000000
4115432208,0.00062561,0.00242615,-1.00592041,0.427246,0.000000,0.000000
4120445875,0.00074768,0.00236511,-1.00601196,0.244141,0.061035,-0.122070
4125437041,0.00082397,0.00244141,-1.00564575,0.305176,-0.122070,0.000000
4130418416,0.00119019,0.00335693,-1.00523376,0.305176,0.000000,-0.122070
4135433500,0.00173950,0.00451660,-1.00566101,0.183105,0.000000,0.000000
4140400833,0.00193787,0.00509644,-1.00685120,0.183105,-0.061035,-0.061035
4145430083,0.00201416,0.00526428,-1.00732422,0.305176,0.000000,-0.122070
4150423125,0.00276184,0.00531006,-1.00630188,0.183105,0.000000,-0.183105
4155443541,0.00370789,0.00500488,-1.00527954,0.183105,0.061035,-0.061035
4160448000,0.00398254,0.00408936,-1.00559998,0.305176,0.061035,0.000000
4165450791,0.00372314,0.00302124,-1.00643921,0.244141,0.122070,-0.061035
4170446958,0.00347900,0.00210571,-1.00633240,0.305176,0.061035,-0.061035
4175456125,0.00318909,0.00128174,-1.00547791,0.183105,0.061035,-0.061035
4180406750,0.00280762,0.00071716,-1.00515747,0.488281,0.122070,-0.122070
4185436166,0.00270081,0.00076294,-1.00573730,0.305176,0.122070,-0.061035
4190441041,0.00274658,0.00148010,-1.00634766,0.244141,0.061035,-0.122070
4195408000,0.00260925,0.00230408,-1.00642395,0.305176,0.000000,-0.061035
4200437625,0.00238037,0.00289917,-1.00637817,0.244141,-0.061035,-0.061035
4205431416,0.00204468,0.00370789,-1.00695801,0.183105,0.061035,-0.061035
4210468875,0.00175476,0.00497437,-1.00730896,0.305176,0.000000,-0.061035
4215438708,0.00178528,0.00605774,-1.00617981,0.366211,0.061035,-0.061035
4220469291,0.00186157,0.00611877,-1.00483704,0.366211,0.000000,-0.183105
4225536791,0.00160217,0.00540161,-1.00526428,0.366211,-0.061035,-0.122070
4230459000,0.00100708,0.00456238,-1.00628662,0.366211,0.061035,-0.061035
4235452708,0.00054932,0.00367737,-1.00604248,0.244141,0.122070,0.061035
4240460791,0.00059509,0.00279236,-1.00514221,0.366211,0.061035,0.000000
4245497875,0.00096130,0.00209045,-1.00479126,0.244141,0.061035,0.000000
4250475708,0.00160217,0.00170898,-1.00529480,0.427246,0.122070,0.061035
4255505416,0.00248718,0.00172424,-1.00602722,0.183105,-0.061035,-0.061035
4260417833,0.00323486,0.00209045,-1.00602722,0.305176,-0.122070,0.061035
4265456791,0.00357056,0.00263977,-1.00543213,0.244141,0.000000,-0.061035
4270520375,0.00375366,0.00279236,-1.00559998,0.244141,-0.061035,0.000000
4275478416,0.00407410,0.00254822,-1.00657654,0.244141,0.061035,0.061035
4280440250,0.00453186,0.00265503,-1.00651550,0.305176,0.061035,-0.183105
4285527916,0.00444031,0.00311279,-1.00527954,0.305176,0.000000,-0.122070
4290480083,0.00363159,0.00320435,-1.00482178,0.244141,-0.061035,-0.061035
4295460666,0.00299072,0.00270081,-1.00569153,0.305176,0.061035,0.000000
4300486416,0.00270081,0.00218201,-1.00628662,0.183105,0.122070,-0.122070
4305448916,0.00225830,0.00228882,-1.00601196,0.366211,0.061035,-0.061035
4310490333,0.00157166,0.00297546,-1.00587463,0.244141,0.000000,-0.122070
4315471625,0.00100708,0.00367737,-1.00636292,0.244141,0.122070,-0.061035
4320497125,0.00085449,0.00401306,-1.00694275,0.305176,0.061035,0.000000
4325467916,0.00094604,0.00419617,-1.00674438,0.305176,-0.061035,0.061035
4330553916,0.00117493,0.00462341,-1.00599670,0.427246,0.061035,0.000000
4335510791,0.00163269,0.00527954,-1.00555420,0.305176,0.061035,-0.183105
4340503416,0.00205994,0.00590515,-1.00556946,0.305176,0.061035,0.061035
4345515083,0.00234985,0.00621033,-1.00607300,0.427246,0.000000,-0.122070
4350483916,0.00260925,0.00564575,-1.00610352,0.366211,-0.061035,-0.183105
4355521916,0.00279236,0.00424194,-1.00541687,0.366211,0.122070,0.000000
4360509666,0.00270081,0.00265503,-1.00518799,0.122070,-0.061035,-0.061035
4365486750,0.00259399,0.00138855,-1.00547791,0.244141,0.000000,-0.061035
4370522666,0.00302124,0.00080872,-1.00520325,0.305176,0.000000,0.000000
4375480583,0.00373840,0.00067139,-1.00476074,0.366211,-0.061035,0.000000
4380491625,0.00413513,0.00077820,-1.00512695,0.366211,0.000000,0.000000
4385475833,0.00419617,0.00132751,-1.00598145,0.488281,0.061035,-0.122070
4390501750,0.00389099,0.00238037,-1.00640869,0.366211,0.000000,-0.122070
4395482916,0.00363159,0.00384521,-1.00599670,0.427246,0.000000,-0.061035
4400495083,0.00350952,0.00506592,-1.00512695,0.305176,0.061035,-0.061035
4405509375,0.00311279,0.00566101,-1.00469971,0.244141,0.000000,0.000000
4410509333,0.00260925,0.00590515,-1.00517273,0.183105,0.000000,-0.061035
4415513833,0.00247192,0.00616455,-1.00552368,0.183105,0.061035,-0.122070
4420509708,0.00242615,0.00630188,-1.00509644,0.427246,0.061035,-0.061035
4425468916,0.00173950,0.00579834,-1.00502014,0.305176,-0.122070,-0.122070
4430511125,0.00064087,0.00483704,-1.00602722,0.488281,0.000000,-0.061035
4435563625,0.00000000,0.00413513,-1.00671387,0.366211,0.061035,-0.061035
4440488125,0.00007629,0.00386047,-1.00593567,0.366211,0.244141,0.000000
4445500583,0.00019836,0.00384521,-1.00483704,0.305176,0.122070,0.061035
4450521500,0.00010681,0.00378418,-1.00494385,0.305176,0.061035,0.061035
4455502708,0.00039673,0.00338745,-1.00595093,0.305176,0.061035,0.061035
4460503083,0.00144958,0.00291443,-1.00639343,0.427246,0.000000,-0.061035
4465533791,0.00288391,0.00291443,-1.00622559,0.366211,0.061035,-0.061035
4470501958,0.00384521,0.00296021,-1.00645447,0.305176,0.183105,-0.183105
4475532291,0.00407410,0.00265503,-1.00717163,0.366211,0.061035,-0.122070
4480498750,0.00395203,0.00234985,-1.00772095,0.183105,0.000000,-0.061035
4485544583,0.00386047,0.00204468,-1.00755310,0.183105,0.061035,0.000000
4490542500,0.00369263,0.00158691,-1.00669861,0.305176,0.000000,0.000000
4495539000,0.00305176,0.00117493,-1.00624084,0.427246,0.000000,-0.183105
4500508833,0.00207520,0.00131226,-1.00656128,0.366211,0.000000,0.000000
4505541500,0.00169373,0.00190735,-1.00636292,0.244141,0.000000,0.000000
4510513541,0.00170898,0.00276184,-1.00573730,0.427246,0.000000,-0.061035
4515535916,0.00122070,0.00386047,-1.00613403,0.488281,-0.061035,-0.061035
4520537541,0.00082397,0.00514221,-1.00708008,0.183105,0.000000,-0.061035
4525539458,0.00138855,0.00642395,-1.00711060,0.305176,0.000000,-0.122070
4530532125,0.00199890,0.00743103,-1.00621033,0.305176,0.122070,-0.061035
4535529541,0.00158691,0.00788879,-1.00526428,0.244141,0.061035,-0.183105
4540507166,0.00079346,0.00775146,-1.00491333,0.366211,0.000000,-0.122070
4545554166,0.00079346,0.00732422,-1.00523376,0.244141,-0.122070,-0.183105
4550540791,0.00137329,0.00646973,-1.00576782,0.305176,0.122070,-0.061035
4555504583,0.00143433,0.00508118,-1.00592041,0.305176,0.000000,0.061035
4560508083,0.00122070,0.00366211,-1.00564575,0.305176,0.061035,-0.061035
4565530125,0.00177002,0.00224304,-1.00538635,0.305176,0.000000,-0.061035
4570596875,0.00260925,0.00077820,-1.00546265,0.366211,0.061035,0.000000
4575568250,0.00280762,-0.00030518,-1.00575256,0.488281,0.000000,0.061035
4580527500,0.00268555,-0.00082397,-1.00592041,0.366211,0.061035,-0.061035
4585567708,0.00321960,-0.00073242,-1.00593567,0.366211,0.000000,0.061035
4590602083,0.00447083,-0.00006104,-1.00598145,0.366211,0.061035,-0.122070
4595557166,0.00509644,0.00083923,-1.00619507,0.244141,0.061035,-0.183105
4600551291,0.00450134,0.00148010,-1.00631714,0.305176,0.000000,-0.183105
4605543791,0.00360107,0.00199890,-1.00601196,0.305176,0.000000,-0.122070
4610527708,0.00312805,0.00260925,-1.00566101,0.488281,0.061035,-0.122070
4615536083,0.00268555,0.00291443,-1.00585938,0.305176,0.061035,0.000000
4620545958,0.00201416,0.00299072,-1.00601196,0.366211,0.061035,-0.061035
4625563666,0.00138855,0.00337219,-1.00558472,0.366211,0.000000,-0.122070
4630551666,0.00062561,0.00418091,-1.00518799,0.427246,0.122070,0.061035
4635585041,-0.00035095,0.00497437,-1.00509644,0.305176,0.000000,-0.061035
4640581166,-0.00068665,0.00526428,-1.00517273,0.305176,0.061035,-0.122070
4645580375,-0.00012207,0.00563049,-1.00550842,0.244141,0.061035,0.061035
4650564625,0.00030518,0.00640869,-1.00598145,0.305176,-0.061035,0.061035
4655531541,0.00036621,0.00708008,-1.00633240,0.305176,0.061035,-0.061035
4660533291,0.00097656,0.00695801,-1.00642395,0.366211,0.061035,-0.122070
4665564041,0.00201416,0.00581360,-1.00624084,0.305176,-0.122070,-0.061035
4670589083,0.00268555,0.00427246,-1.00593567,0.244141,0.061035,-0.122070
4675544708,0.00309753,0.00299072,-1.00556946,0.366211,-0.061035,-0.183105
4680539750,0.00338745,0.00189209,-1.00532532,0.488281,0.000000,-0.061035
4685605958,0.00363159,0.00093079,-1.00508118,0.549316,-0.061035,0.000000
4690574125,0.00399780,0.00024414,-1.00408936,0.427246,0.000000,-0.122070
4695563041,0.00421143,-0.00003052,-1.00350952,0.488281,-0.061035,0.000000
4700562500,0.00430298,0.00007629,-1.00471497,0.305176,0.000000,-0.122070
4705550333,0.00442505,0.00057983,-1.00677490,0.305176,0.000000,0.000000
4710585500,0.00418091,0.00140381,-1.00801086,0.244141,0.061035,0.000000
4715572500,0.00334167,0.00254822,-1.00830078,0.061035,0.000000,-0.183105
4720592916,0.00234985,0.00390625,-1.00836182,0.305176,0.000000,-0.183105
4725585416,0.00163269,0.00492859,-1.00752258,0.305176,-0.061035,-0.183105
4730569875,0.00106812,0.00514221,-1.00547791,0.183105,0.000000,-0.122070
4735594166,0.00042725,0.00444031,-1.00407410,0.244141,-0.061035,-0.061035
4740570750,-0.00021362,0.00297546,-1.00460815,0.061035,0.000000,0.000000
4745647083,-0.00086975,0.00148010,-1.00604248,0.366211,0.061035,-0.061035
4750604416,-0.00129700,0.00073242,-1.00634766,0.427246,0.061035,-0.122070
4755548750,-0.00109863,0.00044250,-1.00473022,0.305176,-0.061035,-0.122070
4760612166,-0.00022888,0.00016785,-1.00338745,0.366211,0.061035,-0.122070
4765593958,0.00114441,0.00019836,-1.00416565,0.305176,0.061035,-0.183105
4770649500,0.00230408,0.00105286,-1.00576782,0.427246,0.061035,0.000000
4775574833,0.00271606,0.00231934,-1.00637817,0.305176,-0.122070,-0.122070
4780615958,0.00311279,0.00305176,-1.00582886,0.305176,-0.061035,-0.122070
4785597083,0.00419617,0.00331116,-1.00529480,0.427246,0.061035,-0.061035
4790627083,0.00514221,0.00395203,-1.00588989,0.305176,0.000000,0.000000
4795610791,0.00537109,0.00511169,-1.00689697,0.427246,0.061035,-0.061035
4800648041,0.00521851,0.00605774,-1.00657654,0.366211,0.000000,-0.061035
4805593958,0.00492859,0.00622559,-1.00549316,0.366211,0.061035,-0.122070
4810625166,0.00451660,0.00599670,-1.00537109,0.488281,0.061035,-0.061035
4815644083,0.00369263,0.00593567,-1.00621033,0.305176,0.061035,0.000000
4820625791,0.00228882,0.00613403,-1.00656128,0.244141,0.061035,-0.183105
4825622500,0.00071716,0.00646973,-1.00608826,0.366211,-0.061035,0.000000
4830596291,-0.00015259,0.00646973,-1.00576782,0.488281,-0.122070,-0.183105
4835609583,-0.00044250,0.00579834,-1.00588989,0.671387,-0.244141,-0.122070
4840617625,-0.00065613,0.00480652,-1.00415039,0.244141,0.122070,-0.061035
4845590666,-0.00061035,0.00376892,-1.00090027,0.000000,0.000000,-0.183105
4850717166,0.00006104,0.00228882,-1.00376892,0.183105,0.061035,-0.122070
4855603750,0.00119019,0.00039673,-1.01298523,0.244141,0.000000,-0.122070
4860639666,0.00212097,-0.00122070,-1.01499939,0.244141,0.122070,-0.122070
4865660666,0.00280762,-0.00248718,-1.00692749,0.427246,0.122070,-0.183105
4870629458,0.00358582,-0.00366211,-1.00144958,0.244141,0.061035,-0.061035
4875649458,0.00450134,-0.00437927,-1.00306702,0.366211,0.122070,-0.061035
4880601750,0.00529480,-0.00399780,-1.00703430,0.427246,0.061035,0.061035
4885628750,0.00549316,-0.00256348,-1.00979614,0.427246,0.061035,-0.061035
4890679041,0.00515747,-0.00042725,-1.00796509,0.366211,0.000000,0.061035
4895654250,0.00500488,0.00241089,-1.00355530,0.305176,-0.061035,-0.061035
4900694041,0.00495911,0.00572205,-1.00283813,0.305176,0.000000,-0.183105
4905600083,0.00437927,0.00881958,-1.00526428,0.305176,-0.061035,-0.061035
4910641625,0.00328064,0.01138306,-1.00637817,0.427246,0.000000,-0.122070
4915632583,0.00167847,0.01330566,-1.00540161,0.427246,0.000000,-0.061035
4920649166,-0.00022888,0.01443481,-1.00486755,0.488281,0.000000,-0.122070
4925648000,-0.00152588,0.01467896,-1.00601196,0.427246,0.122070,-0.061035
4930606125,-0.00201416,0.01374817,-1.00645447,0.488281,0.000000,0.061035
4935636333,-0.00219727,0.01127625,-1.00505066,0.305176,0.122070,-0.061035
4940605666,-0.00178528,0.00762939,-1.00416565,0.305176,0.183105,0.000000
4945665166,-0.00091553,0.00364685,-1.00547791,0.183105,0.122070,0.061035
4950635583,-0.00035095,-0.00003052,-1.00729370,0.427246,0.000000,-0.061035
4955641291,-0.00004578,-0.00331116,-1.00721741,0.427246,0.061035,-0.061035
4960657291,0.00048828,-0.00601196,-1.00517273,0.366211,0.122070,-0.061035
4965651125,0.00140381,-0.00790405,-1.00415039,0.305176,0.000000,-0.061035
4970633583,0.00257874,-0.00892639,-1.00640869,0.366211,0.061035,0.000000
4975664250,0.00363159,-0.00894165,-1.00885010,0.366211,-0.061035,-0.061035
4980640000,0.00421143,-0.00778198,-1.00801086,0.366211,0.000000,-0.061035
4985658000,0.00457764,-0.00569153,-1.00607300,0.366211,0.183105,0.061035
4990654041,0.00485229,-0.00299072,-1.00567627,0.366211,0.122070,-0.183105
4995634333,0.00486755,0.00013733,-1.00628662,0.305176,0.061035,-0.122070
5000650333,0.00462341,0.00347900,-1.00628662,0.305176,0.000000,0.000000
5005715750,0.00434875,0.00682068,-1.00546265,0.366211,0.061035,0.000000
5010672166,0.00372314,0.00976562,-1.00527954,0.427246,0.122070,-0.061035
5015633208,0.00233459,0.01168823,-1.00630188,0.183105,0.122070,-0.122070
5020684166,0.00100708,0.01239014,-1.00697327,0.427246,-0.122070,-0.061035
5025671458,0.00057983,0.01231384,-1.00665283,0.305176,0.122070,-0.061035
5030666166,0.00045776,0.01185608,-1.00648499,0.366211,0.000000,0.000000
5035689583,-0.00019836,0.01095581,-1.00688171,0.366211,0.000000,0.000000
5040699583,-0.00119019,0.00952148,-1.00683594,0.366211,0.061035,0.000000
5045689458,-0.00178528,0.00758362,-1.00584412,0.427246,0.000000,0.000000
5050672708,-0.00154114,0.00517273,-1.00502014,0.305176,0.000000,-0.061035
5055679000,-0.00042725,0.00259399,-1.00572205,0.366211,0.122070,0.000000
5060643875,0.00080872,0.00028992,-1.00671387,0.366211,0.000000,-0.061035
5065664916,0.00161743,-0.00134277,-1.00630188,0.366211,0.061035,-0.122070
5070656625,0.00228882,-0.00244141,-1.00547791,0.305176,0.000000,0.061035
5075659416,0.00326538,-0.00338745,-1.00570679,0.305176,0.000000,-0.061035
5080666375,0.00431824,-0.00386047,-1.00650024,0.305176,-0.061035,-0.183105
5085671500,0.00521851,-0.00317383,-1.00672913,0.488281,0.061035,-0.122070
5090672208,0.00592041,-0.00137329,-1.00610352,0.183105,-0.061035,-0.122070
5095647833,0.00630188,0.00032043,-1.00546265,0.244141,0.061035,0.000000
5100659500,0.00614929,0.00152588,-1.00544739,0.305176,0.061035,0.000000
5105669791,0.00534058,0.00328064,-1.00592041,0.305176,0.000000,0.000000
5110674541,0.00433350,0.00572205,-1.00593567,0.305176,0.061035,0.000000
5115722666,0.00334167,0.00802612,-1.00535583,0.122070,-0.061035,-0.122070
5120684625,0.00245667,0.00950623,-1.00512695,0.183105,0.000000,0.000000
5125677625,0.00192261,0.00997925,-1.00566101,0.244141,0.000000,-0.061035
5130687208,0.00157166,0.00985718,-1.00569153,0.244141,0.061035,-0.061035
5135690375,0.00059509,0.00949097,-1.00494385,0.366211,-0.061035,-0.061035
5140697416,-0.00080872,0.00856018,-1.00518799,0.244141,0.000000,0.061035
5145659375,-0.00169373,0.00688171,-1.00668335,0.366211,0.000000,-0.061035
5150722708,-0.00190735,0.00450134,-1.00711060,0.305176,0.000000,-0.122070
5155700375,-0.00158691,0.00199890,-1.00576782,0.366211,0.061035,0.000000
5160725625,-0.00090027,0.00013733,-1.00462341,0.366211,0.061035,0.061035
5165701666,-0.00015259,-0.00085449,-1.00518799,0.366211,0.000000,0.000000
5170690708,0.00050354,-0.00112915,-1.00662231,0.427246,0.000000,-0.122070
5175679416,0.00143433,-0.00119019,-1.00715637,0.305176,-0.183105,-0.122070
5180688375,0.00271606,-0.00132751,-1.00662231,0.427246,0.061035,-0.061035
5185675916,0.00390625,-0.00123596,-1.00637817,0.488281,0.000000,0.000000
5190682125,0.00465393,-0.00047302,-1.00659180,0.366211,-0.061035,-0.061035
5195684166,0.00518799,0.00071716,-1.00656128,0.427246,0.061035,-0.183105
5200654375,0.00547791,0.00169373,-1.00614929,0.427246,0.000000,-0.122070
5205720166,0.00515747,0.00219727,-1.00552368,0.366211,0.122070,0.000000
5210789041,0.00427246,0.00241089,-1.00532532,0.427246,0.061035,-0.122070
5215911458,0.00360107,0.00250244,-1.00575256,0.305176,0.000000,0.000000
5220731416,0.00312805,0.00280762,-1.00567627,0.305176,0.000000,0.061035
5225715291,0.00201416,0.00358582,-1.00508118,0.305176,0.183105,-0.061035
5230792958,0.00039673,0.00411987,-1.00523376,0.366211,0.122070,-0.061035
5235758750,-0.00088501,0.00401306,-1.00578308,0.427246,0.061035,0.000000
5240754125,-0.00151062,0.00416565,-1.00564575,0.366211,0.000000,-0.061035
5245745375,-0.00167847,0.00477600,-1.00543213,0.244141,-0.061035,0.000000
5250717125,-0.00128174,0.00480652,-1.00564575,0.122070,-0.061035,-0.122070
5255744666,-0.00039673,0.00430298,-1.00607300,0.183105,0.000000,-0.061035
5260758958,0.00033569,0.00427246,-1.00669861,0.122070,-0.061035,0.000000
5265788875,0.00062561,0.00457764,-1.00743103,0.305176,-0.061035,-0.122070
5270797500,0.00093079,0.00422668,-1.00726318,0.305176,0.061035,-0.061035
5275741000,0.00196838,0.00337219,-1.00627136,0.244141,0.000000,-0.122070
5280747000,0.00354004,0.00296021,-1.00596619,0.305176,0.000000,-0.122070
5285730625,0.00486755,0.00286865,-1.00628662,0.244141,0.000000,-0.061035
5290726250,0.00529480,0.00254822,-1.00595093,0.305176,-0.061035,-0.122070
5295745125,0.00506592,0.00221252,-1.00543213,0.305176,-0.061035,0.000000
5300705833,0.00503540,0.00251770,-1.00573730,0.549316,0.122070,0.000000
5305746125,0.00543213,0.00335693,-1.00596619,0.366211,0.000000,0.000000
5310781291,0.00556946,0.00393677,-1.00506592,0.244141,0.061035,-0.061035
5315738541,0.00511169,0.00407410,-1.00419617,0.183105,0.122070,-0.061035
5320781500,0.00424194,0.00430298,-1.00524902,0.305176,-0.061035,0.000000
5325741375,0.00288391,0.00486755,-1.00726318,0.244141,0.000000,-0.061035
5330835333,0.00143433,0.00529480,-1.00758362,0.366211,0.061035,-0.122070
5335802125,0.00064087,0.00512695,-1.00631714,0.305176,0.061035,0.061035
5340759291,0.00059509,0.00444031,-1.00524902,0.183105,0.000000,-0.061035
5345753958,0.00038147,0.00341797,-1.00523376,0.122070,-0.061035,-0.122070
5350808583,-0.00057983,0.00230408,-1.00617981,0.305176,-0.061035,0.122070
5355765750,-0.00154114,0.00138855,-1.00662231,0.427246,0.122070,0.000000
5360753500,-0.00137329,0.00090027,-1.00575256,0.427246,0.061035,0.000000
5365793708,-0.00048828,0.00061035,-1.00524902,0.305176,-0.183105,0.061035
5370760583,0.00024414,0.00016785,-1.00553894,0.366211,0.061035,0.000000
5375779875,0.00108337,-0.00015259,-1.00550842,0.366211,0.122070,0.000000
5380810416,0.00236511,0.00015259,-1.00544739,0.366211,0.000000,0.061035
5385812250,0.00376892,0.00114441,-1.00596619,0.305176,0.183105,-0.061035
5390788750,0.00485229,0.00236511,-1.00633240,0.366211,0.000000,-0.061035
5395802083,0.00544739,0.00350952,-1.00642395,0.244141,0.000000,-0.061035
5400798458,0.00570679,0.00428772,-1.00662231,0.366211,0.000000,0.061035
5405777875,0.00558472,0.00457764,-1.00668335,0.427246,0.061035,0.000000
5410765916,0.00494385,0.00471497,-1.00665283,0.366211,0.061035,-0.122070
5415763250,0.00408936,0.00485229,-1.00669861,0.183105,0.122070,-0.122070
5420779875,0.00346375,0.00486755,-1.00617981,0.427246,0.061035,-0.061035
5425807833,0.00323486,0.00465393,-1.00524902,0.427246,0.000000,-0.061035
5430784625,0.00300598,0.00422668,-1.00492859,0.366211,0.000000,-0.183105
5435808250,0.00227356,0.00389099,-1.00514221,0.183105,0.000000,-0.122070
5440813958,0.00094604,0.00363159,-1.00523376,0.366211,0.000000,0.061035
5445765500,-0.00061035,0.00321960,-1.00561523,0.366211,-0.061035,0.000000
5450945875,-0.00163269,0.00276184,-1.00634766,0.366211,0.000000,0.000000
5455782208,-0.00132751,0.00228882,-1.00659180,0.305176,0.061035,-0.122070
5460798083,-0.00010681,0.00177002,-1.00669861,0.122070,0.061035,0.061035
5465794416,0.00111389,0.00122070,-1.00714111,0.305176,0.000000,-0.122070
5470824708,0.00177002,0.00080872,-1.00683594,0.366211,-0.061035,0.000000
5475789291,0.00205994,0.00076294,-1.00578308,0.183105,-0.122070,0.000000
5480799708,0.00282288,0.00109863,-1.00541687,0.366211,0.061035,-0.183105
5485837208,0.00424194,0.00146484,-1.00590515,0.366211,0.122070,-0.122070
5490789916,0.00553894,0.00187683,-1.00607300,0.244141,-0.061035,0.000000
5495793916,0.00598145,0.00265503,-1.00561523,0.488281,0.183105,0.061035
5500872125,0.00569153,0.00340271,-1.00529480,0.366211,-0.061035,0.000000
5505824041,0.00521851,0.00401306,-1.00552368,0.244141,0.061035,-0.061035
5510816916,0.00489807,0.00479126,-1.00585938,0.244141,0.122070,0.000000
5515904666,0.00474548,0.00573730,-1.00588989,0.427246,-0.061035,0.000000
5520768416,0.00434875,0.00653076,-1.00567627,0.427246,0.000000,0.000000
5525783458,0.00346375,0.00689697,-1.00590515,0.427246,0.061035,-0.061035
5530842958,0.00256348,0.00688171,-1.00689697,0.305176,0.061035,-0.061035
5535801833,0.00195312,0.00653076,-1.00741577,0.305176,0.061035,-0.061035
5540816083,0.00115967,0.00558472,-1.00662231,0.366211,-0.061035,0.122070
5545815291,0.00003052,0.00401306,-1.00529480,0.305176,0.061035,0.000000
5550789916,-0.00085449,0.00259399,-1.00477600,0.366211,0.061035,-0.061035
5555794458,-0.00112915,0.00158691,-1.00506592,0.305176,0.061035,-0.122070
5560820791,-0.00102234,0.00018311,-1.00489807,0.244141,-0.061035,-0.061035
5565870750,-0.00074768,-0.00135803,-1.00425720,0.366211,0.061035,0.000000
5571166958,-0.00019836,-0.00184631,-1.00421143,0.366211,0.000000,-0.122070
5575805958,0.00056458,-0.00135803,-1.00471497,0.244141,0.183105,-0.061035
5580886833,0.00158691,-0.00064087,-1.00479126,0.366211,0.000000,0.061035
5585823958,0.00277710,0.00028992,-1.00451660,0.305176,0.122070,-0.061035
5590820375,0.00369263,0.00161743,-1.00469971,0.183105,-0.061035,-0.122070
5595833291,0.00444031,0.00299072,-1.00584412,0.183105,0.000000,-0.061035
5600898833,0.00491333,0.00398254,-1.00701904,0.305176,0.122070,-0.061035
5605833583,0.00488281,0.00447083,-1.00679016,0.366211,0.122070,-0.061035
5610814708,0.00471497,0.00488281,-1.00532532,0.244141,0.000000,-0.061035
5615859083,0.00476074,0.00563049,-1.00457764,0.427246,0.000000,0.000000
5620849666,0.00479126,0.00642395,-1.00532532,0.488281,0.000000,-0.061035
5625819333,0.00436401,0.00685120,-1.00602722,0.305176,0.122070,-0.061035
5630805583,0.00338745,0.00685120,-1.00567627,0.305176,0.061035,-0.061035
5635828416,0.00231934,0.00639343,-1.00524902,0.366211,0.061035,-0.061035
5640836666,0.00128174,0.00538635,-1.00575256,0.305176,0.122070,0.000000
5645825708,0.00033569,0.00408936,-1.00636292,0.305176,0.061035,-0.122070
5650853333,-0.00010681,0.00309753,-1.00610352,0.305176,0.061035,0.000000
5655843333,-0.00022888,0.00276184,-1.00570679,0.183105,0.000000,0.000000
5660829625,-0.00015259,0.00263977,-1.00564575,0.366211,-0.061035,-0.061035
5665829833,0.00033569,0.00180054,-1.00543213,0.244141,0.061035,0.000000
5670820875,0.00082397,0.00021362,-1.00518799,0.305176,0.061035,0.122070
5675904166,0.00097656,-0.00086975,-1.00506592,0.244141,-0.061035,0.122070
5680818000,0.00141907,-0.00088501,-1.00483704,0.488281,0.061035,0.061035
5685878625,0.00239563,-0.00050354,-1.00466919,0.305176,0.000000,0.000000
5690858125,0.00334167,-0.00003052,-1.00453186,0.244141,0.000000,0.000000
5695840750,0.00405884,0.00100708,-1.00456238,0.122070,0.061035,0.061035
5700870750,0.00465393,0.00263977,-1.00535583,0.427246,0.000000,-0.244141
5705921416,0.00517273,0.00419617,-1.00659180,0.305176,-0.122070,-0.122070
5710844291,0.00552368,0.00532532,-1.00695801,0.366211,0.000000,0.000000
5715842166,0.00534058,0.00621033,-1.00622559,0.488281,0.061035,-0.122070
5720823291,0.00476074,0.00724792,-1.00544739,0.244141,-0.122070,-0.122070
5725862583,0.00390625,0.00796509,-1.00541687,0.244141,-0.061035,-0.061035
5730862375,0.00277710,0.00764465,-1.00614929,0.183105,0.000000,-0.122070
5735888916,0.00155640,0.00688171,-1.00700378,0.305176,0.000000,-0.122070
5740838916,0.00071716,0.00608826,-1.00692749,0.183105,0.000000,0.000000
5745896416,0.00061035,0.00480652,-1.00624084,0.183105,0.061035,-0.122070
5750841625,0.00086975,0.00314331,-1.00598145,0.366211,0.000000,-0.061035
5755892291,0.00086975,0.00186157,-1.00619507,0.244141,0.000000,0.000000
5760872166,0.00064087,0.00111389,-1.00624084,0.244141,0.000000,0.000000
5765868291,0.00050354,0.00030518,-1.00582886,0.366211,0.061035,0.000000
5770853958,0.00050354,-0.00061035,-1.00549316,0.366211,0.122070,-0.061035
5775896791,0.00077820,-0.00108337,-1.00547791,0.244141,0.183105,0.000000
5780940208,0.00123596,-0.00088501,-1.00535583,0.305176,0.122070,-0.061035
5785843083,0.00167847,-0.00027466,-1.00526428,0.183105,0.122070,-0.183105
5790854125,0.00241089,0.00030518,-1.00552368,0.305176,0.122070,-0.061035
5795837125,0.00355530,0.00082397,-1.00614929,0.549316,0.061035,0.000000
5800895458,0.00437927,0.00186157,-1.00674438,0.427246,0.183105,0.000000
5805887500,0.00444031,0.00337219,-1.00660706,0.366211,-0.061035,-0.061035
5810867958,0.00389099,0.00473022,-1.00582886,0.366211,0.061035,-0.061035
5815846333,0.00338745,0.00584412,-1.00505066,0.366211,0.183105,0.122070
5820882250,0.00343323,0.00660706,-1.00439453,0.305176,0.061035,0.000000
5825895250,0.00350952,0.00669861,-1.00413513,0.305176,0.000000,0.000000
5830863916,0.00315857,0.00642395,-1.00447083,0.183105,-0.061035,-0.122070
5835911041,0.00253296,0.00625610,-1.00517273,0.305176,0.122070,0.000000
5840883041,0.00183105,0.00596619,-1.00578308,0.244141,0.122070,0.183105
5845892833,0.00132751,0.00517273,-1.00599670,0.305176,0.122070,-0.061035
5850859791,0.00103760,0.00408936,-1.00593567,0.244141,0.061035,0.000000
5855860208,0.00077820,0.00294495,-1.00584412,0.183105,0.061035,0.000000
5860872791,0.00021362,0.00172424,-1.00576782,0.244141,0.061035,-0.183105
5865894541,-0.00032043,0.00080872,-1.00596619,0.244141,0.000000,0.000000
5870896500,-0.00027466,0.00042725,-1.00653076,0.305176,0.122070,-0.061035
5875906750,0.00025940,0.00039673,-1.00685120,0.366211,-0.061035,-0.061035
5880865500,0.00102234,0.00032043,-1.00645447,0.244141,0.000000,0.000000
5885959833,0.00180054,0.00013733,-1.00608826,0.244141,0.000000,-0.122070
5890876583,0.00227356,0.00022888,-1.00639343,0.366211,0.061035,-0.183105
5895900666,0.00260925,0.00086975,-1.00672913,0.244141,0.061035,-0.061035
5900889666,0.00309753,0.00190735,-1.00648499,0.366211,0.061035,-0.061035
5905912875,0.00357056,0.00309753,-1.00602722,0.366211,-0.122070,-0.061035
5910906250,0.00419617,0.00411987,-1.00595093,0.305176,0.000000,0.000000
5915897875,0.00485229,0.00466919,-1.00572205,0.183105,0.000000,-0.122070
5920915291,0.00480652,0.00494385,-1.00511169,0.549316,-0.061035,-0.061035
5925886708,0.00372314,0.00527954,-1.00578308,0.183105,-0.061035,-0.183105
5930894833,0.00244141,0.00550842,-1.00726318,0.305176,0.000000,-0.122070
5935888333,0.00221252,0.00543213,-1.00727844,0.305176,0.061035,0.061035
5940896833,0.00238037,0.00529480,-1.00621033,0.366211,0.000000,0.061035
5945897583,0.00207520,0.00518799,-1.00544739,0.244141,-0.061035,-0.122070
5950912250,0.00167847,0.00469971,-1.00520325,0.305176,0.000000,-0.122070
5955916166,0.00126648,0.00367737,-1.00573730,0.305176,-0.061035,-0.061035
5960905333,0.00071716,0.00236511,-1.00679016,0.244141,0.122070,-0.122070
5965908708,0.00045776,0.00105286,-1.00672913,0.305176,0.061035,0.122070
5970905833,0.00077820,0.00000000,-1.00569153,0.427246,0.000000,0.061035
5975927875,0.00111389,-0.00021362,-1.00540161,0.305176,0.061035,0.000000
5980901083,0.00111389,0.00030518,-1.00555420,0.244141,0.061035,-0.061035
5985913041,0.00117493,0.00050354,-1.00515747,0.183105,-0.122070,-0.061035
5990989708,0.00143433,0.00010681,-1.00491333,0.305176,0.000000,-0.122070
5995918333,0.00189209,0.00024414,-1.00553894,0.244141,0.061035,0.000000
6000929166,0.00234985,0.00134277,-1.00616455,0.305176,0.122070,0.000000
6005929291,0.00267029,0.00273132,-1.00585938,0.427246,0.061035,-0.061035
6010909500,0.00300598,0.00384521,-1.00523376,0.427246,-0.061035,-0.183105
6015890208,0.00334167,0.00454712,-1.00529480,0.244141,0.000000,-0.122070
6020900958,0.00350952,0.00511169,-1.00584412,0.488281,0.061035,-0.061035
6025943541,0.00347900,0.00558472,-1.00617981,0.305176,0.000000,-0.122070
6030923500,0.00325012,0.00563049,-1.00588989,0.427246,0.000000,-0.122070
6035932916,0.00309753,0.00564575,-1.00520325,0.305176,-0.122070,0.000000
6040956208,0.00283813,0.00578308,-1.00491333,0.183105,0.061035,0.000000
6045938708,0.00236511,0.00527954,-1.00544739,0.366211,0.000000,-0.183105
6050918833,0.00216675,0.00418091,-1.00599670,0.305176,0.000000,0.000000
6055910708,0.00231934,0.00334167,-1.00619507,0.488281,0.061035,-0.061035
6060965833,0.00224304,0.00296021,-1.00663757,0.366211,0.000000,-0.061035
6065948541,0.00167847,0.00271606,-1.00715637,0.427246,0.061035,0.000000
6070967958,0.00114441,0.00225830,-1.00720215,0.305176,0.061035,-0.122070
6075927375,0.00117493,0.00160217,-1.00682068,0.366211,-0.122070,-0.122070
6080910666,0.00138855,0.00108337,-1.00619507,0.488281,0.122070,0.061035
6085979416,0.00126648,0.00102234,-1.00559998,0.366211,0.061035,-0.122070
6090964708,0.00096130,0.00129700,-1.00558472,0.366211,0.000000,-0.061035
6095956875,0.00117493,0.00152588,-1.00598145,0.305176,0.061035,-0.122070
6100948625,0.00195312,0.00173950,-1.00602722,0.305176,0.000000,-0.122070
6105975125,0.00247192,0.00218201,-1.00592041,0.183105,0.000000,-0.061035
6110940875,0.00268555,0.00276184,-1.00608826,0.122070,0.122070,0.000000
6115976000,0.00303650,0.00329590,-1.00587463,0.427246,0.000000,-0.061035
6120976291,0.00320435,0.00407410,-1.00495911,0.244141,0.000000,-0.122070
6125969375,0.00317383,0.00491333,-1.00428772,0.366211,0.061035,-0.061035
6130964833,0.00347900,0.00503540,-1.00430298,0.183105,0.061035,-0.061035
6135976333,0.00405884,0.00439453,-1.00466919,0.366211,0.061035,-0.122070
6140977333,0.00408936,0.00376892,-1.00492859,0.244141,0.122070,-0.061035
6146008958,0.00329590,0.00354004,-1.00502014,0.183105,0.122070,-0.061035
6150936375,0.00244141,0.00346375,-1.00543213,0.305176,0.000000,-0.061035
6155974250,0.00190735,0.00334167,-1.00608826,0.366211,0.061035,0.000000
6160953291,0.00143433,0.00292969,-1.00622559,0.427246,0.061035,-0.061035
6165983833,0.00105286,0.00230408,-1.00602722,0.244141,0.061035,-0.183105
6170975208,0.00109863,0.00209045,-1.00611877,0.183105,0.061035,0.000000
6175968708,0.00125122,0.00236511,-1.00621033,0.183105,-0.061035,-0.061035
6180956708,0.00099182,0.00256348,-1.00587463,0.427246,0.000000,0.000000
6185959708,0.00074768,0.00277710,-1.00534058,0.366211,0.061035,-0.122070
6190995166,0.00099182,0.00366211,-1.00511169,0.366211,-0.061035,0.000000
6195973041,0.00109863,0.00460815,-1.00561523,0.305176,0.000000,0.000000
6200977000,0.00097656,0.00463867,-1.00639343,0.305176,0.000000,-0.061035
6205977541,0.00117493,0.00411987,-1.00611877,0.427246,0.122070,0.061035
6210993875,0.00180054,0.00390625,-1.00485229,0.366211,0.000000,-0.061035
6215965416,0.00234985,0.00425720,-1.00436401,0.305176,-0.122070,0.000000
6220996208,0.00268555,0.00454712,-1.00541687,0.244141,-0.061035,-0.061035
6225969958,0.00311279,0.00440979,-1.00660706,0.305176,0.000000,0.000000
6230995166,0.00358582,0.00396729,-1.00671387,0.244141,0.061035,-0.061035
6235988333,0.00379944,0.00329590,-1.00604248,0.244141,0.000000,0.000000
6240953750,0.00398254,0.00274658,-1.00567627,0.305176,0.061035,0.061035
6245978125,0.00392151,0.00274658,-1.00617981,0.244141,0.000000,0.061035
6251008750,0.00311279,0.00280762,-1.00659180,0.366211,0.000000,-0.122070
6255985541,0.00215149,0.00204468,-1.00598145,0.305176,0.000000,-0.122070
6260988583,0.00183105,0.00091553,-1.00502014,0.366211,0.183105,0.061035
6265987583,0.00209045,0.00067139,-1.00527954,0.305176,-0.061035,0.000000
6271023875,0.00215149,0.00149536,-1.00610352,0.427246,-0.061035,0.061035
6276008041,0.00148010,0.00222778,-1.00576782,0.244141,0.000000,0.000000
6280982291,0.00027466,0.00227356,-1.00518799,0.305176,0.061035,-0.061035
6286038583,-0.00044250,0.00227356,-1.00563049,0.305176,0.061035,-0.122070
6290974625,-0.00032043,0.00277710,-1.00630188,0.183105,0.000000,0.000000
6295998916,0.00027466,0.00369263,-1.00627136,0.244141,0.000000,0.000000
6301047375,0.00117493,0.00451660,-1.00563049,0.244141,0.061035,-0.061035
6306019458,0.00184631,0.00505066,-1.00523376,0.366211,0.061035,0.000000
6311017708,0.00193787,0.00532532,-1.00563049,0.366211,-0.122070,-0.061035
6316004083,0.00204468,0.00527954,-1.00602722,0.244141,0.000000,0.000000
6321018375,0.00233459,0.00480652,-1.00564575,0.305176,0.000000,-0.122070
6326026958,0.00248718,0.00411987,-1.00540161,0.244141,0.183105,-0.061035
6330988083,0.00239563,0.00357056,-1.00621033,0.366211,-0.061035,-0.061035
6336055625,0.00227356,0.00309753,-1.00741577,0.244141,-0.061035,0.122070
6341021666,0.00245667,0.00265503,-1.00753784,0.366211,0.000000,0.000000
6346019833,0.00268555,0.00210571,-1.00659180,0.305176,0.000000,-0.061035
6351094541,0.00283813,0.00132751,-1.00608826,0.366211,-0.061035,-0.061035
6355984750,0.00280762,0.00062561,-1.00639343,0.244141,0.061035,-0.122070
6361007083,0.00241089,0.00036621,-1.00643921,0.244141,0.000000,-0.122070
6365990375,0.00189209,0.00044250,-1.00584412,0.183105,0.000000,-0.061035
6371140708,0.00152588,0.00080872,-1.00524902,0.427246,0.122070,-0.061035
6376033041,0.00140381,0.00151062,-1.00534058,0.305176,0.000000,-0.061035
6381003833,0.00141907,0.00222778,-1.00608826,0.366211,0.000000,0.000000
6386021041,0.00131226,0.00282288,-1.00692749,0.366211,0.000000,-0.122070
6391047333,0.00108337,0.00372314,-1.00737000,0.305176,-0.061035,-0.061035
6396003041,0.00099182,0.00479126,-1.00729370,0.366211,0.000000,0.061035
6401048375,0.00119019,0.00544739,-1.00694275,0.427246,0.061035,-0.061035
6406003500,0.00135803,0.00531006,-1.00639343,0.244141,0.061035,-0.061035
6411018833,0.00140381,0.00466919,-1.00564575,0.366211,0.000000,0.000000
6416031791,0.00189209,0.00410461,-1.00537109,0.305176,0.000000,-0.122070
6421002875,0.00280762,0.00387573,-1.00572205,0.305176,-0.061035,-0.122070
6426041583,0.00363159,0.00398254,-1.00573730,0.366211,0.061035,-0.122070
6431017958,0.00381470,0.00408936,-1.00532532,0.427246,0.061035,-0.122070
6436052083,0.00354004,0.00373840,-1.00532532,0.305176,0.061035,0.000000
6441028375,0.00323486,0.00308228,-1.00552368,0.366211,-0.061035,-0.122070
6446041500,0.00315857,0.00257874,-1.00546265,0.244141,0.061035,0.000000
6451075583,0.00344849,0.00189209,-1.00544739,0.244141,0.183105,0.061035
6456048291,0.00355530,0.00112915,-1.00538635,0.122070,0.183105,-0.061035
6461055375,0.00288391,0.00082397,-1.00515747,0.244141,0.061035,-0.122070
6466056625,0.00190735,0.00088501,-1.00532532,0.183105,-0.061035,-0.122070
6471075916,0.00137329,0.00099182,-1.00587463,0.366211,0.061035,0.000000
6476047041,0.00135803,0.00112915,-1.00573730,0.305176,0.061035,-0.061035
6481055250,0.00164795,0.00132751,-1.00505066,0.366211,0.000000,0.000000
6486043083,0.00189209,0.00134277,-1.00532532,0.244141,0.000000,-0.122070
6491064791,0.00184631,0.00146484,-1.00643921,0.183105,0.000000,-0.183105
6496047458,0.00161743,0.00209045,-1.00694275,0.183105,0.061035,0.000000
6501079583,0.00167847,0.00277710,-1.00633240,0.427246,0.183105,-0.183105
6506119333,0.00210571,0.00315857,-1.00552368,0.305176,-0.061035,0.061035
6511030416,0.00241089,0.00358582,-1.00543213,0.366211,-0.061035,-0.061035
6516043958,0.00239563,0.00427246,-1.00625610,0.305176,0.122070,-0.122070
6521066958,0.00254822,0.00495911,-1.00718689,0.366211,-0.061035,0.061035
6526062375,0.00305176,0.00540161,-1.00697327,0.366211,0.000000,0.061035
6531040958,0.00343323,0.00537109,-1.00628662,0.305176,-0.061035,-0.183105
6536082875,0.00355530,0.00482178,-1.00651550,0.244141,0.000000,-0.244141
6541076416,0.00367737,0.00427246,-1.00688171,0.244141,-0.061035,-0.122070
6546061500,0.00364685,0.00401306,-1.00613403,0.305176,-0.122070,0.061035
6551027250,0.00302124,0.00350952,-1.00529480,0.244141,-0.122070,-0.061035
6556066458,0.00204468,0.00271606,-1.00567627,0.244141,0.000000,-0.061035
6561073875,0.00164795,0.00202942,-1.00604248,0.488281,0.061035,-0.061035
6566042666,0.00181580,0.00160217,-1.00529480,0.427246,0.061035,-0.061035
6571092833,0.00186157,0.00155640,-1.00410461,0.244141,0.061035,0.122070
6576070708,0.00184631,0.00169373,-1.00364685,0.366211,0.000000,-0.122070
6581086875,0.00195312,0.00155640,-1.00463867,0.122070,0.000000,-0.061035
6586067666,0.00221252,0.00117493,-1.00610352,0.183105,0.061035,-0.061035
6591082291,0.00242615,0.00106812,-1.00648499,0.305176,0.000000,-0.122070
6596056500,0.00238037,0.00135803,-1.00596619,0.305176,-0.061035,0.000000
6601078708,0.00172424,0.00186157,-1.00535583,0.305176,-0.061035,0.000000
6606083375,0.00067139,0.00254822,-1.00518799,0.427246,0.122070,0.000000
6611143125,0.00032043,0.00335693,-1.00534058,0.305176,0.061035,0.061035
6616078791,0.00090027,0.00402832,-1.00559998,0.244141,0.061035,-0.061035
6621097458,0.00195312,0.00440979,-1.00582886,0.305176,-0.061035,-0.061035
6626090208,0.00300598,0.00476074,-1.00581360,0.366211,0.000000,-0.122070
6631092125,0.00352478,0.00529480,-1.00556946,0.427246,-0.061035,0.000000
6636081500,0.00355530,0.00566101,-1.00537109,0.427246,0.061035,0.000000
6641110291,0.00358582,0.00521851,-1.00555420,0.488281,0.000000,0.000000
6646088291,0.00352478,0.00430298,-1.00634766,0.244141,0.061035,0.000000
6651072083,0.00317383,0.00378418,-1.00686646,0.122070,-0.061035,-0.061035
6656117250,0.00289917,0.00370789,-1.00633240,0.244141,0.000000,-0.122070
6661077250,0.00294495,0.00337219,-1.00550842,0.305176,0.061035,0.000000
6666099250,0.00317383,0.00268555,-1.00521851,0.244141,0.061035,-0.122070
6671109541,0.00314331,0.00219727,-1.00543213,0.244141,0.000000,-0.122070
6676098541,0.00276184,0.00199890,-1.00582886,0.488281,0.061035,0.000000
6681074875,0.00218201,0.00192261,-1.00588989,0.488281,0.061035,-0.061035
6686122833,0.00163269,0.00187683,-1.00569153,0.244141,0.000000,0.000000
6691099083,0.00187683,0.00161743,-1.00596619,0.366211,0.061035,-0.122070
6696081791,0.00256348,0.00123596,-1.00639343,0.305176,0.061035,0.000000
6701097250,0.00267029,0.00114441,-1.00621033,0.305176,-0.061035,-0.122070
6706110458,0.00219727,0.00151062,-1.00588989,0.427246,-0.061035,0.000000
6711110166,0.00160217,0.00210571,-1.00621033,0.427246,0.061035,0.000000
6716100958,0.00112915,0.00271606,-1.00651550,0.305176,-0.061035,0.000000
6721108291,0.00096130,0.00335693,-1.00576782,0.366211,0.122070,0.000000
6726148458,0.00131226,0.00384521,-1.00506592,0.183105,-0.061035,-0.183105
6731089708,0.00230408,0.00401306,-1.00537109,0.183105,0.000000,-0.122070
6736106375,0.00300598,0.00419617,-1.00619507,0.305176,0.061035,-0.122070
6741122666,0.00294495,0.00457764,-1.00672913,0.427246,-0.061035,-0.061035
6746127208,0.00292969,0.00471497,-1.00650024,0.366211,0.000000,-0.061035
6751136875,0.00331116,0.00430298,-1.00582886,0.305176,0.061035,0.000000
6756125875,0.00343323,0.00366211,-1.00553894,0.244141,0.122070,-0.061035
6761100958,0.00317383,0.00332642,-1.00537109,0.427246,0.000000,-0.122070
6766182083,0.00314331,0.00332642,-1.00491333,0.305176,0.000000,0.061035
6771111875,0.00331116,0.00329590,-1.00473022,0.366211,0.061035,-0.061035
6776091833,0.00321960,0.00296021,-1.00508118,0.427246,-0.061035,-0.061035
6781147958,0.00268555,0.00250244,-1.00543213,0.427246,-0.061035,-0.061035
6786096333,0.00198364,0.00215149,-1.00570679,0.183105,0.122070,-0.122070
6791111541,0.00187683,0.00192261,-1.00636292,0.244141,0.061035,-0.061035
6796114875,0.00247192,0.00190735,-1.00709534,0.427246,0.000000,-0.061035
6801149958,0.00285339,0.00225830,-1.00682068,0.305176,0.122070,0.000000
6806142791,0.00253296,0.00279236,-1.00584412,0.244141,0.000000,-0.183105
6811147041,0.00190735,0.00302124,-1.00543213,0.366211,-0.122070,-0.061035
6816103833,0.00163269,0.00280762,-1.00576782,0.427246,0.061035,-0.061035
6821104250,0.00154114,0.00248718,-1.00584412,0.305176,0.000000,-0.183105
6826141750,0.00129700,0.00231934,-1.00553894,0.305176,-0.061035,-0.183105
6831113583,0.00111389,0.00225830,-1.00534058,0.305176,0.000000,-0.122070
6836159458,0.00146484,0.00267029,-1.00527954,0.244141,0.061035,-0.061035
6841150916,0.00225830,0.00375366,-1.00526428,0.366211,0.061035,-0.122070
6846151375,0.00253296,0.00491333,-1.00534058,0.183105,-0.061035,-0.183105
6851126541,0.00201416,0.00527954,-1.00558472,0.305176,0.122070,0.061035
6856151041,0.00183105,0.00477600,-1.00575256,0.244141,0.061035,0.000000
6861110958,0.00231934,0.00396729,-1.00524902,0.122070,0.000000,-0.061035
6866155458,0.00268555,0.00341797,-1.00437927,0.244141,0.000000,-0.061035
6871187750,0.00277710,0.00329590,-1.00422668,0.305176,0.000000,0.000000
6876121166,0.00282288,0.00337219,-1.00503540,0.427246,0.000000,-0.061035
6881133375,0.00277710,0.00329590,-1.00537109,0.366211,0.061035,-0.061035
6886198125,0.00248718,0.00288391,-1.00494385,0.366211,0.000000,-0.061035
6891170750,0.00254822,0.00241089,-1.00500488,0.427246,0.000000,0.000000
6896143250,0.00297546,0.00207520,-1.00592041,0.305176,0.122070,0.000000
6901159416,0.00277710,0.00192261,-1.00639343,0.183105,0.061035,0.000000
6906169833,0.00173950,0.00192261,-1.00573730,0.183105,0.061035,-0.122070
6911183791,0.00102234,0.00210571,-1.00529480,0.305176,0.122070,-0.122070
6916157041,0.00114441,0.00247192,-1.00570679,0.305176,0.000000,-0.122070
6921235625,0.00151062,0.00257874,-1.00619507,0.427246,0.061035,0.000000
6926175833,0.00192261,0.00253296,-1.00651550,0.244141,0.000000,-0.122070
6931151083,0.00210571,0.00312805,-1.00628662,0.244141,0.061035,-0.061035
6936190625,0.00167847,0.00428772,-1.00540161,0.244141,0.000000,-0.061035
6941184333,0.00137329,0.00511169,-1.00502014,0.061035,0.000000,-0.122070
6946184625,0.00180054,0.00509644,-1.00558472,0.122070,0.000000,0.000000
6951167791,0.00218201,0.00445557,-1.00569153,0.305176,0.122070,-0.061035
6956182000,0.00199890,0.00387573,-1.00494385,0.305176,0.122070,-0.061035
6961183125,0.00181580,0.00379944,-1.00466919,0.366211,0.000000,-0.122070
6966152833,0.00198364,0.00390625,-1.00547791,0.305176,0.061035,-0.061035
6971167625,0.00219727,0.00384521,-1.00640869,0.366211,0.061035,-0.183105
6976181000,0.00241089,0.00357056,-1.00639343,0.305176,0.061035,0.000000
6981152791,0.00279236,0.00323486,-1.00579834,0.305176,-0.061035,-0.061035
6986176083,0.00320435,0.00299072,-1.00566101,0.305176,-0.061035,-0.061035
6991187875,0.00331116,0.00302124,-1.00607300,0.427246,-0.061035,0.000000
6996174083,0.00273132,0.00328064,-1.00619507,0.244141,0.000000,0.000000
7001170041,0.00192261,0.00344849,-1.00578308,0.366211,0.122070,0.000000
7006206416,0.00164795,0.00344849,-1.00541687,0.244141,0.122070,-0.061035
7011214583,0.00164795,0.00340271,-1.00556946,0.366211,-0.122070,-0.061035
7016192041,0.00151062,0.00328064,-1.00590515,0.244141,0.000000,-0.061035
7021183666,0.00123596,0.00277710,-1.00584412,0.366211,0.000000,0.000000
7026189833,0.00106812,0.00215149,-1.00567627,0.366211,0.000000,0.000000
7031159416,0.00140381,0.00178528,-1.00575256,0.122070,0.122070,0.061035
7036184916,0.00230408,0.00163269,-1.00573730,0.305176,0.061035,-0.061035
7041209291,0.00320435,0.00180054,-1.00566101,0.244141,0.061035,0.000000
7046159375,0.00357056,0.00248718,-1.00599670,0.427246,0.061035,-0.061035
7051190583,0.00361633,0.00323486,-1.00634766,0.305176,-0.122070,-0.122070
7056158583,0.00352478,0.00354004,-1.00599670,0.305176,0.061035,-0.061035
7061155666,0.00315857,0.00347900,-1.00537109,0.305176,0.061035,-0.183105
7066181958,0.00271606,0.00340271,-1.00509644,0.183105,0.000000,0.000000
7071214291,0.00273132,0.00344849,-1.00509644,0.244141,0.000000,-0.061035
7076262541,0.00308228,0.00367737,-1.00543213,0.366211,0.061035,-0.061035
7081176458,0.00286865,0.00389099,-1.00585938,0.488281,0.000000,-0.061035
7086185833,0.00210571,0.00372314,-1.00578308,0.244141,-0.122070,-0.122070
7091229875,0.00183105,0.00338745,-1.00585938,0.427246,0.061035,-0.122070
7096206416,0.00248718,0.00305176,-1.00642395,0.183105,0.000000,-0.061035
7101209625,0.00296021,0.00267029,-1.00642395,0.183105,0.061035,-0.183105
7106218708,0.00241089,0.00238037,-1.00588989,0.427246,0.000000,0.000000
7111232916,0.00175476,0.00254822,-1.00570679,0.366211,0.122070,-0.061035
7116185875,0.00181580,0.00292969,-1.00599670,0.366211,0.122070,0.000000
7121188916,0.00193787,0.00328064,-1.00642395,0.366211,0.122070,-0.061035
7126168875,0.00167847,0.00357056,-1.00672913,0.366211,0.000000,0.000000
7131187291,0.00149536,0.00352478,-1.00656128,0.305176,-0.122070,-0.061035
7136174666,0.00137329,0.00311279,-1.00576782,0.305176,0.061035,0.000000
7141186375,0.00114441,0.00265503,-1.00495911,0.366211,0.000000,-0.061035
7146183208,0.00114441,0.00222778,-1.00476074,0.244141,0.061035,-0.061035
7151212041,0.00155640,0.00189209,-1.00498962,0.244141,-0.061035,-0.061035
7156179583,0.00227356,0.00164795,-1.00543213,0.427246,-0.061035,0.061035
7161181666,0.00315857,0.00167847,-1.00566101,0.488281,0.000000,-0.061035
7166186958,0.00381470,0.00196838,-1.00564575,0.183105,0.000000,-0.061035
7171192791,0.00387573,0.00228882,-1.00590515,0.183105,0.000000,-0.061035
7176195625,0.00346375,0.00262451,-1.00625610,0.366211,0.183105,0.000000
7181230041,0.00289917,0.00305176,-1.00628662,0.488281,0.122070,-0.061035
7186187500,0.00248718,0.00341797,-1.00611877,0.366211,0.183105,0.000000
7191209583,0.00248718,0.00369263,-1.00581360,0.305176,0.000000,-0.061035
7196185916,0.00262451,0.00401306,-1.00537109,0.305176,0.122070,-0.122070
7201253958,0.00213623,0.00433350,-1.00500488,0.366211,0.000000,-0.061035
7206279041,0.00129700,0.00462341,-1.00488281,0.244141,0.000000,-0.061035
7211281750,0.00103760,0.00468445,-1.00511169,0.366211,0.061035,-0.061035
7216208041,0.00120544,0.00433350,-1.00549316,0.244141,0.061035,0.000000
7221259833,0.00117493,0.00393677,-1.00544739,0.488281,0.000000,-0.061035
7226258375,0.00109863,0.00375366,-1.00552368,0.366211,0.122070,-0.061035
7231293375,0.00140381,0.00350952,-1.00646973,0.305176,0.061035,-0.061035
7236274083,0.00184631,0.00309753,-1.00708008,0.366211,0.000000,0.000000
7241239583,0.00212097,0.00277710,-1.00625610,0.244141,0.061035,-0.122070
7246249791,0.00231934,0.00213623,-1.00515747,0.122070,0.122070,-0.061035
7251245291,0.00239563,0.00122070,-1.00489807,0.305176,0.061035,-0.061035
7256252041,0.00227356,0.00106812,-1.00552368,0.549316,0.122070,-0.061035
7261253500,0.00251770,0.00192261,-1.00607300,0.366211,0.000000,-0.183105
7266267458,0.00320435,0.00274658,-1.00587463,0.366211,0.000000,-0.244141
7271283333,0.00325012,0.00286865,-1.00537109,0.244141,0.061035,-0.061035
7276278333,0.00236511,0.00282288,-1.00566101,0.305176,0.000000,-0.061035
7281268291,0.00134277,0.00297546,-1.00663757,0.305176,0.000000,-0.244141
7286248250,0.00103760,0.00329590,-1.00683594,0.305176,-0.061035,-0.061035
7291262291,0.00128174,0.00349426,-1.00605774,0.305176,0.061035,0.000000
7296241500,0.00149536,0.00347900,-1.00567627,0.305176,0.000000,0.061035
7301339875,0.00151062,0.00352478,-1.00599670,0.366211,-0.061035,-0.061035
7306253958,0.00155640,0.00392151,-1.00590515,0.244141,0.122070,0.000000
7311270750,0.00178528,0.00433350,-1.00512695,0.488281,0.061035,0.000000
7316258666,0.00207520,0.00444031,-1.00495911,0.244141,0.061035,0.061035
7321265541,0.00213623,0.00421143,-1.00581360,0.244141,-0.061035,0.000000
7326250375,0.00178528,0.00389099,-1.00645447,0.244141,0.061035,-0.061035
7331259583,0.00134277,0.00357056,-1.00610352,0.305176,0.122070,-0.122070
7336314666,0.00148010,0.00329590,-1.00538635,0.366211,0.000000,-0.061035
7341264791,0.00221252,0.00276184,-1.00524902,0.244141,0.061035,-0.061035
7346249458,0.00294495,0.00184631,-1.00581360,0.305176,0.000000,-0.061035
7351276583,0.00306702,0.00114441,-1.00619507,0.427246,-0.061035,-0.061035
7356259541,0.00256348,0.00134277,-1.00599670,0.122070,0.000000,0.000000
7361246416,0.00224304,0.00202942,-1.00561523,0.305176,0.122070,-0.122070
7366266916,0.00218201,0.00225830,-1.00550842,0.366211,0.061035,-0.061035
7371257416,0.00192261,0.00201416,-1.00569153,0.366211,-0.122070,0.061035
7376235416,0.00193787,0.00202942,-1.00570679,0.366211,0.000000,-0.061035
7381292000,0.00244141,0.00238037,-1.00558472,0.366211,0.000000,-0.183105
7386331791,0.00259399,0.00283813,-1.00567627,0.427246,0.122070,-0.122070
7391290208,0.00234985,0.00326538,-1.00558472,0.427246,0.000000,-0.061035
7396274833,0.00241089,0.00337219,-1.00508118,0.183105,0.000000,-0.244141
7401294333,0.00251770,0.00325012,-1.00502014,0.244141,0.061035,-0.122070
7406282125,0.00201416,0.00334167,-1.00550842,0.183105,0.061035,-0.122070
7411268583,0.00140381,0.00358582,-1.00564575,0.244141,0.000000,0.000000
7416293333,0.00157166,0.00393677,-1.00515747,0.305176,0.061035,0.122070
7421244208,0.00221252,0.00422668,-1.00457764,0.183105,0.061035,-0.061035
7426274208,0.00265503,0.00398254,-1.00439453,0.183105,0.000000,-0.122070
7431277791,0.00270081,0.00331116,-1.00489807,0.366211,0.061035,-0.061035
7436276000,0.00238037,0.00299072,-1.00579834,0.305176,0.061035,-0.061035
7441268875,0.00241089,0.00323486,-1.00602722,0.305176,0.000000,-0.122070
7446262916,0.00270081,0.00364685,-1.00546265,0.366211,0.000000,-0.061035
7451326666,0.00257874,0.00379944,-1.00549316,0.305176,-0.061035,0.000000
7456288208,0.00221252,0.00325012,-1.00601196,0.366211,-0.122070,-0.061035
7461265833,0.00219727,0.00254822,-1.00570679,0.366211,0.000000,-0.122070
7466359208,0.00239563,0.00228882,-1.00503540,0.244141,0.122070,-0.061035
7471300208,0.00260925,0.00224304,-1.00535583,0.366211,-0.061035,-0.061035
7476272500,0.00274658,0.00199890,-1.00636292,0.427246,0.061035,0.000000
7481298000,0.00262451,0.00173950,-1.00671387,0.244141,-0.061035,-0.122070
7486314666,0.00236511,0.00148010,-1.00602722,0.244141,0.061035,-0.183105
7491361041,0.00187683,0.00158691,-1.00505066,0.427246,0.061035,0.061035
7496295875,0.00135803,0.00227356,-1.00494385,0.305176,-0.122070,0.000000
7501325666,0.00141907,0.00277710,-1.00553894,0.427246,0.000000,-0.061035
7506299375,0.00193787,0.00309753,-1.00579834,0.549316,0.000000,-0.061035
7511296875,0.00218201,0.00367737,-1.00543213,0.366211,0.122070,0.000000
7516345166,0.00219727,0.00413513,-1.00538635,0.427246,0.122070,-0.061035
7521310250,0.00218201,0.00392151,-1.00602722,0.366211,0.000000,-0.122070
7526328458,0.00233459,0.00367737,-1.00622559,0.244141,-0.061035,-0.183105
7531354791,0.00276184,0.00395203,-1.00579834,0.366211,0.061035,0.000000
7536343083,0.00285339,0.00416565,-1.00569153,0.305176,0.000000,0.000000
7541323833,0.00259399,0.00382996,-1.00607300,0.366211,0.000000,-0.061035
7546306250,0.00248718,0.00361633,-1.00614929,0.366211,0.000000,0.000000
7551309166,0.00250244,0.00393677,-1.00559998,0.366211,0.061035,-0.122070
7556301666,0.00259399,0.00407410,-1.00514221,0.427246,-0.122070,-0.122070
7561341083,0.00274658,0.00354004,-1.00537109,0.305176,0.061035,-0.183105
7566314625,0.00254822,0.00267029,-1.00596619,0.366211,0.000000,0.000000
7571358666,0.00225830,0.00184631,-1.00625610,0.427246,0.000000,-0.122070
7576299958,0.00230408,0.00152588,-1.00619507,0.488281,-0.061035,-0.122070
7581296666,0.00238037,0.00181580,-1.00593567,0.305176,0.000000,-0.183105
7586344541,0.00228882,0.00196838,-1.00593567,0.122070,0.061035,-0.061035
7591332958,0.00219727,0.00167847,-1.00640869,0.305176,0.000000,-0.061035
7596365000,0.00186157,0.00154114,-1.00669861,0.305176,0.122070,0.061035
7601335708,0.00131226,0.00198364,-1.00630188,0.183105,0.061035,-0.061035
7606344000,0.00100708,0.00265503,-1.00575256,0.183105,-0.061035,0.061035
7611333000,0.00115967,0.00314331,-1.00564575,0.366211,0.122070,-0.122070
7616343208,0.00161743,0.00350952,-1.00578308,0.305176,0.122070,-0.122070
7621360291,0.00209045,0.00411987,-1.00596619,0.305176,-0.061035,-0.061035
7626356791,0.00205994,0.00466919,-1.00637817,0.366211,0.061035,0.000000
7631320000,0.00167847,0.00451660,-1.00685120,0.305176,0.000000,0.000000
7636355708,0.00164795,0.00402832,-1.00718689,0.244141,0.061035,-0.061035
7641352458,0.00209045,0.00379944,-1.00718689,0.366211,0.061035,-0.122070
7646422375,0.00234985,0.00386047,-1.00674438,0.366211,0.122070,0.000000
7651362333,0.00210571,0.00408936,-1.00630188,0.183105,-0.061035,-0.122070
7656360000,0.00189209,0.00418091,-1.00633240,0.183105,0.061035,-0.183105
7661335250,0.00233459,0.00382996,-1.00648499,0.305176,0.000000,0.000000
7666328000,0.00306702,0.00308228,-1.00633240,0.366211,0.061035,-0.122070
7671375083,0.00311279,0.00238037,-1.00576782,0.244141,0.061035,0.061035
7676354791,0.00245667,0.00198364,-1.00503540,0.305176,0.061035,0.000000
7681332083,0.00210571,0.00198364,-1.00469971,0.305176,0.000000,-0.061035
7686380333,0.00260925,0.00238037,-1.00506592,0.305176,0.000000,-0.061035
7691371208,0.00314331,0.00283813,-1.00555420,0.305176,0.061035,0.000000
7696322541,0.00274658,0.00300598,-1.00573730,0.305176,0.061035,0.061035
7701347750,0.00184631,0.00296021,-1.00550842,0.366211,0.061035,-0.061035
7706354666,0.00134277,0.00288391,-1.00549316,0.244141,0.000000,-0.061035
7711378666,0.00132751,0.00270081,-1.00605774,0.305176,0.000000,-0.061035
7716382083,0.00131226,0.00254822,-1.00646973,0.244141,0.061035,-0.122070
7721371958,0.00115967,0.00286865,-1.00625610,0.366211,0.061035,-0.061035
7726391541,0.00131226,0.00363159,-1.00584412,0.305176,0.122070,0.000000
7731336000,0.00187683,0.00395203,-1.00559998,0.305176,0.061035,-0.061035
7736414166,0.00236511,0.00343323,-1.00587463,0.366211,0.061035,-0.183105
7741379166,0.00239563,0.00289917,-1.00642395,0.366211,0.000000,0.000000
7746382583,0.00221252,0.00279236,-1.00625610,0.244141,0.061035,-0.183105
7751456791,0.00242615,0.00288391,-1.00535583,0.488281,0.000000,-0.122070
7756411666,0.00286865,0.00294495,-1.00502014,0.244141,0.000000,-0.061035
7761373208,0.00320435,0.00299072,-1.00582886,0.366211,0.061035,-0.122070
7766337500,0.00340271,0.00320435,-1.00654602,0.305176,0.122070,-0.183105
7771358000,0.00350952,0.00352478,-1.00631714,0.366211,0.061035,0.000000
7776419166,0.00331116,0.00338745,-1.00572205,0.305176,0.000000,0.061035
7781389958,0.00279236,0.00277710,-1.00555420,0.366211,0.061035,0.000000
7786385416,0.00247192,0.00236511,-1.00610352,0.183105,0.061035,-0.061035
7791373833,0.00215149,0.00247192,-1.00675964,0.366211,-0.061035,0.000000
7796401291,0.00199890,0.00285339,-1.00688171,0.305176,0.061035,-0.122070
7801515833,0.00212097,0.00317383,-1.00634766,0.244141,0.061035,-0.122070
7806402125,0.00192261,0.00308228,-1.00559998,0.366211,0.061035,-0.183105
7811412750,0.00119019,0.00267029,-1.00512695,0.366211,0.000000,-0.122070
7816386125,0.00065613,0.00245667,-1.00480652,0.244141,0.000000,-0.061035
7821403166,0.00088501,0.00218201,-1.00480652,0.366211,0.000000,0.000000
7826393083,0.00140381,0.00169373,-1.00546265,0.427246,0.061035,0.000000
7831417333,0.00157166,0.00155640,-1.00569153,0.366211,0.061035,-0.061035
7836408083,0.00138855,0.00216675,-1.00491333,0.244141,0.000000,-0.061035
7841372250,0.00149536,0.00306702,-1.00433350,0.305176,0.000000,0.000000
7846393625,0.00178528,0.00343323,-1.00506592,0.366211,0.000000,-0.061035
7851441500,0.00181580,0.00325012,-1.00614929,0.244141,0.061035,-0.061035
7856396208,0.00204468,0.00294495,-1.00630188,0.244141,0.000000,-0.061035
7861386333,0.00299072,0.00254822,-1.00592041,0.366211,0.061035,-0.061035
7866375291,0.00396729,0.00213623,-1.00599670,0.305176,0.061035,0.000000
7871405416,0.00415039,0.00193787,-1.00648499,0.366211,0.122070,-0.122070
7876419166,0.00363159,0.00215149,-1.00680542,0.244141,0.122070,0.000000
7881400083,0.00291443,0.00254822,-1.00648499,0.183105,0.061035,0.000000
7886380458,0.00241089,0.00277710,-1.00596619,0.244141,-0.183105,-0.122070
7891405666,0.00210571,0.00289917,-1.00601196,0.305176,-0.122070,-0.061035
7896394708,0.00167847,0.00315857,-1.00587463,0.244141,0.061035,-0.061035
7901428333,0.00125122,0.00357056,-1.00495911,0.366211,-0.061035,-0.061035
7906456916,0.00129700,0.00389099,-1.00465393,0.366211,0.000000,0.061035
7911432500,0.00138855,0.00393677,-1.00564575,0.244141,-0.122070,0.061035
7916414208,0.00115967,0.00369263,-1.00674438,0.366211,0.061035,0.122070
7921410333,0.00103760,0.00321960,-1.00672913,0.305176,0.061035,0.000000
7926400625,0.00148010,0.00267029,-1.00564575,0.305176,0.000000,-0.183105
7931394041,0.00239563,0.00215149,-1.00485229,0.427246,0.122070,0.061035
7936434375,0.00332642,0.00180054,-1.00509644,0.183105,0.000000,-0.061035
7941420958,0.00389099,0.00167847,-1.00512695,0.244141,0.122070,-0.061035
7946426458,0.00390625,0.00207520,-1.00453186,0.244141,0.000000,-0.061035
7951429125,0.00350952,0.00276184,-1.00448608,0.305176,0.061035,-0.244141
7956425375,0.00306702,0.00271606,-1.00517273,0.244141,-0.122070,-0.061035
7961408250,0.00311279,0.00198364,-1.00578308,0.305176,0.000000,-0.061035
7966490500,0.00370789,0.00186157,-1.00611877,0.244141,0.061035,-0.122070
7971414083,0.00378418,0.00283813,-1.00614929,0.366211,0.061035,-0.061035
7976453250,0.00267029,0.00401306,-1.00616455,0.183105,0.122070,-0.061035
7981450041,0.00146484,0.00453186,-1.00648499,0.000000,-0.061035,-0.244141
7986438958,0.00128174,0.00450134,-1.00669861,0.366211,0.122070,-0.061035
7991451416,0.00170898,0.00447083,-1.00619507,0.305176,-0.061035,0.000000
7996428916,0.00177002,0.00468445,-1.00514221,0.183105,0.000000,-0.061035
8001434333,0.00128174,0.00477600,-1.00442505,0.366211,0.000000,-0.061035
8006462166,0.00061035,0.00444031,-1.00466919,0.305176,0.061035,-0.183105
8011432041,-0.00012207,0.00390625,-1.00541687,0.244141,0.000000,-0.061035
8016416791,-0.00050354,0.00346375,-1.00559998,0.183105,0.122070,-0.122070
8021456833,-0.00010681,0.00317383,-1.00518799,0.366211,0.061035,-0.061035
8026457458,0.00061035,0.00314331,-1.00492859,0.244141,-0.061035,-0.061035
8031425333,0.00125122,0.00325012,-1.00538635,0.305176,0.061035,0.000000
8036450250,0.00166321,0.00289917,-1.00624084,0.305176,0.000000,0.061035
8041467458,0.00230408,0.00190735,-1.00634766,0.366211,0.000000,-0.183105
8046465125,0.00326538,0.00114441,-1.00576782,0.244141,0.061035,-0.122070
8051457166,0.00381470,0.00126648,-1.00576782,0.244141,0.122070,-0.122070
8056416250,0.00372314,0.00172424,-1.00627136,0.244141,0.000000,-0.061035
8061475416,0.00325012,0.00167847,-1.00631714,0.366211,0.000000,-0.122070
8066463541,0.00285339,0.00132751,-1.00599670,0.305176,0.000000,-0.122070
8071440541,0.00268555,0.00143433,-1.00558472,0.366211,0.000000,0.000000
8076467958,0.00221252,0.00189209,-1.00523376,0.305176,0.061035,0.000000
8081430375,0.00126648,0.00241089,-1.00555420,0.305176,0.061035,-0.122070
8086477416,0.00056458,0.00302124,-1.00613403,0.366211,0.122070,-0.061035
8091478416,0.00054932,0.00350952,-1.00602722,0.366211,0.183105,0.000000
8096461125,0.00050354,0.00363159,-1.00573730,0.366211,0.122070,-0.061035
8101469291,0.00007629,0.00381470,-1.00573730,0.427246,0.122070,0.061035
8106469000,0.00015259,0.00440979,-1.00535583,0.427246,-0.061035,-0.122070
8111528666,0.00077820,0.00492859,-1.00480652,0.305176,0.061035,0.000000
8116434916,0.00149536,0.00515747,-1.00485229,0.305176,0.122070,-0.061035
8121486500,0.00209045,0.00503540,-1.00511169,0.244141,0.122070,0.000000
8126469916,0.00228882,0.00447083,-1.00517273,0.366211,-0.061035,0.000000
8131445083,0.00239563,0.00360107,-1.00520325,0.244141,-0.061035,-0.061035
8136501833,0.00300598,0.00289917,-1.00552368,0.244141,0.061035,-0.183105
8141476083,0.00389099,0.00242615,-1.00617981,0.183105,0.000000,0.000000
8146472208,0.00430298,0.00192261,-1.00648499,0.244141,0.061035,-0.061035
8151504041,0.00418091,0.00146484,-1.00585938,0.427246,0.000000,0.000000
8156474875,0.00415039,0.00103760,-1.00524902,0.305176,0.061035,0.000000
8161482250,0.00437927,0.00085449,-1.00532532,0.244141,0.122070,-0.122070
8166466666,0.00448608,0.00140381,-1.00588989,0.366211,0.000000,0.000000
8171462500,0.00418091,0.00238037,-1.00619507,0.305176,0.061035,-0.061035
8176467916,0.00363159,0.00280762,-1.00564575,0.244141,0.061035,0.000000
8181498375,0.00297546,0.00247192,-1.00497437,0.305176,0.000000,0.000000
