timestamp_ns,accel_x,accel_y,accel_z,gyro_x,gyro_y,gyro_z
62576875,-0.00015259,0.00294495,-1.00502014,0.244141,0.061035,-0.122070
71496958,0.00196838,0.00219727,-1.00329590,0.305176,0.122070,-0.122070
72605083,0.00335693,0.00212097,-1.00669861,0.366211,0.183105,-0.061035
77586041,0.00465393,0.00239563,-1.00880432,0.122070,-0.061035,0.000000
82594208,0.00619507,0.00218201,-1.00593567,0.305176,0.061035,-0.061035
88063250,0.00746155,0.00195312,-1.00453186,0.366211,0.061035,0.000000
93302916,0.00794983,0.00227356,-1.00654602,0.488281,0.000000,-0.122070
97584833,0.00787354,0.00250244,-1.00798035,0.183105,-0.061035,-0.061035
105581666,0.00729370,0.00230408,-1.00733948,0.244141,0.000000,0.000000
108441166,0.00616455,0.00251770,-1.00538635,0.183105,0.122070,-0.061035
119501375,0.00497437,0.00366211,-1.00453186,0.183105,0.000000,-0.183105
119526541,0.00384521,0.00474548,-1.00621033,0.305176,0.061035,-0.061035
126749791,0.00221252,0.00479126,-1.00741577,0.366211,0.122070,0.000000
128174750,0.00003052,0.00399780,-1.00645447,0.305176,0.061035,-0.183105
134269250,-0.00163269,0.00312805,-1.00636292,0.366211,-0.061035,-0.244141
138070791,-0.00236511,0.00250244,-1.00740051,0.427246,0.000000,-0.122070
143162333,-0.00253296,0.00187683,-1.00712585,0.305176,-0.061035,-0.061035
148307000,-0.00276184,0.00126648,-1.00596619,0.488281,0.244141,-0.061035
152600291,-0.00318909,0.00109863,-1.00497437,0.244141,0.000000,-0.061035
158380750,-0.00338745,0.00135803,-1.00453186,0.366211,0.000000,0.000000
163944041,-0.00297546,0.00201416,-1.00524902,0.427246,0.183105,-0.122070
168254041,-0.00192261,0.00317383,-1.00634766,0.244141,0.061035,0.000000
172576791,-0.00033569,0.00399780,-1.00640869,0.305176,0.122070,0.000000
177677000,0.00167847,0.00387573,-1.00559998,0.427246,0.122070,-0.122070
182593541,0.00358582,0.00349426,-1.00521851,0.305176,0.061035,-0.122070
187586708,0.00498962,0.00361633,-1.00558472,0.366211,0.061035,-0.122070
192598708,0.00607300,0.00402832,-1.00592041,0.244141,0.061035,-0.061035
197580375,0.00692749,0.00392151,-1.00547791,0.183105,0.000000,-0.061035
202566750,0.00724792,0.00320435,-1.00512695,0.366211,0.122070,-0.122070
207621750,0.00665283,0.00227356,-1.00616455,0.366211,0.061035,-0.183105
212673708,0.00534058,0.00137329,-1.00726318,0.305176,0.000000,-0.061035
217620416,0.00361633,0.00071716,-1.00671387,0.183105,0.000000,0.000000
222656625,0.00178528,0.00048828,-1.00566101,0.183105,0.061035,-0.183105
227619291,0.00042725,0.00085449,-1.00607300,0.305176,0.061035,-0.061035
232662666,-0.00044250,0.00154114,-1.00718689,0.488281,0.122070,0.000000
237614333,-0.00122070,0.00221252,-1.00689697,0.366211,0.000000,-0.061035
242653750,-0.00184631,0.00315857,-1.00581360,0.305176,0.061035,0.000000
247658000,-0.00201416,0.00439453,-1.00579834,0.427246,0.000000,-0.183105
252607125,-0.00169373,0.00529480,-1.00608826,0.183105,-0.061035,-0.183105
258129875,-0.00108337,0.00540161,-1.00566101,0.244141,0.061035,0.000000
262667750,-0.00045776,0.00477600,-1.00549316,0.366211,0.122070,0.000000
267623166,0.00013733,0.00387573,-1.00621033,0.244141,0.000000,-0.061035
272628041,0.00065613,0.00325012,-1.00730896,0.244141,0.061035,-0.183105
277647083,0.00106812,0.00296021,-1.00773621,0.488281,0.061035,0.000000
282642291,0.00186157,0.00274658,-1.00688171,0.305176,0.061035,-0.122070
287630208,0.00329590,0.00245667,-1.00546265,0.244141,0.183105,0.000000
292638041,0.00469971,0.00213623,-1.00508118,0.305176,0.000000,-0.122070
297621250,0.00543213,0.00195312,-1.00651550,0.244141,0.061035,-0.061035
302636333,0.00567627,0.00222778,-1.00758362,0.244141,0.061035,-0.183105
307636833,0.00558472,0.00296021,-1.00665283,0.244141,-0.061035,0.000000
312635708,0.00521851,0.00355530,-1.00544739,0.183105,0.061035,-0.061035
317618166,0.00518799,0.00373840,-1.00598145,0.244141,0.122070,-0.122070
322645041,0.00538635,0.00376892,-1.00743103,0.183105,0.061035,-0.122070
327709458,0.00489807,0.00357056,-1.00772095,0.244141,0.122070,-0.122070
332640416,0.00334167,0.00300598,-1.00622559,0.244141,0.000000,0.000000
337665833,0.00146484,0.00199890,-1.00523376,0.122070,0.061035,-0.183105
342632166,0.00012207,0.00097656,-1.00640869,0.000000,0.061035,-0.061035
347617500,-0.00100708,0.00054932,-1.00749207,0.244141,0.122070,0.061035
352570875,-0.00230408,0.00094604,-1.00659180,0.244141,0.122070,-0.122070
357673500,-0.00308228,0.00180054,-1.00550842,0.244141,-0.061035,0.000000
362645125,-0.00259399,0.00260925,-1.00587463,0.122070,0.000000,-0.061035
367625000,-0.00163269,0.00289917,-1.00633240,0.183105,0.000000,0.000000
372725166,-0.00094604,0.00309753,-1.00576782,0.183105,-0.061035,0.000000
377660333,-0.00015259,0.00419617,-1.00538635,0.305176,0.061035,-0.061035
382642750,0.00109863,0.00587463,-1.00611877,0.305176,0.061035,0.000000
387678333,0.00244141,0.00669861,-1.00666809,0.427246,0.122070,0.000000
392697583,0.00344849,0.00605774,-1.00576782,0.183105,-0.061035,-0.122070
397678250,0.00444031,0.00460815,-1.00448608,0.366211,0.061035,-0.061035
402671791,0.00546265,0.00302124,-1.00538635,0.244141,0.122070,0.061035
407659666,0.00584412,0.00181580,-1.00828552,0.366211,0.122070,-0.061035
412655875,0.00527954,0.00114441,-1.00965881,0.366211,0.122070,-0.183105
417679041,0.00418091,0.00053406,-1.00817871,0.244141,-0.061035,-0.122070
422658958,0.00340271,-0.00021362,-1.00584412,0.305176,0.000000,-0.244141
427647083,0.00318909,-0.00033569,-1.00479126,0.244141,0.061035,-0.122070
432722916,0.00303650,0.00045776,-1.00555420,0.305176,0.000000,-0.061035
437657875,0.00253296,0.00160217,-1.00677490,0.427246,0.122070,-0.061035
442681250,0.00155640,0.00253296,-1.00663757,0.488281,0.183105,-0.061035
447660333,0.00032043,0.00315857,-1.00515747,0.427246,0.061035,-0.061035
452633250,-0.00074768,0.00361633,-1.00451660,0.732422,0.061035,-0.122070
457841666,-0.00108337,0.00418091,-1.00598145,0.671387,0.061035,-0.183105
462697083,-0.00073242,0.00503540,-1.00627136,0.610352,0.122070,-0.122070
467742250,-0.00050354,0.00563049,-1.00424194,0.427246,0.244141,-0.183105
472657000,-0.00086975,0.00575256,-1.00405884,0.305176,0.000000,-0.183105
477660791,-0.00152588,0.00601196,-1.00695801,0.305176,0.061035,-0.183105
482682541,-0.00151062,0.00633240,-1.00933838,0.305176,0.061035,-0.061035
487678125,-0.00045776,0.00627136,-1.00910950,0.305176,0.183105,-0.061035
492665791,0.00096130,0.00582886,-1.00767517,0.244141,0.000000,0.000000
497674000,0.00196838,0.00524902,-1.00662231,0.244141,0.122070,-0.122070
502698375,0.00251770,0.00462341,-1.00616455,0.427246,0.183105,-0.061035
507678708,0.00308228,0.00389099,-1.00579834,0.244141,0.000000,0.000000
512685583,0.00415039,0.00302124,-1.00569153,0.183105,0.122070,-0.122070
517680250,0.00534058,0.00215149,-1.00619507,0.244141,0.183105,-0.061035
522714041,0.00559998,0.00140381,-1.00639343,0.244141,0.122070,-0.061035
527689583,0.00514221,0.00073242,-1.00596619,0.366211,0.122070,-0.122070
532681833,0.00477600,-0.00018311,-1.00592041,0.366211,-0.122070,-0.061035
537705500,0.00451660,-0.00135803,-1.00639343,0.305176,0.244141,-0.122070
542702666,0.00382996,-0.00196838,-1.00634766,0.366211,0.122070,-0.061035
547685000,0.00285339,-0.00155640,-1.00575256,0.488281,0.183105,-0.061035
552662708,0.00205994,-0.00028992,-1.00529480,0.488281,0.183105,0.000000
557700958,0.00155640,0.00144958,-1.00486755,0.549316,0.244141,-0.122070
562689416,0.00083923,0.00283813,-1.00440979,0.366211,0.061035,-0.122070
567689458,0.00007629,0.00361633,-1.00434875,0.549316,0.122070,-0.122070
572691125,-0.00012207,0.00453186,-1.00367737,0.366211,0.061035,-0.061035
577718541,-0.00015259,0.00595093,-1.00350952,0.305176,0.061035,0.000000
582703416,-0.00053406,0.00720215,-1.00712585,0.305176,0.061035,0.000000
587769916,-0.00059509,0.00737000,-1.01162720,0.061035,-0.061035,-0.122070
592689041,0.00024414,0.00668335,-1.01142883,0.244141,0.000000,-0.061035
597699250,0.00131226,0.00584412,-1.00819397,0.244141,0.000000,-0.183105
602692625,0.00202942,0.00512695,-1.00621033,0.305176,0.000000,-0.061035
607697791,0.00267029,0.00430298,-1.00573730,0.244141,0.061035,-0.122070
612684041,0.00349426,0.00306702,-1.00544739,0.305176,0.122070,-0.183105
617718375,0.00425720,0.00172424,-1.00506592,0.183105,0.183105,-0.061035
622691958,0.00483704,0.00062561,-1.00517273,0.366211,0.244141,0.000000
627695208,0.00523376,-0.00015259,-1.00631714,0.183105,0.122070,-0.061035
632677750,0.00521851,-0.00083923,-1.00758362,0.305176,0.061035,-0.122070
637697291,0.00465393,-0.00128174,-1.00706482,0.305176,0.061035,0.000000
642730333,0.00358582,-0.00100708,-1.00546265,0.366211,0.061035,-0.183105
647682458,0.00222778,-0.00012207,-1.00524902,0.244141,0.061035,0.061035
652739125,0.00154114,0.00054932,-1.00552368,0.366211,0.061035,-0.122070
657700375,0.00154114,0.00100708,-1.00498962,0.366211,0.122070,-0.061035
662707333,0.00108337,0.00186157,-1.00448608,0.366211,-0.061035,0.000000
667699083,0.00013733,0.00292969,-1.00422668,0.366211,0.061035,-0.061035
672711208,-0.00056458,0.00373840,-1.00479126,0.488281,0.061035,-0.183105
677697125,-0.00090027,0.00450134,-1.00663757,0.244141,0.122070,-0.061035
682698708,-0.00117493,0.00537109,-1.00767517,0.244141,-0.061035,-0.061035
687724041,-0.00125122,0.00587463,-1.00662231,0.305176,0.000000,-0.061035
692796166,-0.00097656,0.00564575,-1.00541687,0.305176,0.000000,-0.122070
697702291,-0.00077820,0.00492859,-1.00541687,0.244141,0.000000,-0.061035
702717833,-0.00076294,0.00454712,-1.00579834,0.244141,0.000000,-0.061035
707710416,-0.00042725,0.00454712,-1.00561523,0.427246,0.000000,-0.183105
712699916,0.00050354,0.00433350,-1.00498962,0.427246,0.000000,0.000000
717726541,0.00161743,0.00364685,-1.00511169,0.488281,0.122070,-0.122070
722734333,0.00213623,0.00245667,-1.00598145,0.427246,0.000000,-0.061035
727703458,0.00215149,0.00070190,-1.00595093,0.305176,0.000000,-0.244141
732705333,0.00244141,-0.00102234,-1.00529480,0.366211,0.183105,-0.122070
737709125,0.00335693,-0.00224304,-1.00558472,0.427246,-0.061035,-0.183105
742728541,0.00440979,-0.00299072,-1.00608826,0.488281,0.061035,0.000000
747690333,0.00480652,-0.00320435,-1.00556946,0.366211,0.000000,0.000000
752765958,0.00434875,-0.00265503,-1.00534058,0.488281,0.122070,-0.244141
757720083,0.00372314,-0.00148010,-1.00683594,0.366211,0.000000,-0.183105
762756208,0.00372314,0.00064087,-1.00874329,0.366211,0.122070,0.000000
767734125,0.00408936,0.00390625,-1.00857544,0.427246,0.000000,-0.061035
772709708,0.00411987,0.00752258,-1.00627136,0.610352,0.122070,-0.061035
777700875,0.00364685,0.01057434,-1.00447083,0.427246,-0.183105,0.000000
782740000,0.00263977,0.01254272,-1.00462341,0.488281,0.122070,0.000000
787737458,0.00155640,0.01356506,-1.00593567,0.427246,0.061035,0.000000
792731958,0.00082397,0.01388550,-1.00703430,0.244141,0.000000,-0.061035
797760500,0.00053406,0.01309204,-1.00718689,0.427246,0.061035,-0.061035
802743666,0.00067139,0.01109314,-1.00682068,0.366211,0.061035,0.061035
807746708,0.00093079,0.00823975,-1.00660706,0.427246,0.061035,-0.122070
812739083,0.00102234,0.00500488,-1.00613403,0.366211,0.061035,-0.061035
817744708,0.00093079,0.00199890,-1.00570679,0.366211,0.000000,-0.183105
822736791,0.00070190,-0.00057983,-1.00665283,0.427246,0.000000,-0.061035
827732791,0.00051880,-0.00317383,-1.00717163,0.366211,-0.122070,-0.122070
832750958,0.00076294,-0.00602722,-1.00645447,0.305176,0.061035,-0.122070
837722000,0.00157166,-0.00848389,-1.00703430,0.366211,-0.061035,-0.183105
842752666,0.00233459,-0.00923157,-1.00836182,0.366211,0.061035,-0.122070
847737416,0.00270081,-0.00813293,-1.00807190,0.305176,0.061035,-0.122070
852757666,0.00318909,-0.00633240,-1.00701904,0.305176,0.122070,-0.122070
857774833,0.00418091,-0.00427246,-1.00616455,0.427246,0.122070,-0.061035
862742541,0.00506592,-0.00178528,-1.00488281,0.305176,0.061035,-0.183105
867755458,0.00517273,0.00077820,-1.00450134,0.305176,0.122070,-0.061035
872760708,0.00469971,0.00346375,-1.00559998,0.305176,-0.122070,-0.122070
877754458,0.00390625,0.00654602,-1.00625610,0.305176,0.061035,-0.122070
882732083,0.00273132,0.00956726,-1.00581360,0.366211,0.000000,0.000000
887784416,0.00163269,0.01147461,-1.00564575,0.305176,0.000000,0.061035
892768625,0.00106812,0.01199341,-1.00624084,0.244141,-0.122070,-0.061035
897769291,0.00074768,0.01170349,-1.00694275,0.305176,0.000000,-0.122070
902775708,0.00019836,0.01100159,-1.00701904,0.305176,0.000000,0.000000
907759791,-0.00061035,0.00976562,-1.00634766,0.183105,0.061035,0.000000
912766666,-0.00129700,0.00772095,-1.00576782,0.305176,0.000000,0.000000
917757458,-0.00154114,0.00518799,-1.00602722,0.305176,0.122070,-0.061035
922757250,-0.00131226,0.00259399,-1.00646973,0.366211,0.061035,0.000000
927729458,-0.00064087,0.00025940,-1.00630188,0.366211,0.122070,0.000000
932806000,0.00018311,-0.00170898,-1.00617981,0.305176,0.061035,0.000000
937806458,0.00100708,-0.00323486,-1.00602722,0.305176,0.000000,-0.061035
942760666,0.00178528,-0.00399780,-1.00531006,0.366211,0.122070,0.000000
947755208,0.00267029,-0.00413513,-1.00514221,0.305176,0.122070,0.000000
952819250,0.00386047,-0.00396729,-1.00601196,0.488281,0.000000,-0.122070
957793000,0.00479126,-0.00312805,-1.00672913,0.244141,0.000000,-0.061035
962784666,0.00491333,-0.00141907,-1.00672913,0.183105,0.122070,-0.061035
967774500,0.00468445,0.00080872,-1.00621033,0.183105,0.061035,-0.183105
972786833,0.00485229,0.00299072,-1.00537109,0.183105,-0.061035,0.000000
977797333,0.00534058,0.00480652,-1.00517273,0.244141,0.061035,0.000000
982777791,0.00552368,0.00633240,-1.00617981,0.305176,0.122070,-0.061035
987809625,0.00488281,0.00756836,-1.00740051,0.244141,0.122070,-0.122070
992743791,0.00373840,0.00836182,-1.00749207,0.366211,0.122070,-0.122070
997738291,0.00267029,0.00852966,-1.00662231,0.366211,0.000000,-0.061035
1002815166,0.00177002,0.00808716,-1.00622559,0.305176,0.061035,-0.061035
1008077875,0.00065613,0.00733948,-1.00648499,0.305176,0.061035,-0.183105
1012787333,-0.00080872,0.00642395,-1.00608826,0.305176,0.122070,-0.183105
1017787083,-0.00212097,0.00509644,-1.00561523,0.427246,0.244141,0.000000
1022781583,-0.00260925,0.00317383,-1.00672913,0.244141,0.183105,0.000000
1027786666,-0.00195312,0.00097656,-1.00842285,0.183105,0.061035,-0.183105
1032797625,-0.00048828,-0.00079346,-1.00834656,0.366211,0.122070,0.000000
1037778916,0.00076294,-0.00204468,-1.00703430,0.305176,-0.061035,-0.061035
1042811708,0.00135803,-0.00260925,-1.00679016,0.366211,0.122070,0.061035
1047789833,0.00198364,-0.00251770,-1.00730896,0.366211,0.122070,0.000000
1052961750,0.00318909,-0.00228882,-1.00668335,0.366211,0.122070,-0.122070
1057816000,0.00437927,-0.00196838,-1.00498962,0.488281,0.122070,-0.061035
1062826333,0.00520325,-0.00106812,-1.00439453,0.305176,0.000000,-0.122070
1067807791,0.00572205,0.00071716,-1.00569153,0.305176,0.061035,-0.061035
1072782958,0.00573730,0.00291443,-1.00715637,0.366211,0.061035,-0.183105
1077776791,0.00514221,0.00459290,-1.00746155,0.427246,0.000000,-0.061035
1082773333,0.00428772,0.00541687,-1.00724792,0.244141,0.000000,-0.244141
1087771833,0.00357056,0.00595093,-1.00715637,0.366211,0.061035,0.000000
1092755750,0.00283813,0.00665283,-1.00659180,0.183105,-0.061035,-0.061035
1097793583,0.00192261,0.00723267,-1.00613403,0.061035,-0.122070,-0.061035
1102766291,0.00050354,0.00721741,-1.00715637,0.366211,-0.061035,0.000000
1107772416,-0.00090027,0.00674438,-1.00845337,0.366211,0.000000,-0.122070
1112786916,-0.00134277,0.00611877,-1.00770569,0.244141,0.122070,-0.122070
1117837666,-0.00106812,0.00527954,-1.00573730,0.305176,-0.061035,-0.183105
1122790916,-0.00056458,0.00431824,-1.00546265,0.366211,0.000000,-0.061035
1127810375,-0.00010681,0.00355530,-1.00660706,0.305176,0.061035,-0.183105
1132821250,0.00024414,0.00228882,-1.00675964,0.488281,0.061035,-0.122070
1137850000,0.00068665,0.00035095,-1.00639343,0.366211,0.122070,-0.122070
1142804458,0.00117493,-0.00103760,-1.00639343,0.549316,0.000000,0.000000
1147770708,0.00201416,-0.00146484,-1.00566101,0.366211,0.122070,-0.122070
1152823041,0.00283813,-0.00146484,-1.00512695,0.427246,0.061035,-0.183105
1157831958,0.00292969,-0.00122070,-1.00582886,0.427246,0.000000,-0.061035
1162802583,0.00276184,-0.00044250,-1.00596619,0.488281,-0.061035,-0.061035
1167845416,0.00299072,0.00097656,-1.00549316,0.427246,0.000000,-0.061035
1172829291,0.00334167,0.00292969,-1.00587463,0.549316,0.061035,-0.061035
1177801000,0.00343323,0.00500488,-1.00613403,0.305176,0.061035,-0.183105
1182838333,0.00346375,0.00679016,-1.00555420,0.366211,0.122070,-0.122070
1187811250,0.00354004,0.00796509,-1.00546265,0.366211,0.000000,-0.122070
1192809166,0.00312805,0.00845337,-1.00596619,0.427246,0.061035,0.000000
1197800250,0.00231934,0.00825500,-1.00608826,0.244141,-0.061035,-0.061035
1202786958,0.00173950,0.00759888,-1.00567627,0.244141,0.000000,-0.122070
1207896458,0.00129700,0.00680542,-1.00540161,0.244141,0.122070,0.000000
1212818916,0.00062561,0.00567627,-1.00573730,0.366211,0.244141,0.122070
1217792083,-0.00012207,0.00413513,-1.00614929,0.244141,0.000000,0.000000
1222845416,-0.00071716,0.00259399,-1.00625610,0.305176,0.122070,-0.122070
1227778666,-0.00051880,0.00135803,-1.00650024,0.305176,0.000000,0.000000
1232797000,0.00054932,0.00025940,-1.00682068,0.244141,0.000000,-0.122070
1237834625,0.00138855,-0.00067139,-1.00694275,0.427246,0.061035,-0.183105
1242829833,0.00143433,-0.00088501,-1.00698853,0.305176,0.000000,-0.122070
1247831916,0.00157166,-0.00025940,-1.00726318,0.244141,0.122070,-0.122070
1252866125,0.00248718,0.00061035,-1.00784302,0.244141,0.061035,-0.183105
1257821416,0.00393677,0.00119019,-1.00811768,0.244141,0.061035,0.000000
1262821833,0.00494385,0.00151062,-1.00727844,0.183105,0.122070,-0.061035
1267803041,0.00500488,0.00195312,-1.00593567,0.183105,0.122070,-0.061035
1272814166,0.00492859,0.00300598,-1.00564575,0.244141,0.122070,0.000000
1277809833,0.00514221,0.00440979,-1.00616455,0.305176,0.000000,-0.061035
1282807750,0.00486755,0.00553894,-1.00654602,0.305176,-0.122070,0.000000
1287839083,0.00379944,0.00630188,-1.00666809,0.366211,0.122070,0.000000
1292792416,0.00289917,0.00659180,-1.00592041,0.244141,0.061035,-0.122070
1297826583,0.00265503,0.00657654,-1.00531006,0.244141,0.061035,0.000000
1302827041,0.00236511,0.00665283,-1.00610352,0.244141,0.061035,0.122070
1307815500,0.00134277,0.00660706,-1.00698853,0.305176,0.122070,0.000000
1312898000,0.00006104,0.00573730,-1.00651550,0.366211,0.000000,-0.122070
1317824500,-0.00024414,0.00404358,-1.00503540,0.183105,0.061035,-0.061035
1322844500,0.00013733,0.00241089,-1.00440979,0.244141,0.061035,-0.122070
1327828083,0.00019836,0.00102234,-1.00540161,0.305176,0.122070,-0.122070
1332836791,0.00006104,-0.00057983,-1.00634766,0.183105,0.061035,-0.061035
1337841958,0.00018311,-0.00222778,-1.00604248,0.244141,0.061035,0.000000
1342829958,0.00016785,-0.00329590,-1.00582886,0.183105,0.122070,-0.122070
1347801375,0.00004578,-0.00354004,-1.00657654,0.305176,0.061035,-0.061035
1352873791,0.00065613,-0.00311279,-1.00685120,0.244141,0.000000,-0.061035
1357803083,0.00204468,-0.00202942,-1.00584412,0.305176,-0.061035,-0.061035
1362842791,0.00300598,-0.00033569,-1.00509644,0.244141,0.061035,-0.122070
1367864708,0.00326538,0.00149536,-1.00567627,0.305176,0.122070,-0.122070
1372847083,0.00358582,0.00291443,-1.00648499,0.366211,0.000000,-0.061035
1377856375,0.00405884,0.00436401,-1.00628662,0.183105,0.000000,-0.061035
1382858916,0.00428772,0.00639343,-1.00572205,0.305176,-0.061035,-0.183105
1387860416,0.00436401,0.00859070,-1.00596619,0.305176,0.000000,-0.061035
1392812000,0.00454712,0.00985718,-1.00630188,0.366211,0.122070,-0.061035
1397835458,0.00450134,0.00987244,-1.00572205,0.427246,0.061035,-0.122070
1402815041,0.00387573,0.00927734,-1.00502014,0.366211,0.122070,-0.122070
1407823916,0.00280762,0.00831604,-1.00495911,0.305176,0.061035,-0.061035
1412821958,0.00154114,0.00672913,-1.00511169,0.366211,0.183105,-0.061035
1418057083,0.00042725,0.00463867,-1.00555420,0.244141,0.061035,-0.183105
1422833500,-0.00007629,0.00280762,-1.00633240,0.183105,0.122070,-0.061035
1427834541,0.00007629,0.00166321,-1.00645447,0.183105,0.183105,-0.122070
1432865250,0.00045776,0.00085449,-1.00579834,0.244141,0.061035,-0.183105
1437833833,0.00065613,0.00018311,-1.00563049,0.244141,0.000000,0.000000
1442860750,0.00079346,-0.00044250,-1.00617981,0.183105,0.122070,-0.061035
1447850375,0.00088501,-0.00088501,-1.00651550,0.305176,0.122070,0.000000
1452861750,0.00074768,-0.00067139,-1.00621033,0.183105,-0.061035,-0.061035
1457855458,0.00071716,0.00028992,-1.00567627,0.366211,0.061035,-0.122070
1462850083,0.00138855,0.00114441,-1.00534058,0.244141,0.061035,-0.061035
1467863291,0.00262451,0.00128174,-1.00526428,0.366211,0.244141,0.061035
1472880166,0.00366211,0.00134277,-1.00587463,0.122070,0.183105,0.000000
1477855541,0.00375366,0.00192261,-1.00759888,0.366211,0.183105,-0.122070
1482845000,0.00286865,0.00292969,-1.00886536,0.244141,0.061035,-0.183105
1487822458,0.00216675,0.00431824,-1.00741577,0.488281,0.000000,-0.122070
1492837208,0.00227356,0.00582886,-1.00492859,0.366211,0.122070,0.061035
1497867958,0.00292969,0.00726318,-1.00517273,0.305176,0.122070,-0.122070
1502858625,0.00369263,0.00846863,-1.00651550,0.366211,0.122070,-0.061035
1507853500,0.00425720,0.00907898,-1.00662231,0.366211,0.000000,-0.122070
1512843166,0.00448608,0.00862122,-1.00662231,0.244141,0.061035,-0.183105
1517865375,0.00427246,0.00708008,-1.00691223,0.427246,0.244141,0.000000
1522894583,0.00398254,0.00508118,-1.00738525,0.305176,0.000000,0.000000
1527843125,0.00366211,0.00326538,-1.00700378,0.366211,0.061035,0.000000
1532860791,0.00292969,0.00161743,-1.00575256,0.427246,0.122070,0.000000
1537841166,0.00192261,-0.00018311,-1.00598145,0.305176,0.061035,-0.061035
1542865416,0.00093079,-0.00189209,-1.00740051,0.305176,0.061035,-0.061035
1547839541,-0.00016785,-0.00308228,-1.00701904,0.305176,0.061035,0.000000
1552887500,-0.00106812,-0.00352478,-1.00544739,0.366211,0.061035,-0.183105
1557873000,-0.00117493,-0.00328064,-1.00506592,0.305176,-0.061035,0.061035
1562868375,-0.00073242,-0.00227356,-1.00547791,0.183105,0.122070,-0.122070
1567861708,-0.00042725,-0.00035095,-1.00547791,0.366211,0.061035,-0.061035
1572934541,-0.00041199,0.00207520,-1.00543213,0.366211,0.061035,-0.061035
1577873916,-0.00044250,0.00415039,-1.00608826,0.244141,0.061035,-0.122070
1582876791,-0.00013733,0.00541687,-1.00724792,0.366211,0.000000,0.061035
1587872541,0.00071716,0.00622559,-1.00799561,0.366211,0.122070,-0.061035
1592855875,0.00166321,0.00672913,-1.00738525,0.244141,0.000000,-0.122070
1597860500,0.00213623,0.00672913,-1.00595093,0.244141,0.061035,0.000000
1602883291,0.00230408,0.00608826,-1.00544739,0.366211,0.122070,-0.061035
1607872541,0.00248718,0.00521851,-1.00595093,0.427246,0.122070,0.000000
1612872458,0.00296021,0.00488281,-1.00639343,0.427246,0.061035,0.000000
1617874541,0.00390625,0.00482178,-1.00616455,0.305176,0.000000,-0.061035
1622878625,0.00479126,0.00427246,-1.00576782,0.366211,0.061035,-0.061035
1627892916,0.00517273,0.00341797,-1.00631714,0.305176,0.061035,-0.061035
1632837333,0.00514221,0.00283813,-1.00735474,0.366211,0.061035,-0.183105
1637850625,0.00453186,0.00245667,-1.00744629,0.305176,0.000000,-0.122070
1642899083,0.00364685,0.00202942,-1.00662231,0.366211,0.000000,-0.061035
1647859333,0.00328064,0.00131226,-1.00613403,0.183105,0.000000,-0.061035
1652887166,0.00343323,0.00015259,-1.00642395,0.183105,0.000000,-0.061035
1657861125,0.00318909,-0.00085449,-1.00674438,0.183105,0.061035,-0.244141
1662861791,0.00215149,-0.00128174,-1.00662231,0.366211,0.244141,-0.061035
1667873416,0.00122070,-0.00099182,-1.00639343,0.244141,0.000000,-0.183105
1672858333,0.00109863,0.00000000,-1.00650024,0.244141,0.000000,0.000000
1677917875,0.00097656,0.00128174,-1.00659180,0.244141,0.122070,-0.122070
1682889166,0.00042725,0.00257874,-1.00601196,0.305176,0.000000,-0.061035
1687892416,0.00016785,0.00410461,-1.00508118,0.366211,0.061035,0.061035
1692904750,0.00068665,0.00581360,-1.00480652,0.366211,0.122070,-0.122070
1697865208,0.00167847,0.00737000,-1.00567627,0.366211,0.122070,0.000000
1702885291,0.00285339,0.00895691,-1.00697327,0.122070,0.000000,-0.244141
1707862833,0.00376892,0.01014709,-1.00733948,0.244141,0.122070,-0.122070
1712866541,0.00405884,0.00991821,-1.00671387,0.427246,0.061035,-0.061035
1717881875,0.00392151,0.00857544,-1.00605774,0.366211,0.122070,0.000000
1722892666,0.00367737,0.00691223,-1.00593567,0.366211,-0.061035,-0.122070
1727885666,0.00363159,0.00505066,-1.00602722,0.305176,0.061035,-0.183105
1732886208,0.00349426,0.00279236,-1.00549316,0.427246,0.061035,-0.122070
1737871708,0.00265503,0.00053406,-1.00495911,0.366211,-0.122070,-0.061035
1742908458,0.00122070,-0.00086975,-1.00567627,0.427246,0.061035,-0.061035
1747902791,0.00000000,-0.00155640,-1.00714111,0.244141,-0.061035,-0.183105
1752937708,-0.00024414,-0.00201416,-1.00834656,0.183105,-0.061035,-0.122070
1757908750,0.00012207,-0.00198364,-1.00846863,0.366211,0.000000,0.000000
1762939666,0.00035095,-0.00109863,-1.00744629,0.366211,0.122070,0.061035
1767903416,0.00039673,0.00013733,-1.00680542,0.244141,0.061035,0.000000
1772904750,0.00062561,0.00112915,-1.00711060,0.244141,0.000000,-0.183105
1777888208,0.00141907,0.00177002,-1.00720215,0.244141,0.183105,-0.061035
1782910416,0.00216675,0.00256348,-1.00694275,0.366211,0.000000,-0.122070
1787908791,0.00207520,0.00367737,-1.00680542,0.305176,0.061035,-0.183105
1792871125,0.00158691,0.00468445,-1.00651550,0.244141,-0.061035,-0.183105
1797901875,0.00155640,0.00532532,-1.00601196,0.366211,0.000000,-0.183105
1802904583,0.00215149,0.00585938,-1.00546265,0.366211,0.122070,0.061035
1807908416,0.00296021,0.00633240,-1.00509644,0.244141,0.000000,-0.061035
1812926916,0.00393677,0.00668335,-1.00531006,0.305176,0.122070,-0.061035
1817926666,0.00488281,0.00682068,-1.00593567,0.427246,0.122070,0.000000
1822912500,0.00512695,0.00659180,-1.00611877,0.427246,0.183105,0.061035
1827891750,0.00451660,0.00598145,-1.00621033,0.488281,0.000000,0.000000
1832960500,0.00369263,0.00527954,-1.00715637,0.366211,0.061035,0.061035
1837901875,0.00326538,0.00483704,-1.00817871,0.488281,0.122070,-0.061035
1842914833,0.00292969,0.00430298,-1.00784302,0.488281,0.000000,-0.061035
1847912250,0.00205994,0.00303650,-1.00640869,0.427246,0.000000,-0.183105
1852960958,0.00086975,0.00143433,-1.00566101,0.427246,0.122070,-0.122070
1857940041,0.00006104,0.00035095,-1.00662231,0.427246,0.061035,-0.061035
1862916666,0.00000000,-0.00021362,-1.00793457,0.427246,0.000000,-0.122070
1867908666,0.00022888,-0.00079346,-1.00726318,0.427246,0.061035,-0.061035
1872952083,0.00021362,-0.00131226,-1.00524902,0.305176,0.000000,0.000000
1877902583,0.00028992,-0.00137329,-1.00465393,0.427246,0.000000,-0.061035
1882926791,0.00088501,-0.00073242,-1.00585938,0.427246,0.122070,-0.061035
1887938666,0.00170898,0.00057983,-1.00653076,0.549316,0.061035,0.000000
1892953666,0.00253296,0.00218201,-1.00607300,0.366211,0.061035,-0.061035
1897980291,0.00332642,0.00355530,-1.00592041,0.488281,-0.061035,-0.061035
1902927750,0.00346375,0.00477600,-1.00645447,0.366211,0.000000,-0.061035
1907946333,0.00302124,0.00601196,-1.00689697,0.305176,0.061035,0.000000
1912904791,0.00288391,0.00695801,-1.00695801,0.488281,0.061035,-0.061035
1918019208,0.00315857,0.00733948,-1.00698853,0.427246,-0.061035,-0.122070
1922963333,0.00314331,0.00703430,-1.00689697,0.366211,0.122070,-0.122070
1927901375,0.00250244,0.00621033,-1.00625610,0.427246,0.061035,-0.061035
1932954291,0.00146484,0.00546265,-1.00531006,0.427246,0.000000,-0.122070
1937942791,0.00044250,0.00523376,-1.00456238,0.366211,0.000000,-0.061035
1942929958,-0.00010681,0.00526428,-1.00463867,0.488281,0.122070,-0.061035
1947954958,-0.00041199,0.00505066,-1.00582886,0.244141,0.000000,0.061035
1952967500,-0.00070190,0.00430298,-1.00764465,0.366211,-0.061035,-0.061035
1957913875,-0.00053406,0.00334167,-1.00862122,0.183105,0.122070,-0.122070
1962944625,0.00027466,0.00231934,-1.00735474,0.366211,0.000000,-0.122070
1967942666,0.00131226,0.00137329,-1.00553894,0.305176,0.183105,-0.061035
1972909541,0.00231934,0.00050354,-1.00553894,0.366211,0.061035,-0.122070
1977950625,0.00332642,-0.00018311,-1.00671387,0.244141,-0.061035,-0.122070
1982926125,0.00413513,-0.00070190,-1.00711060,0.244141,0.000000,-0.244141
1988002625,0.00431824,-0.00123596,-1.00642395,0.244141,0.122070,-0.183105
1992951875,0.00424194,-0.00177002,-1.00587463,0.366211,-0.061035,0.122070
1997911208,0.00442505,-0.00201416,-1.00579834,0.366211,0.244141,-0.122070
2002934625,0.00476074,-0.00190735,-1.00564575,0.366211,0.061035,0.000000
2007952416,0.00473022,-0.00114441,-1.00526428,0.366211,0.183105,0.061035
2012910916,0.00416565,0.00041199,-1.00524902,0.305176,-0.061035,-0.122070
2017944541,0.00349426,0.00218201,-1.00578308,0.305176,0.183105,0.000000
2022958625,0.00291443,0.00375366,-1.00633240,0.305176,0.061035,-0.061035
2027944416,0.00233459,0.00512695,-1.00627136,0.183105,0.061035,0.000000
2032945958,0.00173950,0.00621033,-1.00573730,0.244141,0.061035,-0.061035
2037930041,0.00111389,0.00674438,-1.00552368,0.427246,0.122070,-0.061035
2042963500,0.00053406,0.00643921,-1.00627136,0.488281,0.061035,-0.122070
2047921333,0.00033569,0.00544739,-1.00704956,0.366211,0.183105,-0.122070
2052974583,0.00076294,0.00422668,-1.00657654,0.305176,0.183105,-0.122070
2057946750,0.00125122,0.00302124,-1.00559998,0.305176,-0.061035,-0.061035
2062948833,0.00135803,0.00196838,-1.00587463,0.244141,0.000000,-0.183105
2067954833,0.00154114,0.00114441,-1.00720215,0.305176,0.000000,0.000000
2072953500,0.00198364,0.00059509,-1.00747681,0.122070,-0.061035,-0.122070
2077949416,0.00274658,0.00050354,-1.00651550,0.427246,0.122070,0.061035
2082944500,0.00370789,0.00061035,-1.00631714,0.366211,0.183105,0.000000
2087956458,0.00434875,0.00064087,-1.00679016,0.244141,0.061035,-0.122070
2093025666,0.00428772,0.00100708,-1.00640869,0.305176,0.122070,-0.244141
2097947041,0.00392151,0.00184631,-1.00575256,0.244141,0.061035,-0.183105
2102974458,0.00366211,0.00259399,-1.00605774,0.122070,0.000000,-0.244141
2107966416,0.00312805,0.00317383,-1.00654602,0.183105,0.061035,0.061035
2112951000,0.00230408,0.00349426,-1.00610352,0.366211,0.061035,-0.061035
2117986083,0.00161743,0.00302124,-1.00549316,0.183105,0.061035,0.061035
2122947333,0.00071716,0.00216675,-1.00564575,0.305176,0.000000,-0.122070
2127951791,-0.00047302,0.00195312,-1.00621033,0.366211,0.061035,0.000000
2132960708,-0.00166321,0.00221252,-1.00640869,0.244141,0.000000,-0.061035
2137958458,-0.00248718,0.00219727,-1.00613403,0.183105,0.122070,-0.061035
2142957541,-0.00227356,0.00193787,-1.00582886,0.366211,0.061035,0.000000
2147952791,-0.00137329,0.00219727,-1.00579834,0.366211,0.122070,-0.061035
2152972708,-0.00082397,0.00297546,-1.00598145,0.427246,0.000000,0.000000
2157950041,-0.00057983,0.00363159,-1.00630188,0.305176,0.061035,-0.183105
2162950375,0.00006104,0.00399780,-1.00621033,0.244141,0.122070,-0.122070
2167999166,0.00117493,0.00405884,-1.00590515,0.305176,0.000000,-0.122070
2172970375,0.00209045,0.00352478,-1.00619507,0.427246,0.122070,-0.061035
2177947583,0.00238037,0.00262451,-1.00651550,0.488281,0.122070,-0.244141
2182968375,0.00282288,0.00201416,-1.00610352,0.366211,0.183105,-0.061035
2187970708,0.00375366,0.00202942,-1.00595093,0.305176,0.122070,-0.061035
2192973083,0.00442505,0.00224304,-1.00660706,0.427246,0.000000,-0.061035
2198021125,0.00456238,0.00207520,-1.00694275,0.366211,-0.061035,-0.061035
2202965000,0.00460815,0.00163269,-1.00624084,0.366211,0.122070,-0.122070
2207962833,0.00447083,0.00140381,-1.00529480,0.183105,0.061035,0.061035
2212951500,0.00361633,0.00152588,-1.00544739,0.305176,0.122070,0.000000
2217982916,0.00257874,0.00215149,-1.00622559,0.427246,0.000000,-0.122070
2222978041,0.00205994,0.00325012,-1.00588989,0.305176,0.000000,-0.061035
2227977083,0.00190735,0.00413513,-1.00466919,0.305176,0.061035,-0.061035
2232975750,0.00167847,0.00436401,-1.00486755,0.183105,0.000000,-0.122070
2237976208,0.00125122,0.00444031,-1.00662231,0.244141,0.000000,-0.061035
2242968666,0.00105286,0.00448608,-1.00770569,0.183105,0.000000,-0.122070
2247984791,0.00096130,0.00419617,-1.00715637,0.427246,-0.061035,-0.183105
2252983083,0.00042725,0.00395203,-1.00621033,0.305176,0.061035,-0.122070
2257986708,-0.00024414,0.00428772,-1.00617981,0.305176,-0.061035,-0.061035
2262985291,-0.00033569,0.00480652,-1.00683594,0.244141,0.000000,-0.061035
2267958208,0.00022888,0.00444031,-1.00698853,0.305176,0.122070,0.000000
2272982000,0.00103760,0.00340271,-1.00642395,0.366211,0.061035,-0.061035
2277968250,0.00183105,0.00283813,-1.00570679,0.183105,0.061035,-0.061035
2282995125,0.00254822,0.00303650,-1.00534058,0.305176,0.183105,-0.061035
2287993791,0.00296021,0.00338745,-1.00532532,0.366211,-0.061035,-0.122070
2292961458,0.00314331,0.00344849,-1.00538635,0.366211,0.122070,-0.061035
2297961208,0.00332642,0.00311279,-1.00520325,0.305176,0.061035,-0.122070
2302977833,0.00343323,0.00234985,-1.00518799,0.427246,0.061035,-0.061035
2307983708,0.00337219,0.00160217,-1.00581360,0.305176,0.061035,-0.122070
2312968166,0.00311279,0.00131226,-1.00674438,0.244141,0.000000,0.000000
2317981958,0.00263977,0.00119019,-1.00697327,0.183105,0.061035,-0.061035
2322991791,0.00212097,0.00102234,-1.00688171,0.122070,0.244141,0.000000
2327996708,0.00192261,0.00093079,-1.00694275,0.244141,0.122070,-0.061035
2332971750,0.00222778,0.00080872,-1.00656128,0.244141,0.122070,-0.061035
2337981250,0.00256348,0.00077820,-1.00550842,0.244141,0.000000,-0.061035
2342983416,0.00231934,0.00151062,-1.00488281,0.305176,0.061035,-0.061035
2347968291,0.00181580,0.00288391,-1.00524902,0.427246,-0.061035,-0.061035
2353102875,0.00189209,0.00405884,-1.00587463,0.366211,0.061035,-0.061035
2357989958,0.00216675,0.00445557,-1.00598145,0.366211,0.061035,-0.122070
2362995916,0.00183105,0.00425720,-1.00607300,0.122070,0.000000,-0.183105
2367999625,0.00120544,0.00411987,-1.00654602,0.244141,0.061035,-0.061035
2372966208,0.00111389,0.00425720,-1.00682068,0.244141,0.000000,-0.061035
2378013541,0.00158691,0.00431824,-1.00651550,0.366211,0.000000,-0.061035
2382990250,0.00195312,0.00405884,-1.00645447,0.305176,0.000000,-0.061035
2388002250,0.00189209,0.00358582,-1.00717163,0.366211,-0.061035,-0.122070
2393039791,0.00199890,0.00299072,-1.00753784,0.305176,0.061035,0.061035
2397989500,0.00259399,0.00253296,-1.00682068,0.244141,0.000000,-0.122070
2403020000,0.00283813,0.00253296,-1.00585938,0.305176,-0.061035,-0.061035
2407999875,0.00238037,0.00294495,-1.00549316,0.244141,0.061035,0.000000
2413005708,0.00222778,0.00317383,-1.00590515,0.366211,0.061035,0.000000
2418000041,0.00279236,0.00291443,-1.00682068,0.305176,0.000000,-0.183105
2423007375,0.00323486,0.00256348,-1.00761414,0.366211,-0.061035,-0.122070
2427990000,0.00280762,0.00248718,-1.00715637,0.305176,0.061035,-0.061035
2433040083,0.00227356,0.00248718,-1.00601196,0.366211,0.061035,-0.061035
2438014333,0.00231934,0.00239563,-1.00595093,0.366211,0.061035,-0.122070
2443019708,0.00204468,0.00216675,-1.00677490,0.183105,-0.061035,-0.061035
2448036250,0.00096130,0.00195312,-1.00671387,0.366211,0.061035,0.000000
2453036458,0.00001526,0.00192261,-1.00561523,0.427246,0.183105,0.000000
2458060791,-0.00032043,0.00204468,-1.00511169,0.366211,0.061035,-0.061035
2463012916,-0.00071716,0.00218201,-1.00588989,0.122070,0.122070,-0.122070
2468007166,-0.00114441,0.00256348,-1.00660706,0.244141,0.061035,0.000000
2473024083,-0.00079346,0.00311279,-1.00645447,0.305176,0.061035,-0.061035
2477992083,0.00024414,0.00332642,-1.00628662,0.183105,0.122070,-0.061035
2483019083,0.00140381,0.00305176,-1.00659180,0.183105,0.061035,-0.122070
2488033208,0.00239563,0.00257874,-1.00711060,0.244141,0.122070,-0.183105
2492994375,0.00276184,0.00216675,-1.00738525,0.366211,0.061035,-0.061035
2498047958,0.00277710,0.00207520,-1.00700378,0.427246,0.061035,-0.061035
2503026375,0.00283813,0.00212097,-1.00631714,0.427246,0.061035,-0.183105
2508018583,0.00292969,0.00198364,-1.00596619,0.366211,0.061035,0.000000
2513012291,0.00288391,0.00180054,-1.00642395,0.305176,0.061035,0.000000
2518030541,0.00273132,0.00210571,-1.00723267,0.244141,0.000000,0.061035
2523042541,0.00291443,0.00300598,-1.00718689,0.244141,0.122070,-0.122070
2528044291,0.00346375,0.00382996,-1.00643921,0.427246,0.000000,0.000000
2533033958,0.00334167,0.00405884,-1.00634766,0.305176,0.061035,-0.183105
2538024416,0.00251770,0.00402832,-1.00695801,0.244141,0.000000,-0.061035
2543017750,0.00210571,0.00428772,-1.00717163,0.305176,0.000000,0.000000
2548049875,0.00213623,0.00473022,-1.00683594,0.305176,0.183105,-0.061035
2553064416,0.00202942,0.00489807,-1.00692749,0.183105,0.061035,-0.061035
2558031291,0.00155640,0.00460815,-1.00714111,0.305176,0.000000,-0.122070
2563076500,0.00086975,0.00402832,-1.00657654,0.305176,0.000000,0.000000
2568013958,0.00070190,0.00331116,-1.00584412,0.366211,-0.061035,0.000000
2573020666,0.00102234,0.00244141,-1.00593567,0.122070,0.000000,-0.061035
2578056750,0.00091553,0.00166321,-1.00608826,0.183105,0.061035,-0.061035
2583041416,0.00041199,0.00141907,-1.00619507,0.122070,0.061035,-0.122070
2588085458,0.00050354,0.00170898,-1.00708008,0.061035,0.000000,0.000000
2593055000,0.00154114,0.00210571,-1.00791931,0.244141,0.061035,0.061035
2598029958,0.00268555,0.00238037,-1.00741577,0.183105,-0.122070,0.000000
2603053583,0.00338745,0.00250244,-1.00619507,0.305176,0.000000,-0.061035
2608041833,0.00369263,0.00282288,-1.00573730,0.305176,0.000000,-0.122070
2613057666,0.00361633,0.00357056,-1.00588989,0.244141,0.000000,-0.061035
2618045125,0.00334167,0.00411987,-1.00596619,0.244141,0.000000,-0.183105
2623052000,0.00292969,0.00408936,-1.00595093,0.366211,0.061035,-0.122070
2628050000,0.00234985,0.00390625,-1.00621033,0.244141,0.000000,-0.061035
2633045875,0.00158691,0.00373840,-1.00650024,0.366211,0.061035,-0.122070
2638072625,0.00099182,0.00335693,-1.00621033,0.244141,0.061035,0.000000
2643029041,0.00071716,0.00305176,-1.00587463,0.427246,0.000000,0.061035
2648055375,0.00054932,0.00302124,-1.00624084,0.427246,-0.061035,-0.061035
2653077208,0.00045776,0.00308228,-1.00669861,0.366211,0.000000,0.000000
2658041375,0.00045776,0.00349426,-1.00665283,0.305176,0.122070,-0.061035
2663031541,0.00061035,0.00402832,-1.00633240,0.305176,0.000000,-0.122070
2668063416,0.00117493,0.00393677,-1.00584412,0.427246,0.061035,0.061035
2673023583,0.00199890,0.00317383,-1.00534058,0.366211,0.000000,-0.061035
2678045625,0.00248718,0.00247192,-1.00550842,0.366211,0.061035,0.061035
2683067458,0.00250244,0.00227356,-1.00614929,0.366211,0.061035,-0.061035
2688076500,0.00251770,0.00215149,-1.00602722,0.427246,0.122070,-0.061035
2693069125,0.00305176,0.00186157,-1.00553894,0.122070,0.244141,-0.061035
2698032708,0.00395203,0.00178528,-1.00595093,0.366211,0.183105,0.000000
2703056166,0.00442505,0.00195312,-1.00691223,0.244141,0.061035,0.000000
2708042083,0.00422668,0.00175476,-1.00694275,0.122070,-0.061035,-0.122070
2713044416,0.00376892,0.00123596,-1.00640869,0.122070,0.061035,-0.061035
2718120583,0.00329590,0.00119019,-1.00660706,0.183105,0.000000,-0.122070
2723079583,0.00292969,0.00201416,-1.00689697,0.305176,-0.061035,-0.061035
2728069333,0.00250244,0.00286865,-1.00616455,0.305176,0.061035,0.000000
2733075208,0.00175476,0.00329590,-1.00531006,0.366211,0.061035,-0.122070
2738073541,0.00132751,0.00354004,-1.00549316,0.244141,0.000000,-0.061035
2743089541,0.00158691,0.00395203,-1.00611877,0.366211,0.000000,0.061035
2748065958,0.00186157,0.00434875,-1.00614929,0.305176,0.061035,-0.122070
2753112750,0.00144958,0.00447083,-1.00585938,0.427246,0.244141,-0.061035
2758091583,0.00068665,0.00440979,-1.00588989,0.366211,0.000000,-0.061035
2763075666,0.00047302,0.00436401,-1.00592041,0.305176,0.061035,-0.061035
2768075875,0.00091553,0.00425720,-1.00556946,0.305176,-0.061035,-0.183105
2773088583,0.00144958,0.00375366,-1.00540161,0.427246,0.000000,0.000000
2778074708,0.00181580,0.00297546,-1.00585938,0.366211,0.000000,-0.061035
2783084833,0.00196838,0.00241089,-1.00654602,0.427246,0.061035,-0.183105
2788090750,0.00210571,0.00199890,-1.00682068,0.427246,0.000000,-0.061035
2793078875,0.00263977,0.00144958,-1.00675964,0.244141,-0.061035,-0.122070
2798083958,0.00360107,0.00117493,-1.00650024,0.305176,0.122070,-0.061035
2803056791,0.00424194,0.00160217,-1.00601196,0.122070,0.122070,0.000000
2808084375,0.00395203,0.00212097,-1.00602722,0.244141,0.061035,-0.122070
2813092416,0.00323486,0.00230408,-1.00627136,0.244141,0.000000,-0.061035
2818115333,0.00292969,0.00233459,-1.00566101,0.244141,0.061035,0.000000
2823158250,0.00312805,0.00221252,-1.00495911,0.244141,0.000000,-0.061035
2828061416,0.00321960,0.00198364,-1.00524902,0.366211,0.061035,-0.183105
2833070208,0.00294495,0.00210571,-1.00604248,0.427246,0.061035,-0.061035
2838095375,0.00227356,0.00251770,-1.00645447,0.305176,0.061035,0.061035
2843091000,0.00131226,0.00270081,-1.00622559,0.183105,0.061035,0.122070
2848101750,0.00096130,0.00306702,-1.00579834,0.427246,-0.183105,-0.061035
2853118791,0.00138855,0.00399780,-1.00579834,0.366211,-0.061035,-0.061035
2858098916,0.00148010,0.00488281,-1.00579834,0.366211,0.000000,-0.183105
2863111125,0.00076294,0.00531006,-1.00561523,0.610352,0.061035,0.000000
2868063083,-0.00012207,0.00540161,-1.00590515,0.244141,0.061035,-0.122070
2873056791,-0.00041199,0.00537109,-1.00654602,0.305176,0.183105,0.000000
2878120208,0.00013733,0.00526428,-1.00671387,0.366211,0.061035,-0.061035
2883093958,0.00090027,0.00489807,-1.00625610,0.549316,0.122070,-0.122070
2888118625,0.00120544,0.00422668,-1.00584412,0.427246,0.122070,-0.061035
2893106416,0.00157166,0.00337219,-1.00570679,0.244141,0.000000,-0.061035
2898105333,0.00248718,0.00260925,-1.00587463,0.183105,0.183105,-0.122070
2903103375,0.00318909,0.00193787,-1.00669861,0.366211,0.000000,0.000000
2908070625,0.00302124,0.00112915,-1.00738525,0.244141,-0.061035,-0.061035
2913063583,0.00283813,0.00057983,-1.00711060,0.183105,0.061035,0.000000
2918101791,0.00338745,0.00062561,-1.00680542,0.305176,0.000000,-0.061035
2923112250,0.00411987,0.00091553,-1.00674438,0.244141,0.000000,-0.183105
2928168041,0.00416565,0.00122070,-1.00634766,0.305176,0.000000,-0.061035
2933095666,0.00366211,0.00198364,-1.00590515,0.366211,0.122070,0.000000
2938090166,0.00332642,0.00305176,-1.00590515,0.366211,0.122070,-0.183105
2943072750,0.00312805,0.00361633,-1.00636292,0.366211,0.183105,-0.122070
2948106083,0.00271606,0.00357056,-1.00669861,0.427246,0.061035,-0.122070
2953122708,0.00236511,0.00344849,-1.00669861,0.366211,-0.061035,-0.061035
2958149083,0.00231934,0.00367737,-1.00677490,0.244141,0.122070,-0.122070
2963121791,0.00228882,0.00422668,-1.00708008,0.427246,0.061035,0.061035
2968116333,0.00169373,0.00436401,-1.00698853,0.427246,0.000000,0.000000
2973115208,0.00059509,0.00386047,-1.00633240,0.427246,0.000000,0.000000
2978109125,-0.00027466,0.00354004,-1.00608826,0.305176,0.000000,-0.122070
2983152833,-0.00027466,0.00382996,-1.00646973,0.427246,0.000000,-0.122070
2988121333,0.00054932,0.00415039,-1.00662231,0.305176,0.122070,-0.122070
2993107291,0.00134277,0.00373840,-1.00639343,0.366211,0.183105,-0.061035
2998101708,0.00169373,0.00279236,-1.00654602,0.305176,0.061035,-0.061035
3003133208,0.00183105,0.00196838,-1.00714111,0.183105,0.122070,-0.061035
3008125458,0.00180054,0.00154114,-1.00703430,0.244141,0.122070,-0.061035
3013122041,0.00163269,0.00152588,-1.00622559,0.244141,0.000000,-0.061035
3018114166,0.00169373,0.00154114,-1.00590515,0.244141,0.122070,-0.061035
3023143125,0.00190735,0.00122070,-1.00654602,0.244141,0.000000,-0.122070
3028109041,0.00202942,0.00100708,-1.00743103,0.305176,0.000000,0.061035
3033124166,0.00193787,0.00155640,-1.00756836,0.305176,-0.122070,0.000000
3038085166,0.00169373,0.00247192,-1.00672913,0.244141,0.061035,0.000000
3043144333,0.00183105,0.00276184,-1.00576782,0.183105,0.061035,-0.122070
3048113791,0.00227356,0.00283813,-1.00559998,0.305176,-0.061035,-0.061035
3053174666,0.00256348,0.00355530,-1.00611877,0.305176,0.000000,-0.061035
3058142708,0.00289917,0.00459290,-1.00611877,0.183105,0.000000,0.061035
3063144708,0.00328064,0.00527954,-1.00527954,0.183105,0.000000,-0.061035
3068113916,0.00341797,0.00540161,-1.00508118,0.244141,0.061035,-0.122070
3073129625,0.00308228,0.00503540,-1.00625610,0.183105,0.000000,-0.061035
3078133333,0.00245667,0.00434875,-1.00717163,0.244141,0.061035,-0.183105
3083117416,0.00187683,0.00363159,-1.00657654,0.305176,0.061035,-0.061035
3088147250,0.00140381,0.00303650,-1.00544739,0.366211,0.122070,-0.122070
3093148875,0.00122070,0.00247192,-1.00524902,0.366211,0.000000,0.000000
3098134666,0.00134277,0.00195312,-1.00559998,0.305176,0.061035,0.000000
3103102291,0.00146484,0.00155640,-1.00572205,0.305176,0.061035,-0.061035
3108158125,0.00148010,0.00154114,-1.00576782,0.366211,0.000000,-0.122070
3113132541,0.00126648,0.00170898,-1.00584412,0.488281,0.061035,-0.061035
3118155458,0.00080872,0.00164795,-1.00585938,0.244141,0.183105,-0.061035
3123165375,0.00044250,0.00148010,-1.00570679,0.183105,0.061035,-0.061035
3128159833,0.00027466,0.00155640,-1.00572205,0.366211,0.183105,-0.061035
3133136291,0.00022888,0.00216675,-1.00610352,0.244141,-0.061035,0.000000
3138153333,0.00053406,0.00303650,-1.00651550,0.305176,0.061035,-0.122070
3143165291,0.00122070,0.00338745,-1.00691223,0.244141,0.061035,-0.122070
3148128625,0.00183105,0.00296021,-1.00703430,0.183105,0.000000,0.000000
3153138833,0.00192261,0.00256348,-1.00683594,0.183105,0.000000,-0.061035
3158131958,0.00166321,0.00297546,-1.00650024,0.427246,0.000000,-0.122070
3163142708,0.00172424,0.00369263,-1.00625610,0.427246,0.183105,0.000000
3168178750,0.00204468,0.00399780,-1.00584412,0.305176,0.061035,0.000000
3173118666,0.00215149,0.00390625,-1.00514221,0.305176,0.000000,-0.122070
3178162916,0.00219727,0.00378418,-1.00509644,0.244141,0.183105,-0.061035
3183140875,0.00268555,0.00363159,-1.00625610,0.366211,0.061035,0.000000
3188221208,0.00337219,0.00363159,-1.00709534,0.183105,0.000000,-0.122070
3193154541,0.00340271,0.00376892,-1.00685120,0.305176,0.061035,-0.122070
3198168541,0.00247192,0.00372314,-1.00668335,0.305176,-0.061035,-0.061035
3203150458,0.00157166,0.00340271,-1.00733948,0.244141,0.000000,-0.122070
3208126208,0.00143433,0.00280762,-1.00737000,0.305176,0.061035,-0.122070
3213145958,0.00137329,0.00209045,-1.00578308,0.305176,0.061035,-0.061035
3218149708,0.00038147,0.00148010,-1.00460815,0.427246,0.000000,0.061035
3223128291,-0.00056458,0.00109863,-1.00556946,0.427246,0.000000,-0.061035
3228104458,-0.00024414,0.00111389,-1.00682068,0.305176,-0.122070,-0.061035
3233174625,0.00080872,0.00137329,-1.00691223,0.366211,0.000000,-0.061035
3238164375,0.00151062,0.00183105,-1.00668335,0.366211,0.061035,-0.061035
3243213750,0.00154114,0.00289917,-1.00666809,0.305176,0.183105,0.000000
3248168208,0.00143433,0.00408936,-1.00637817,0.244141,0.061035,-0.122070
3253155833,0.00189209,0.00444031,-1.00576782,0.366211,0.122070,-0.061035
3258156916,0.00277710,0.00421143,-1.00537109,0.305176,0.061035,-0.183105
3263145791,0.00321960,0.00433350,-1.00555420,0.183105,-0.061035,-0.122070
3268141041,0.00323486,0.00453186,-1.00617981,0.427246,0.122070,-0.061035
3273167750,0.00341797,0.00410461,-1.00668335,0.305176,0.183105,-0.061035
3278167666,0.00354004,0.00363159,-1.00648499,0.488281,0.061035,0.000000
3283165083,0.00315857,0.00335693,-1.00585938,0.244141,0.122070,-0.061035
3288183708,0.00257874,0.00271606,-1.00555420,0.244141,0.000000,-0.061035
3293256000,0.00221252,0.00205994,-1.00614929,0.366211,0.122070,0.061035
3298140250,0.00184631,0.00195312,-1.00665283,0.366211,0.183105,-0.061035
3303181125,0.00149536,0.00216675,-1.00604248,0.183105,0.122070,-0.122070
3308171166,0.00140381,0.00215149,-1.00537109,0.305176,0.061035,0.061035
3313165625,0.00155640,0.00198364,-1.00576782,0.244141,0.061035,-0.183105
3318172708,0.00167847,0.00202942,-1.00642395,0.427246,0.061035,-0.061035
3323167333,0.00143433,0.00210571,-1.00668335,0.366211,0.183105,-0.061035
3328178166,0.00115967,0.00183105,-1.00671387,0.427246,0.061035,0.000000
3333146083,0.00096130,0.00163269,-1.00645447,0.366211,0.061035,0.000000
3338157708,0.00059509,0.00178528,-1.00604248,0.427246,0.000000,0.000000
3343174583,0.00056458,0.00170898,-1.00599670,0.244141,0.122070,-0.122070
3348148208,0.00099182,0.00131226,-1.00617981,0.366211,0.061035,-0.122070
3353208083,0.00120544,0.00146484,-1.00630188,0.305176,0.061035,-0.122070
3358172916,0.00131226,0.00233459,-1.00680542,0.244141,0.000000,0.000000
3363158125,0.00164795,0.00308228,-1.00772095,0.305176,0.061035,0.000000
3368192541,0.00204468,0.00350952,-1.00804138,0.366211,0.061035,-0.061035
3373180000,0.00236511,0.00399780,-1.00698853,0.305176,0.000000,0.061035
3378182708,0.00267029,0.00460815,-1.00558472,0.305176,0.000000,-0.122070
3383180541,0.00289917,0.00512695,-1.00555420,0.488281,0.061035,-0.061035
3388191875,0.00305176,0.00515747,-1.00625610,0.244141,0.061035,-0.183105
3393205333,0.00326538,0.00465393,-1.00619507,0.366211,0.122070,-0.122070
3398266541,0.00329590,0.00395203,-1.00585938,0.427246,0.000000,-0.061035
3403222875,0.00300598,0.00343323,-1.00624084,0.366211,0.122070,-0.061035
3408193625,0.00280762,0.00300598,-1.00659180,0.427246,0.122070,0.000000
3413196916,0.00280762,0.00219727,-1.00607300,0.488281,0.000000,-0.061035
3418169333,0.00257874,0.00125122,-1.00552368,0.366211,0.061035,-0.061035
3423203250,0.00212097,0.00064087,-1.00607300,0.427246,0.061035,-0.122070
3428200625,0.00195312,0.00044250,-1.00697327,0.427246,0.061035,0.000000
3433168041,0.00207520,0.00057983,-1.00704956,0.305176,0.061035,0.000000
3438195333,0.00215149,0.00085449,-1.00674438,0.183105,0.122070,-0.061035
3443192208,0.00228882,0.00103760,-1.00706482,0.244141,0.061035,0.000000
3448202666,0.00242615,0.00132751,-1.00717163,0.366211,0.061035,-0.122070
3453220375,0.00247192,0.00202942,-1.00624084,0.244141,-0.061035,-0.122070
3458206250,0.00253296,0.00280762,-1.00549316,0.305176,0.000000,-0.244141
3463188875,0.00274658,0.00332642,-1.00546265,0.427246,0.061035,-0.061035
3468199625,0.00282288,0.00369263,-1.00582886,0.427246,0.061035,0.000000
3473225625,0.00248718,0.00407410,-1.00633240,0.427246,0.061035,-0.061035
3478209083,0.00187683,0.00428772,-1.00636292,0.183105,0.000000,0.000000
3483171708,0.00129700,0.00424194,-1.00614929,0.366211,0.122070,-0.061035
3488210291,0.00114441,0.00439453,-1.00651550,0.244141,0.061035,-0.061035
3493165750,0.00167847,0.00444031,-1.00744629,0.366211,0.000000,-0.122070
3498179000,0.00216675,0.00390625,-1.00755310,0.244141,0.122070,0.061035
3503270291,0.00216675,0.00326538,-1.00613403,0.183105,0.000000,-0.061035
3508199875,0.00218201,0.00291443,-1.00459290,0.305176,0.000000,-0.122070
3513211375,0.00216675,0.00282288,-1.00468445,0.244141,0.061035,-0.061035
3518218500,0.00170898,0.00268555,-1.00579834,0.305176,0.061035,-0.061035
3523229833,0.00094604,0.00234985,-1.00611877,0.122070,-0.244141,-0.122070
3528225083,0.00028992,0.00199890,-1.00572205,0.427246,0.061035,-0.061035
3533178166,0.00036621,0.00161743,-1.00595093,0.366211,0.000000,-0.183105
3538211625,0.00106812,0.00100708,-1.00672913,0.366211,-0.061035,0.061035
3543221041,0.00173950,0.00073242,-1.00672913,0.305176,0.061035,0.000000
3548223125,0.00213623,0.00141907,-1.00605774,0.427246,-0.061035,-0.061035
3553231708,0.00202942,0.00228882,-1.00595093,0.305176,-0.061035,0.000000
3558228416,0.00167847,0.00238037,-1.00650024,0.305176,-0.061035,-0.061035
3563187875,0.00166321,0.00242615,-1.00685120,0.122070,0.000000,-0.183105
3568233125,0.00187683,0.00315857,-1.00666809,0.244141,0.061035,-0.183105
3573244375,0.00201416,0.00422668,-1.00636292,0.366211,0.061035,-0.183105
3578224541,0.00218201,0.00485229,-1.00610352,0.366211,0.122070,-0.061035
3583235208,0.00251770,0.00491333,-1.00585938,0.244141,0.000000,-0.061035
3588208500,0.00282288,0.00454712,-1.00561523,0.305176,0.000000,-0.122070
3593187750,0.00277710,0.00384521,-1.00564575,0.183105,-0.061035,-0.183105
3598229750,0.00245667,0.00312805,-1.00599670,0.244141,0.000000,-0.061035
3603243041,0.00199890,0.00268555,-1.00610352,0.244141,0.000000,-0.061035
3608240416,0.00141907,0.00245667,-1.00592041,0.366211,0.000000,0.000000
3613217375,0.00120544,0.00222778,-1.00593567,0.427246,0.122070,0.000000
3618215416,0.00152588,0.00173950,-1.00617981,0.488281,0.122070,-0.061035
3623236750,0.00170898,0.00119019,-1.00630188,0.244141,0.000000,0.000000
3628229250,0.00164795,0.00117493,-1.00608826,0.366211,0.061035,-0.061035
3633210750,0.00169373,0.00178528,-1.00543213,0.427246,-0.061035,-0.183105
3638223000,0.00163269,0.00250244,-1.00485229,0.366211,0.061035,0.000000
3643223625,0.00154114,0.00263977,-1.00567627,0.244141,0.061035,-0.183105
3648210708,0.00161743,0.00205994,-1.00724792,0.366211,0.061035,-0.061035
3653229250,0.00141907,0.00157166,-1.00773621,0.305176,0.000000,0.000000
3658301625,0.00085449,0.00183105,-1.00711060,0.305176,0.000000,-0.122070
3663233500,0.00064087,0.00257874,-1.00692749,0.244141,0.000000,-0.122070
3668205041,0.00123596,0.00341797,-1.00723267,0.366211,0.122070,-0.122070
3673239625,0.00210571,0.00404358,-1.00689697,0.305176,0.061035,-0.061035
3678232208,0.00254822,0.00408936,-1.00622559,0.366211,0.122070,-0.061035
3683222875,0.00265503,0.00369263,-1.00605774,0.305176,-0.061035,-0.061035
3688219750,0.00305176,0.00347900,-1.00631714,0.244141,0.122070,0.061035
3693237375,0.00358582,0.00366211,-1.00668335,0.244141,0.122070,-0.061035
3698213416,0.00366211,0.00379944,-1.00685120,0.244141,0.061035,-0.061035
3703268375,0.00355530,0.00361633,-1.00654602,0.244141,0.000000,-0.122070
3708243458,0.00360107,0.00340271,-1.00578308,0.305176,0.061035,-0.122070
3713262041,0.00314331,0.00334167,-1.00552368,0.427246,0.122070,-0.122070
3718230791,0.00219727,0.00311279,-1.00616455,0.427246,-0.061035,-0.061035
3723245125,0.00167847,0.00230408,-1.00639343,0.488281,-0.061035,-0.061035
3728220666,0.00154114,0.00138855,-1.00564575,0.427246,-0.061035,-0.061035
3733261708,0.00151062,0.00129700,-1.00532532,0.366211,-0.061035,0.000000
3738257208,0.00163269,0.00172424,-1.00607300,0.305176,0.000000,0.061035
3743206583,0.00169373,0.00193787,-1.00665283,0.305176,0.000000,-0.122070
3748236458,0.00090027,0.00178528,-1.00639343,0.183105,0.000000,-0.061035
3753294541,-0.00032043,0.00157166,-1.00611877,0.244141,0.000000,-0.061035
3758263833,-0.00053406,0.00189209,-1.00654602,0.305176,0.122070,-0.061035
3763251750,0.00068665,0.00277710,-1.00706482,0.305176,0.122070,0.061035
3768225083,0.00199890,0.00370789,-1.00711060,0.244141,-0.061035,0.061035
3773276000,0.00216675,0.00421143,-1.00712585,0.305176,0.000000,-0.183105
3778219375,0.00201416,0.00410461,-1.00704956,0.366211,0.000000,-0.061035
3783249666,0.00265503,0.00369263,-1.00662231,0.244141,0.061035,-0.061035
3788271833,0.00315857,0.00357056,-1.00608826,0.488281,0.122070,-0.061035
3793276583,0.00268555,0.00364685,-1.00575256,0.122070,-0.061035,-0.122070
3798256000,0.00245667,0.00329590,-1.00555420,0.122070,0.061035,-0.183105
3803248208,0.00309753,0.00257874,-1.00558472,0.183105,0.122070,-0.183105
3808253875,0.00323486,0.00213623,-1.00598145,0.305176,-0.061035,0.000000
3813311041,0.00256348,0.00215149,-1.00604248,0.427246,0.061035,-0.061035
3818275291,0.00239563,0.00260925,-1.00552368,0.183105,0.000000,-0.061035
3823274208,0.00259399,0.00314331,-1.00547791,0.183105,0.000000,-0.061035
3828257875,0.00228882,0.00308228,-1.00624084,0.305176,-0.122070,-0.122070
3833253833,0.00205994,0.00265503,-1.00674438,0.305176,0.061035,0.000000
3838300125,0.00248718,0.00247192,-1.00613403,0.305176,0.000000,-0.061035
3843273375,0.00271606,0.00247192,-1.00540161,0.427246,0.061035,0.000000
3848270333,0.00218201,0.00257874,-1.00556946,0.366211,0.061035,-0.061035
3853298041,0.00169373,0.00267029,-1.00601196,0.244141,-0.061035,-0.061035
3858283166,0.00138855,0.00257874,-1.00593567,0.427246,0.061035,-0.061035
3863258083,0.00079346,0.00256348,-1.00585938,0.244141,0.000000,-0.122070
3868263791,0.00019836,0.00270081,-1.00601196,0.305176,0.061035,-0.061035
3873260000,0.00036621,0.00282288,-1.00602722,0.305176,0.000000,-0.122070
3878280625,0.00111389,0.00309753,-1.00593567,0.366211,0.183105,0.000000
3883247750,0.00157166,0.00344849,-1.00595093,0.366211,0.122070,-0.061035
3888242000,0.00177002,0.00376892,-1.00587463,0.366211,0.061035,0.000000
3893291541,0.00225830,0.00396729,-1.00561523,0.244141,0.061035,-0.122070
3898282458,0.00279236,0.00386047,-1.00566101,0.427246,0.122070,-0.183105
3903266750,0.00279236,0.00354004,-1.00601196,0.183105,-0.061035,-0.061035
3908233000,0.00233459,0.00300598,-1.00585938,0.305176,0.000000,-0.061035
3913272625,0.00195312,0.00212097,-1.00543213,0.366211,-0.061035,-0.061035
3918336666,0.00192261,0.00152588,-1.00570679,0.305176,0.122070,-0.061035
3923289958,0.00216675,0.00183105,-1.00617981,0.488281,0.000000,0.061035
3928287583,0.00225830,0.00256348,-1.00582886,0.549316,0.122070,-0.061035
3933253166,0.00190735,0.00312805,-1.00547791,0.305176,0.061035,0.061035
3938291000,0.00161743,0.00338745,-1.00608826,0.427246,0.061035,-0.122070
3943294916,0.00183105,0.00326538,-1.00708008,0.305176,0.061035,0.000000
3948297750,0.00195312,0.00291443,-1.00674438,0.427246,0.122070,-0.183105
3953302666,0.00170898,0.00283813,-1.00550842,0.427246,0.061035,-0.122070
3958274500,0.00138855,0.00305176,-1.00521851,0.366211,0.061035,0.061035
3963286416,0.00115967,0.00329590,-1.00593567,0.427246,0.061035,-0.122070
3968273875,0.00132751,0.00344849,-1.00628662,0.366211,0.122070,-0.183105
3973302958,0.00196838,0.00340271,-1.00593567,0.366211,0.061035,-0.061035
3978284583,0.00248718,0.00309753,-1.00559998,0.427246,0.061035,0.061035
3983260083,0.00222778,0.00276184,-1.00572205,0.244141,-0.061035,-0.061035
3988260083,0.00167847,0.00257874,-1.00624084,0.427246,0.061035,0.000000
3993301541,0.00178528,0.00268555,-1.00711060,0.122070,0.000000,-0.061035
3998255791,0.00244141,0.00271606,-1.00749207,0.366211,-0.061035,-0.061035
4003314708,0.00282288,0.00273132,-1.00680542,0.366211,0.061035,0.000000
4008308875,0.00250244,0.00305176,-1.00582886,0.244141,0.122070,0.061035
4013288125,0.00199890,0.00340271,-1.00556946,0.244141,0.061035,0.000000
4018274916,0.00184631,0.00347900,-1.00578308,0.305176,0.122070,0.000000
4023421541,0.00184631,0.00341797,-1.00587463,0.244141,0.061035,-0.061035
4028301875,0.00170898,0.00318909,-1.00572205,0.183105,0.000000,-0.122070
4033291833,0.00166321,0.00260925,-1.00584412,0.305176,0.061035,-0.061035
4038265208,0.00219727,0.00201416,-1.00599670,0.305176,0.000000,-0.122070
4043315166,0.00302124,0.00169373,-1.00578308,0.366211,0.122070,-0.061035
4048311583,0.00328064,0.00157166,-1.00579834,0.366211,0.122070,0.061035
4053360666,0.00271606,0.00195312,-1.00613403,0.305176,0.061035,0.000000
4058323250,0.00215149,0.00270081,-1.00622559,0.427246,-0.061035,-0.061035
4063294416,0.00195312,0.00282288,-1.00602722,0.244141,0.122070,-0.122070
4068319291,0.00195312,0.00231934,-1.00604248,0.305176,0.061035,-0.122070
4073307833,0.00202942,0.00222778,-1.00645447,0.488281,0.122070,0.000000
4078318166,0.00215149,0.00286865,-1.00665283,0.244141,0.000000,0.000000
4083303041,0.00212097,0.00354004,-1.00637817,0.244141,0.000000,-0.061035
4088312666,0.00177002,0.00395203,-1.00575256,0.305176,0.061035,-0.061035
4093300500,0.00148010,0.00425720,-1.00505066,0.183105,0.183105,0.000000
4098308125,0.00166321,0.00436401,-1.00486755,0.305176,0.000000,-0.122070
4103309291,0.00202942,0.00410461,-1.00564575,0.305176,0.061035,0.061035
4108292708,0.00183105,0.00354004,-1.00646973,0.244141,0.061035,-0.061035
4113268583,0.00100708,0.00289917,-1.00630188,0.305176,0.061035,0.000000
4118312083,0.00036621,0.00250244,-1.00588989,0.366211,0.183105,-0.061035
4123333916,0.00068665,0.00244141,-1.00613403,0.244141,0.061035,0.061035
4128373208,0.00146484,0.00231934,-1.00634766,0.366211,0.061035,-0.061035
4133320625,0.00172424,0.00222778,-1.00625610,0.366211,0.122070,0.000000
4138319208,0.00158691,0.00244141,-1.00666809,0.305176,0.122070,-0.061035
4143321958,0.00175476,0.00286865,-1.00744629,0.244141,0.061035,-0.061035
4148322416,0.00247192,0.00297546,-1.00759888,0.305176,0.061035,0.122070
4153333958,0.00323486,0.00273132,-1.00714111,0.244141,0.061035,-0.061035
4158311250,0.00338745,0.00282288,-1.00674438,0.366211,0.000000,0.000000
4163253333,0.00300598,0.00335693,-1.00637817,0.305176,-0.061035,-0.122070
4168353833,0.00248718,0.00364685,-1.00610352,0.488281,0.122070,0.122070
4173345125,0.00201416,0.00329590,-1.00621033,0.366211,0.061035,-0.122070
4178303500,0.00164795,0.00306702,-1.00613403,0.305176,0.244141,-0.061035
4183330875,0.00175476,0.00337219,-1.00558472,0.366211,0.122070,-0.122070
4188354083,0.00221252,0.00334167,-1.00549316,0.366211,0.000000,-0.061035
4193313750,0.00248718,0.00276184,-1.00659180,0.305176,0.061035,0.000000
4198317166,0.00250244,0.00242615,-1.00764465,0.305176,0.000000,-0.061035
4203346416,0.00244141,0.00274658,-1.00706482,0.305176,0.061035,-0.061035
4208323333,0.00236511,0.00332642,-1.00572205,0.366211,0.061035,-0.122070
4213317333,0.00216675,0.00372314,-1.00549316,0.366211,0.061035,0.061035
4218360958,0.00201416,0.00354004,-1.00616455,0.244141,0.061035,-0.122070
4223339833,0.00215149,0.00285339,-1.00677490,0.305176,0.122070,-0.183105
4228301791,0.00224304,0.00239563,-1.00712585,0.244141,0.061035,-0.061035
4233403958,0.00195312,0.00251770,-1.00701904,0.244141,0.183105,0.061035
4238296916,0.00160217,0.00265503,-1.00602722,0.366211,0.061035,-0.061035
4243313791,0.00163269,0.00233459,-1.00485229,0.366211,0.061035,-0.122070
4248323708,0.00163269,0.00196838,-1.00479126,0.305176,-0.061035,-0.122070
4253405000,0.00120544,0.00202942,-1.00587463,0.244141,0.122070,-0.122070
4258301625,0.00122070,0.00259399,-1.00674438,0.366211,0.061035,-0.061035
4263321208,0.00209045,0.00321960,-1.00639343,0.305176,0.000000,-0.061035
4268308958,0.00283813,0.00335693,-1.00552368,0.366211,0.000000,-0.061035
4273304500,0.00260925,0.00314331,-1.00558472,0.366211,0.244141,-0.122070
4278300625,0.00196838,0.00326538,-1.00640869,0.305176,0.122070,0.000000
4283356916,0.00184631,0.00381470,-1.00668335,0.366211,0.244141,-0.061035
4288334625,0.00195312,0.00405884,-1.00633240,0.244141,0.061035,0.000000
4293321000,0.00198364,0.00366211,-1.00614929,0.305176,0.000000,-0.061035
4298329375,0.00195312,0.00308228,-1.00604248,0.244141,0.061035,-0.122070
4303328750,0.00195312,0.00285339,-1.00563049,0.244141,0.000000,-0.122070
4308316250,0.00209045,0.00305176,-1.00502014,0.305176,0.000000,-0.183105
4313304583,0.00247192,0.00335693,-1.00503540,0.305176,0.122070,0.000000
4318328958,0.00283813,0.00337219,-1.00573730,0.244141,0.061035,-0.122070
4323321541,0.00282288,0.00309753,-1.00651550,0.305176,0.000000,-0.122070
4328322166,0.00236511,0.00268555,-1.00669861,0.305176,0.183105,0.000000
4333297166,0.00201416,0.00215149,-1.00624084,0.366211,0.183105,-0.061035
4338308666,0.00205994,0.00204468,-1.00590515,0.488281,0.061035,0.122070
4343336875,0.00201416,0.00265503,-1.00643921,0.305176,0.061035,-0.183105
4348322791,0.00183105,0.00311279,-1.00679016,0.305176,0.061035,-0.122070
4353356083,0.00183105,0.00291443,-1.00617981,0.427246,0.061035,0.000000
4358319625,0.00175476,0.00265503,-1.00564575,0.427246,0.061035,-0.183105
4363348250,0.00138855,0.00314331,-1.00601196,0.183105,0.122070,-0.122070
4368320583,0.00105286,0.00404358,-1.00650024,0.183105,-0.061035,-0.122070
4373335000,0.00123596,0.00450134,-1.00622559,0.244141,0.061035,0.000000
4378320250,0.00164795,0.00427246,-1.00578308,0.366211,0.000000,-0.122070
4383330250,0.00169373,0.00389099,-1.00576782,0.305176,0.061035,-0.061035
4388394416,0.00163269,0.00346375,-1.00573730,0.427246,0.061035,0.061035
4393319625,0.00193787,0.00285339,-1.00584412,0.427246,0.122070,-0.061035
4398327875,0.00236511,0.00239563,-1.00587463,0.427246,-0.061035,-0.061035
4403373541,0.00241089,0.00233459,-1.00515747,0.366211,-0.061035,-0.061035
4408359541,0.00193787,0.00241089,-1.00462341,0.183105,-0.061035,0.000000
4413330541,0.00152588,0.00254822,-1.00552368,0.305176,0.061035,-0.061035
4418359708,0.00183105,0.00273132,-1.00675964,0.366211,-0.061035,0.061035
4423358166,0.00238037,0.00270081,-1.00720215,0.305176,0.000000,-0.122070
4428380666,0.00273132,0.00222778,-1.00686646,0.427246,0.122070,0.000000
4433360791,0.00279236,0.00164795,-1.00636292,0.244141,0.061035,-0.061035
4438445291,0.00242615,0.00157166,-1.00617981,0.366211,0.061035,-0.122070
4443361541,0.00204468,0.00205994,-1.00642395,0.366211,0.000000,-0.122070
4448375208,0.00212097,0.00265503,-1.00695801,0.244141,0.122070,-0.061035
4453386041,0.00227356,0.00296021,-1.00750732,0.366211,0.122070,0.000000
4458380500,0.00204468,0.00299072,-1.00755310,0.427246,0.183105,0.000000
4463369208,0.00183105,0.00302124,-1.00692749,0.305176,0.183105,-0.122070
4468407250,0.00207520,0.00321960,-1.00628662,0.305176,0.061035,0.000000
4473350000,0.00228882,0.00328064,-1.00646973,0.305176,0.061035,0.000000
4478393500,0.00192261,0.00318909,-1.00683594,0.366211,0.122070,0.000000
4483345041,0.00125122,0.00341797,-1.00653076,0.427246,0.122070,0.000000
4488391583,0.00088501,0.00361633,-1.00630188,0.305176,0.000000,-0.061035
4493378708,0.00097656,0.00328064,-1.00666809,0.000000,-0.061035,-0.244141
4498378458,0.00138855,0.00282288,-1.00700378,0.427246,0.122070,-0.061035
4503372166,0.00186157,0.00241089,-1.00724792,0.305176,0.000000,0.000000
4508352375,0.00227356,0.00207520,-1.00729370,0.366211,0.000000,-0.061035
4513375583,0.00251770,0.00207520,-1.00679016,0.305176,0.000000,-0.061035
4518395958,0.00267029,0.00221252,-1.00611877,0.305176,-0.061035,-0.122070
4523405000,0.00245667,0.00195312,-1.00593567,0.244141,0.061035,-0.122070
4528395083,0.00189209,0.00152588,-1.00598145,0.244141,0.000000,-0.183105
4533411750,0.00164795,0.00149536,-1.00572205,0.122070,0.061035,-0.061035
4538387458,0.00173950,0.00199890,-1.00575256,0.244141,0.061035,-0.061035
4543447916,0.00205994,0.00276184,-1.00656128,0.305176,0.183105,0.000000
4548366916,0.00259399,0.00329590,-1.00692749,0.366211,0.122070,-0.061035
4553390875,0.00289917,0.00320435,-1.00616455,0.305176,0.061035,0.000000
4558360125,0.00262451,0.00271606,-1.00534058,0.183105,0.061035,-0.061035
4563395041,0.00193787,0.00259399,-1.00553894,0.305176,0.183105,0.000000
4568412250,0.00146484,0.00303650,-1.00611877,0.305176,0.061035,-0.061035
4573385958,0.00141907,0.00361633,-1.00608826,0.427246,0.061035,0.000000
4578348166,0.00120544,0.00366211,-1.00564575,0.244141,0.061035,-0.122070
4583490583,0.00082397,0.00320435,-1.00558472,0.366211,0.122070,0.000000
4588431375,0.00073242,0.00291443,-1.00581360,0.305176,0.061035,0.000000
4593402833,0.00067139,0.00315857,-1.00592041,0.366211,0.061035,0.061035
4598355458,0.00065613,0.00361633,-1.00596619,0.366211,-0.122070,-0.061035
4603380375,0.00108337,0.00363159,-1.00628662,0.427246,0.000000,0.000000
4608366083,0.00189209,0.00305176,-1.00675964,0.244141,0.000000,-0.122070
4613399875,0.00259399,0.00248718,-1.00688171,0.305176,0.000000,0.000000
4618389166,0.00257874,0.00227356,-1.00659180,0.305176,0.061035,-0.061035
4623421416,0.00199890,0.00212097,-1.00630188,0.305176,0.000000,0.000000
4628405833,0.00196838,0.00202942,-1.00651550,0.244141,0.061035,0.000000
4633375791,0.00260925,0.00218201,-1.00741577,0.366211,0.061035,-0.061035
4638410750,0.00329590,0.00239563,-1.00778198,0.366211,0.061035,-0.061035
4643404625,0.00367737,0.00248718,-1.00675964,0.366211,0.000000,-0.061035
4648467000,0.00326538,0.00265503,-1.00570679,0.488281,0.061035,-0.122070
4653401791,0.00238037,0.00321960,-1.00588989,0.244141,-0.061035,-0.122070
4658370583,0.00201416,0.00405884,-1.00642395,0.244141,0.000000,-0.183105
4663440708,0.00199890,0.00473022,-1.00634766,0.244141,0.061035,0.061035
4668363250,0.00180054,0.00500488,-1.00602722,0.366211,0.061035,-0.061035
4673385250,0.00141907,0.00498962,-1.00634766,0.244141,0.000000,0.061035
4678413500,0.00117493,0.00482178,-1.00701904,0.244141,0.061035,-0.061035
4683391583,0.00138855,0.00448608,-1.00701904,0.305176,0.061035,-0.061035
4688410708,0.00166321,0.00393677,-1.00637817,0.244141,0.000000,-0.183105
4693409875,0.00140381,0.00331116,-1.00599670,0.366211,0.061035,0.000000
4698383875,0.00076294,0.00289917,-1.00595093,0.366211,0.122070,-0.061035
4703419208,0.00039673,0.00260925,-1.00607300,0.366211,0.122070,-0.061035
4708416208,0.00039673,0.00198364,-1.00608826,0.183105,0.061035,-0.061035
4713409666,0.00064087,0.00115967,-1.00558472,0.183105,-0.061035,-0.061035
4718414750,0.00126648,0.00073242,-1.00515747,0.305176,0.000000,0.000000
4723414375,0.00213623,0.00112915,-1.00610352,0.305176,0.122070,-0.122070
4728406416,0.00282288,0.00196838,-1.00756836,0.305176,0.000000,0.000000
4733397583,0.00306702,0.00234985,-1.00750732,0.305176,0.000000,-0.122070
4738403625,0.00320435,0.00222778,-1.00633240,0.366211,0.000000,0.000000
4743435958,0.00354004,0.00233459,-1.00592041,0.366211,0.122070,-0.122070
4748403166,0.00376892,0.00274658,-1.00633240,0.366211,0.061035,-0.122070
4753519500,0.00341797,0.00302124,-1.00614929,0.366211,0.122070,0.000000
4758419375,0.00256348,0.00325012,-1.00532532,0.305176,0.061035,0.000000
4763412458,0.00192261,0.00373840,-1.00547791,0.366211,0.000000,0.000000
4768421500,0.00181580,0.00410461,-1.00671387,0.366211,0.183105,0.061035
4773385958,0.00210571,0.00419617,-1.00738525,0.366211,0.122070,-0.122070
4778427666,0.00263977,0.00437927,-1.00694275,0.305176,0.122070,-0.122070
4783421708,0.00283813,0.00469971,-1.00653076,0.366211,0.061035,0.000000
4788433208,0.00225830,0.00474548,-1.00643921,0.366211,0.000000,-0.061035
4793442458,0.00187683,0.00418091,-1.00608826,0.305176,0.061035,0.061035
4798432083,0.00231934,0.00354004,-1.00535583,0.427246,-0.122070,-0.122070
4803420208,0.00268555,0.00334167,-1.00503540,0.305176,0.000000,-0.122070
4808431750,0.00219727,0.00292969,-1.00552368,0.244141,0.061035,-0.061035
4813470666,0.00152588,0.00183105,-1.00619507,0.366211,0.000000,-0.061035
4818432750,0.00131226,0.00094604,-1.00607300,0.366211,0.000000,-0.061035
4823448583,0.00140381,0.00086975,-1.00532532,0.244141,-0.061035,-0.061035
4828457208,0.00148010,0.00123596,-1.00495911,0.183105,0.061035,-0.061035
4833453541,0.00155640,0.00137329,-1.00602722,0.305176,0.000000,0.000000
4838446833,0.00164795,0.00086975,-1.00752258,0.427246,-0.061035,-0.061035
4843439458,0.00128174,0.00009155,-1.00732422,0.305176,0.061035,-0.183105
4848432500,0.00067139,0.00027466,-1.00578308,0.366211,0.122070,-0.061035
4853462666,0.00050354,0.00193787,-1.00518799,0.183105,0.000000,-0.122070
4858469708,0.00112915,0.00390625,-1.00584412,0.305176,0.122070,-0.183105
4863415708,0.00216675,0.00495911,-1.00648499,0.427246,0.122070,0.000000
4868436291,0.00285339,0.00494385,-1.00662231,0.122070,0.000000,-0.122070
4873449291,0.00285339,0.00469971,-1.00642395,0.305176,0.061035,-0.061035
4878434041,0.00273132,0.00489807,-1.00588989,0.305176,0.000000,0.000000
4883484833,0.00299072,0.00526428,-1.00559998,0.244141,-0.061035,-0.122070
4888473875,0.00306702,0.00518799,-1.00588989,0.244141,-0.061035,0.000000
4893453791,0.00253296,0.00474548,-1.00646973,0.244141,0.000000,0.061035
4898447041,0.00199890,0.00459290,-1.00686646,0.305176,0.061035,-0.061035
4903455750,0.00201416,0.00444031,-1.00689697,0.244141,-0.061035,-0.061035
4908421041,0.00224304,0.00343323,-1.00671387,0.427246,0.122070,0.000000
4913420958,0.00236511,0.00202942,-1.00669861,0.427246,0.000000,-0.061035
4918442916,0.00241089,0.00144958,-1.00674438,0.305176,0.061035,-0.122070
4923454375,0.00224304,0.00157166,-1.00648499,0.488281,0.122070,-0.244141
4928445625,0.00169373,0.00160217,-1.00624084,0.488281,0.000000,-0.122070
4933451666,0.00111389,0.00148010,-1.00634766,0.305176,-0.061035,-0.183105
4938425041,0.00086975,0.00143433,-1.00651550,0.244141,0.061035,0.000000
4943420375,0.00080872,0.00144958,-1.00688171,0.366211,0.000000,-0.122070
4948455625,0.00056458,0.00146484,-1.00740051,0.366211,0.061035,0.061035
4953484583,0.00038147,0.00163269,-1.00729370,0.244141,-0.122070,-0.061035
4958452333,0.00056458,0.00205994,-1.00627136,0.305176,0.061035,-0.122070
4963587583,0.00085449,0.00256348,-1.00541687,0.305176,0.000000,-0.122070
4968457750,0.00132751,0.00268555,-1.00549316,0.366211,-0.061035,0.000000
4973478333,0.00183105,0.00268555,-1.00602722,0.122070,-0.122070,-0.183105
4978468208,0.00204468,0.00305176,-1.00610352,0.366211,0.061035,-0.061035
4983449875,0.00218201,0.00373840,-1.00604248,0.244141,0.000000,-0.061035
4988451500,0.00244141,0.00445557,-1.00640869,0.305176,0.000000,-0.122070
4993450416,0.00256348,0.00471497,-1.00665283,0.366211,0.061035,0.000000
4998463125,0.00262451,0.00459290,-1.00648499,0.366211,0.122070,0.000000
5003470666,0.00259399,0.00445557,-1.00614929,0.366211,0.061035,-0.183105
5008456125,0.00248718,0.00402832,-1.00588989,0.488281,0.061035,0.000000
5013438541,0.00218201,0.00291443,-1.00582886,0.366211,0.000000,-0.122070
5018452375,0.00167847,0.00172424,-1.00585938,0.305176,0.061035,-0.061035
5023472791,0.00134277,0.00123596,-1.00582886,0.427246,0.061035,0.000000
5028423000,0.00114441,0.00119019,-1.00588989,0.366211,0.122070,-0.061035
5033447916,0.00120544,0.00117493,-1.00643921,0.366211,0.122070,-0.122070
5038427708,0.00155640,0.00138855,-1.00708008,0.366211,0.122070,-0.061035
5043443041,0.00175476,0.00181580,-1.00692749,0.427246,0.000000,-0.061035
5048464458,0.00143433,0.00227356,-1.00607300,0.244141,-0.122070,-0.061035
5053504458,0.00108337,0.00262451,-1.00564575,0.244141,0.000000,0.000000
5058453083,0.00129700,0.00300598,-1.00611877,0.427246,0.183105,-0.122070
5063468833,0.00181580,0.00337219,-1.00646973,0.305176,0.122070,0.061035
5068522708,0.00227356,0.00366211,-1.00602722,0.305176,0.000000,0.000000
5073438541,0.00247192,0.00370789,-1.00572205,0.366211,0.000000,-0.061035
5078483541,0.00212097,0.00334167,-1.00599670,0.183105,0.061035,-0.061035
5083458583,0.00184631,0.00299072,-1.00621033,0.244141,0.061035,-0.061035
5088510708,0.00204468,0.00303650,-1.00630188,0.305176,-0.061035,-0.122070
5093460375,0.00204468,0.00329590,-1.00651550,0.305176,0.061035,0.000000
5098444833,0.00192261,0.00325012,-1.00631714,0.366211,0.000000,-0.061035
5103503708,0.00238037,0.00299072,-1.00582886,0.366211,0.061035,-0.061035
5108486666,0.00297546,0.00273132,-1.00596619,0.183105,-0.061035,-0.061035
5113443375,0.00303650,0.00250244,-1.00634766,0.244141,0.244141,-0.061035
5118474000,0.00256348,0.00241089,-1.00596619,0.305176,0.122070,0.061035
5123488583,0.00202942,0.00254822,-1.00537109,0.000000,0.061035,-0.122070
5128484125,0.00184631,0.00271606,-1.00570679,0.305176,0.000000,-0.122070
5133483833,0.00184631,0.00253296,-1.00645447,0.366211,0.000000,0.061035
5138481125,0.00173950,0.00218201,-1.00619507,0.305176,0.061035,-0.122070
5143477041,0.00173950,0.00221252,-1.00585938,0.305176,0.183105,-0.061035
5148473916,0.00164795,0.00262451,-1.00683594,0.427246,0.122070,0.000000
5153504708,0.00097656,0.00306702,-1.00769043,0.366211,0.061035,-0.122070
5158461833,0.00015259,0.00366211,-1.00689697,0.427246,0.122070,0.122070
5163476291,0.00000000,0.00440979,-1.00581360,0.305176,0.061035,-0.122070
5168495791,0.00071716,0.00462341,-1.00573730,0.244141,0.000000,0.000000
5173594166,0.00186157,0.00422668,-1.00604248,0.183105,0.000000,-0.061035
5178484333,0.00300598,0.00381470,-1.00613403,0.244141,0.061035,0.000000
5183492625,0.00367737,0.00376892,-1.00622559,0.244141,0.122070,0.000000
5188507125,0.00335693,0.00381470,-1.00643921,0.366211,0.061035,0.000000
5193465833,0.00257874,0.00354004,-1.00660706,0.183105,-0.061035,-0.061035
5198490000,0.00204468,0.00289917,-1.00643921,0.305176,0.000000,-0.244141
5203497458,0.00189209,0.00205994,-1.00604248,0.305176,0.061035,-0.061035
5208478458,0.00198364,0.00148010,-1.00543213,0.244141,0.000000,0.000000
5213458708,0.00175476,0.00128174,-1.00517273,0.244141,0.061035,-0.061035
5218474750,0.00108337,0.00119019,-1.00563049,0.305176,0.061035,-0.122070
5223487875,0.00051880,0.00148010,-1.00607300,0.305176,0.061035,-0.183105
5228518208,0.00042725,0.00233459,-1.00593567,0.244141,0.122070,-0.122070
5233593625,0.00086975,0.00285339,-1.00599670,0.366211,0.061035,0.000000
5238488916,0.00144958,0.00282288,-1.00653076,0.305176,0.122070,0.000000
5243512791,0.00151062,0.00292969,-1.00669861,0.305176,0.000000,-0.183105
5248476541,0.00123596,0.00352478,-1.00624084,0.305176,0.122070,-0.183105
5253508083,0.00125122,0.00428772,-1.00584412,0.122070,0.061035,0.000000
5258516791,0.00161743,0.00476074,-1.00585938,0.366211,0.122070,-0.061035
5263508291,0.00224304,0.00469971,-1.00585938,0.244141,0.122070,-0.122070
5268475750,0.00294495,0.00444031,-1.00549316,0.244141,0.000000,-0.122070
5273471416,0.00338745,0.00427246,-1.00538635,0.549316,0.000000,0.000000
5278501375,0.00329590,0.00402832,-1.00607300,0.244141,0.122070,-0.122070
5283501250,0.00279236,0.00350952,-1.00682068,0.427246,0.061035,0.000000
5288538625,0.00241089,0.00297546,-1.00675964,0.183105,-0.061035,0.000000
5293482125,0.00241089,0.00256348,-1.00616455,0.244141,0.122070,-0.061035
5298483750,0.00251770,0.00219727,-1.00558472,0.366211,0.000000,-0.061035
5303513041,0.00233459,0.00218201,-1.00541687,0.366211,-0.061035,-0.061035
5308508791,0.00219727,0.00259399,-1.00578308,0.122070,0.061035,-0.122070
5313482208,0.00213623,0.00303650,-1.00601196,0.244141,-0.122070,-0.061035
5318499166,0.00155640,0.00297546,-1.00563049,0.427246,0.000000,-0.122070
5323520500,0.00074768,0.00231934,-1.00566101,0.244141,0.000000,-0.183105
5328557125,0.00056458,0.00178528,-1.00654602,0.366211,0.061035,0.000000
5333500583,0.00106812,0.00186157,-1.00715637,0.244141,0.061035,-0.061035
5338512416,0.00158691,0.00224304,-1.00688171,0.488281,0.000000,-0.061035
5343512958,0.00149536,0.00234985,-1.00666809,0.366211,0.061035,-0.183105
5348489416,0.00102234,0.00230408,-1.00714111,0.244141,0.122070,-0.122070
5353521791,0.00088501,0.00270081,-1.00729370,0.244141,0.061035,0.000000
5358535708,0.00144958,0.00329590,-1.00657654,0.427246,0.122070,0.000000
5363493375,0.00213623,0.00366211,-1.00613403,0.366211,0.061035,-0.122070
5368495875,0.00250244,0.00399780,-1.00660706,0.305176,0.000000,-0.061035
5373503375,0.00276184,0.00437927,-1.00688171,0.244141,-0.061035,-0.061035
5378491250,0.00308228,0.00489807,-1.00605774,0.427246,0.061035,-0.122070
5383507125,0.00350952,0.00526428,-1.00515747,0.305176,0.000000,-0.061035
5388532666,0.00352478,0.00497437,-1.00523376,0.244141,0.183105,-0.183105
5393529000,0.00280762,0.00410461,-1.00576782,0.366211,0.000000,-0.244141
5398503125,0.00202942,0.00317383,-1.00598145,0.305176,0.061035,-0.122070
5403506625,0.00178528,0.00230408,-1.00587463,0.305176,0.000000,-0.061035
5408496666,0.00178528,0.00128174,-1.00567627,0.305176,0.122070,0.000000
5413496583,0.00172424,0.00042725,-1.00592041,0.244141,0.122070,-0.061035
5418516916,0.00178528,0.00022888,-1.00665283,0.244141,0.183105,0.061035
5423513500,0.00183105,0.00039673,-1.00680542,0.305176,0.000000,-0.061035
5428501666,0.00141907,0.00051880,-1.00599670,0.244141,-0.061035,0.000000
5433560958,0.00070190,0.00059509,-1.00550842,0.244141,0.183105,0.000000
5438518333,0.00019836,0.00077820,-1.00601196,0.122070,0.061035,0.000000
5443532458,0.00032043,0.00099182,-1.00674438,0.305176,0.122070,0.000000
5448524833,0.00109863,0.00155640,-1.00698853,0.366211,0.000000,0.000000
5453553041,0.00173950,0.00267029,-1.00666809,0.427246,0.061035,-0.122070
5458527666,0.00192261,0.00349426,-1.00596619,0.305176,0.000000,-0.122070
5463532333,0.00225830,0.00346375,-1.00526428,0.305176,0.061035,-0.061035
5468514000,0.00257874,0.00366211,-1.00520325,0.366211,0.122070,0.000000
5473535291,0.00213623,0.00466919,-1.00582886,0.244141,-0.061035,0.000000
5478529375,0.00148010,0.00543213,-1.00636292,0.305176,0.000000,0.000000
5483527500,0.00163269,0.00495911,-1.00628662,0.488281,-0.061035,-0.061035
5488524666,0.00224304,0.00387573,-1.00595093,0.305176,0.000000,0.000000
5493528791,0.00254822,0.00335693,-1.00573730,0.305176,0.061035,-0.061035
5498539166,0.00250244,0.00337219,-1.00563049,0.305176,0.061035,-0.122070
5503545375,0.00242615,0.00343323,-1.00599670,0.305176,0.061035,-0.183105
5508551000,0.00238037,0.00338745,-1.00674438,0.366211,-0.122070,-0.061035
5513527083,0.00210571,0.00303650,-1.00675964,0.244141,0.000000,0.000000
5518558375,0.00151062,0.00215149,-1.00595093,0.305176,0.061035,-0.122070
5523545166,0.00126648,0.00122070,-1.00585938,0.305176,0.061035,0.000000
5528534000,0.00160217,0.00117493,-1.00663757,0.305176,0.061035,-0.061035
5533533208,0.00183105,0.00202942,-1.00691223,0.244141,0.061035,-0.122070
5538535708,0.00161743,0.00276184,-1.00587463,0.305176,0.061035,-0.061035
5543565208,0.00129700,0.00282288,-1.00491333,0.305176,0.061035,-0.061035
5548552875,0.00115967,0.00248718,-1.00534058,0.366211,0.000000,-0.061035
5553569458,0.00125122,0.00215149,-1.00601196,0.366211,0.061035,-0.061035
5558542208,0.00141907,0.00221252,-1.00588989,0.305176,0.000000,-0.061035
5563535166,0.00149536,0.00277710,-1.00570679,0.366211,0.000000,-0.061035
5568574458,0.00148010,0.00360107,-1.00605774,0.366211,0.122070,0.061035
5573540541,0.00146484,0.00428772,-1.00656128,0.244141,0.000000,0.061035
5578515458,0.00161743,0.00436401,-1.00660706,0.366211,0.000000,-0.061035
5583558416,0.00204468,0.00421143,-1.00616455,0.366211,0.000000,-0.061035
5588612458,0.00254822,0.00408936,-1.00541687,0.366211,0.122070,0.000000
5593552583,0.00286865,0.00358582,-1.00506592,0.305176,0.000000,-0.061035
5598555625,0.00276184,0.00267029,-1.00575256,0.305176,0.061035,0.000000
5603538041,0.00236511,0.00196838,-1.00656128,0.427246,0.061035,0.000000
5608555708,0.00199890,0.00189209,-1.00631714,0.366211,0.000000,-0.061035
5613567333,0.00187683,0.00219727,-1.00582886,0.366211,0.061035,-0.061035
5618550000,0.00199890,0.00227356,-1.00607300,0.305176,-0.061035,0.000000
5623547625,0.00222778,0.00221252,-1.00637817,0.366211,0.000000,-0.122070
5628545791,0.00228882,0.00244141,-1.00585938,0.305176,0.061035,-0.122070
5633548250,0.00231934,0.00296021,-1.00527954,0.305176,0.061035,-0.122070
5638577291,0.00241089,0.00328064,-1.00581360,0.183105,0.000000,-0.061035
5643540083,0.00239563,0.00329590,-1.00663757,0.244141,0.000000,0.061035
5648573791,0.00205994,0.00326538,-1.00628662,0.305176,0.061035,-0.122070
5653581875,0.00149536,0.00303650,-1.00555420,0.366211,0.061035,-0.183105
5658573375,0.00137329,0.00262451,-1.00588989,0.366211,0.000000,0.061035
5663588416,0.00186157,0.00241089,-1.00706482,0.305176,0.061035,-0.061035
5668551208,0.00239563,0.00267029,-1.00793457,0.366211,0.061035,-0.061035
5673558125,0.00265503,0.00309753,-1.00770569,0.427246,0.061035,-0.122070
5678557666,0.00268555,0.00311279,-1.00683594,0.366211,0.000000,-0.122070
5683558958,0.00236511,0.00302124,-1.00634766,0.183105,-0.061035,-0.061035
5688567000,0.00204468,0.00331116,-1.00645447,0.366211,0.000000,-0.183105
5693579291,0.00201416,0.00361633,-1.00631714,0.305176,0.122070,-0.061035
5698579208,0.00177002,0.00340271,-1.00555420,0.366211,0.122070,-0.061035
5703578875,0.00122070,0.00305176,-1.00527954,0.183105,0.000000,-0.061035
5708568166,0.00090027,0.00321960,-1.00610352,0.366211,-0.061035,0.000000
5713575291,0.00090027,0.00338745,-1.00682068,0.366211,-0.061035,-0.061035
5718571083,0.00115967,0.00302124,-1.00642395,0.427246,0.122070,-0.061035
5723567625,0.00167847,0.00289917,-1.00572205,0.244141,0.061035,0.000000
5728575000,0.00207520,0.00331116,-1.00593567,0.427246,0.000000,-0.061035
5733600458,0.00175476,0.00321960,-1.00651550,0.488281,0.061035,0.000000
5738586083,0.00112915,0.00245667,-1.00610352,0.427246,-0.061035,-0.061035
5743650541,0.00085449,0.00181580,-1.00521851,0.366211,0.183105,-0.061035
5748565791,0.00093079,0.00190735,-1.00521851,0.244141,0.061035,-0.061035
5753611208,0.00120544,0.00250244,-1.00579834,0.122070,0.000000,-0.122070
5758577291,0.00170898,0.00280762,-1.00590515,0.305176,-0.061035,0.000000
5763575333,0.00262451,0.00277710,-1.00564575,0.183105,0.122070,-0.183105
5768589541,0.00343323,0.00271606,-1.00564575,0.183105,0.061035,-0.061035
5773588333,0.00299072,0.00239563,-1.00581360,0.305176,0.000000,-0.183105
5778587458,0.00167847,0.00210571,-1.00573730,0.427246,0.061035,-0.061035
5783577875,0.00083923,0.00227356,-1.00544739,0.366211,0.061035,0.000000
5788601291,0.00090027,0.00239563,-1.00488281,0.366211,0.061035,-0.061035
5793606083,0.00154114,0.00230408,-1.00463867,0.183105,0.061035,-0.122070
5798616458,0.00201416,0.00265503,-1.00527954,0.244141,0.122070,0.000000
5803602583,0.00193787,0.00318909,-1.00598145,0.183105,-0.122070,-0.122070
5808614500,0.00177002,0.00325012,-1.00602722,0.305176,0.061035,-0.061035
5813569625,0.00161743,0.00300598,-1.00608826,0.244141,0.000000,0.000000
5818613916,0.00146484,0.00296021,-1.00642395,0.244141,0.000000,0.061035
5823596500,0.00125122,0.00326538,-1.00650024,0.244141,-0.061035,0.000000
5828594250,0.00088501,0.00360107,-1.00585938,0.244141,0.000000,0.061035
5833633458,0.00071716,0.00366211,-1.00534058,0.366211,0.122070,-0.183105
5838604250,0.00097656,0.00384521,-1.00575256,0.427246,0.061035,-0.122070
5843588375,0.00137329,0.00410461,-1.00665283,0.366211,-0.061035,-0.061035
5848665583,0.00154114,0.00381470,-1.00686646,0.305176,-0.061035,-0.061035
5853610458,0.00161743,0.00303650,-1.00617981,0.366211,0.000000,-0.122070
5858592458,0.00175476,0.00244141,-1.00590515,0.244141,0.122070,-0.122070
5863616541,0.00184631,0.00231934,-1.00662231,0.305176,0.000000,-0.122070
5868592083,0.00210571,0.00254822,-1.00708008,0.305176,0.183105,-0.183105
5873616416,0.00238037,0.00297546,-1.00669861,0.427246,-0.061035,-0.122070
5878614500,0.00238037,0.00334167,-1.00630188,0.244141,0.183105,-0.061035
5883598541,0.00259399,0.00332642,-1.00628662,0.305176,0.061035,-0.061035
5888620333,0.00299072,0.00303650,-1.00657654,0.244141,-0.122070,-0.061035
5893605708,0.00296021,0.00273132,-1.00692749,0.244141,0.000000,0.061035
5898594875,0.00263977,0.00271606,-1.00663757,0.427246,0.000000,-0.061035
5903630000,0.00271606,0.00296021,-1.00601196,0.305176,0.122070,-0.122070
5908637666,0.00292969,0.00340271,-1.00614929,0.305176,0.000000,0.000000
5913583291,0.00260925,0.00358582,-1.00657654,0.244141,0.000000,-0.061035
5918614625,0.00195312,0.00315857,-1.00595093,0.244141,0.000000,-0.122070
5923627000,0.00172424,0.00250244,-1.00527954,0.427246,0.000000,0.061035
5928622833,0.00204468,0.00241089,-1.00607300,0.366211,0.061035,-0.122070
5933608541,0.00238037,0.00297546,-1.00708008,0.305176,0.000000,-0.061035
5938631916,0.00230408,0.00344849,-1.00648499,0.427246,0.061035,-0.061035
5943616958,0.00202942,0.00350952,-1.00512695,0.366211,0.000000,-0.122070
5948628625,0.00192261,0.00343323,-1.00463867,0.305176,0.122070,-0.122070
5953706250,0.00210571,0.00338745,-1.00535583,0.366211,0.061035,0.000000
5958623958,0.00236511,0.00338745,-1.00611877,0.183105,0.061035,-0.122070
5963618041,0.00233459,0.00320435,-1.00607300,0.305176,0.000000,-0.061035
5968624208,0.00193787,0.00262451,-1.00567627,0.305176,0.000000,0.122070
5973638291,0.00158691,0.00209045,-1.00578308,0.183105,-0.061035,-0.122070
5978631500,0.00187683,0.00218201,-1.00608826,0.244141,0.244141,0.000000
5983618583,0.00253296,0.00260925,-1.00578308,0.427246,0.061035,-0.061035
5988641083,0.00259399,0.00244141,-1.00535583,0.183105,0.000000,0.000000
5993641166,0.00201416,0.00192261,-1.00569153,0.244141,0.061035,0.000000
5998623333,0.00154114,0.00198364,-1.00614929,0.366211,0.061035,0.000000
6003638958,0.00170898,0.00244141,-1.00576782,0.305176,0.183105,-0.061035
6008602875,0.00221252,0.00259399,-1.00485229,0.244141,0.122070,-0.122070
6013627291,0.00233459,0.00250244,-1.00460815,0.305176,0.000000,-0.122070
6018627375,0.00186157,0.00256348,-1.00561523,0.183105,0.122070,0.000000
6023608833,0.00131226,0.00292969,-1.00700378,0.244141,0.061035,-0.122070
6028601000,0.00137329,0.00328064,-1.00743103,0.305176,0.000000,-0.061035
6033628125,0.00183105,0.00343323,-1.00671387,0.366211,0.122070,-0.061035
6038641458,0.00192261,0.00352478,-1.00613403,0.305176,0.061035,-0.061035
6043626166,0.00163269,0.00343323,-1.00613403,0.366211,0.000000,-0.061035
6048681750,0.00158691,0.00321960,-1.00610352,0.244141,0.061035,-0.183105
6053743375,0.00199890,0.00320435,-1.00611877,0.183105,0.061035,-0.244141
6058706583,0.00250244,0.00321960,-1.00633240,0.305176,0.183105,-0.061035
6063652750,0.00271606,0.00305176,-1.00663757,0.244141,0.061035,0.000000
6068678375,0.00225830,0.00294495,-1.00657654,0.305176,0.000000,0.000000
6073630083,0.00164795,0.00302124,-1.00581360,0.305176,0.000000,0.000000
6078635791,0.00201416,0.00314331,-1.00483704,0.244141,0.122070,0.000000
6083645416,0.00285339,0.00332642,-1.00466919,0.427246,0.061035,-0.061035
6088629333,0.00277710,0.00343323,-1.00538635,0.366211,0.122070,0.000000
6093661958,0.00199890,0.00340271,-1.00611877,0.488281,0.000000,-0.122070
6098684750,0.00155640,0.00312805,-1.00595093,0.183105,0.000000,-0.122070
6103699583,0.00129700,0.00279236,-1.00527954,0.244141,0.122070,-0.244141
6108657583,0.00105286,0.00273132,-1.00534058,0.305176,0.061035,0.000000
6114060958,0.00105286,0.00253296,-1.00587463,0.305176,0.061035,-0.183105
6118683958,0.00129700,0.00184631,-1.00575256,0.366211,0.061035,-0.122070
6123635833,0.00129700,0.00140381,-1.00552368,0.305176,0.000000,-0.183105
6128618208,0.00115967,0.00163269,-1.00633240,0.488281,0.061035,0.061035
6133633458,0.00125122,0.00205994,-1.00679016,0.183105,0.183105,-0.061035
6138663166,0.00146484,0.00233459,-1.00613403,0.366211,0.061035,-0.122070
6143662166,0.00181580,0.00271606,-1.00605774,0.427246,0.061035,-0.122070
6148654708,0.00245667,0.00325012,-1.00677490,0.366211,0.061035,-0.061035
6153678833,0.00297546,0.00349426,-1.00700378,0.305176,0.061035,-0.061035
6158625666,0.00309753,0.00347900,-1.00686646,0.427246,0.061035,0.000000
6163652916,0.00314331,0.00357056,-1.00650024,0.305176,-0.061035,-0.183105
6168737208,0.00328064,0.00392151,-1.00598145,0.244141,0.000000,-0.122070
6173665833,0.00326538,0.00411987,-1.00625610,0.183105,-0.061035,-0.061035
6178668208,0.00288391,0.00418091,-1.00689697,0.183105,0.061035,-0.244141
6183656958,0.00213623,0.00413513,-1.00657654,0.305176,0.000000,-0.061035
6188684041,0.00126648,0.00372314,-1.00588989,0.305176,0.122070,-0.061035
6193637166,0.00073242,0.00311279,-1.00593567,0.183105,-0.061035,-0.122070
6198699541,0.00109863,0.00265503,-1.00630188,0.488281,0.061035,-0.061035
6203680166,0.00199890,0.00228882,-1.00624084,0.366211,0.061035,-0.061035
6208660541,0.00236511,0.00218201,-1.00570679,0.244141,0.122070,-0.122070
6213637875,0.00195312,0.00245667,-1.00537109,0.305176,0.122070,-0.061035
6218743750,0.00146484,0.00274658,-1.00610352,0.366211,0.061035,-0.122070
6223652583,0.00161743,0.00259399,-1.00709534,0.244141,0.000000,0.061035
6228678125,0.00187683,0.00210571,-1.00665283,0.244141,0.061035,-0.061035
6233646583,0.00143433,0.00164795,-1.00567627,0.244141,-0.122070,-0.061035
6238688416,0.00109863,0.00177002,-1.00598145,0.366211,0.061035,0.000000
6243692916,0.00173950,0.00250244,-1.00675964,0.183105,0.122070,-0.183105
6248675875,0.00242615,0.00325012,-1.00637817,0.305176,0.122070,0.061035
6253712125,0.00222778,0.00354004,-1.00558472,0.366211,0.061035,-0.061035
6258655250,0.00187683,0.00357056,-1.00579834,0.366211,0.061035,-0.061035
6263665000,0.00204468,0.00367737,-1.00660706,0.488281,0.061035,0.000000
6268698666,0.00215149,0.00363159,-1.00694275,0.366211,0.061035,-0.122070
6273686916,0.00190735,0.00346375,-1.00659180,0.366211,0.122070,-0.061035
6278677708,0.00178528,0.00326538,-1.00599670,0.366211,0.183105,0.000000
6283671041,0.00190735,0.00302124,-1.00559998,0.183105,0.000000,0.000000
6288697250,0.00216675,0.00299072,-1.00572205,0.244141,0.061035,-0.061035
6293687375,0.00238037,0.00320435,-1.00587463,0.366211,0.000000,-0.061035
6298694583,0.00233459,0.00329590,-1.00549316,0.427246,0.183105,0.000000
6303708250,0.00207520,0.00312805,-1.00526428,0.305176,0.122070,-0.122070
6308662708,0.00183105,0.00276184,-1.00614929,0.427246,0.122070,-0.061035
6313649791,0.00140381,0.00239563,-1.00729370,0.427246,0.061035,-0.061035
6318670208,0.00080872,0.00204468,-1.00718689,0.488281,-0.061035,-0.122070
6323755750,0.00065613,0.00184631,-1.00627136,0.366211,0.122070,-0.061035
6328684125,0.00088501,0.00196838,-1.00622559,0.366211,-0.061035,0.000000
6333700666,0.00120544,0.00212097,-1.00674438,0.305176,0.244141,-0.061035
6338656041,0.00141907,0.00239563,-1.00645447,0.366211,-0.061035,-0.183105
6343693833,0.00141907,0.00263977,-1.00556946,0.244141,0.000000,0.000000
6348691833,0.00148010,0.00234985,-1.00541687,0.427246,0.183105,-0.061035
6353714333,0.00187683,0.00181580,-1.00619507,0.305176,0.061035,-0.061035
6358705958,0.00209045,0.00189209,-1.00685120,0.427246,0.061035,0.000000
6363683500,0.00187683,0.00265503,-1.00680542,0.244141,0.122070,-0.183105
6368723416,0.00173950,0.00326538,-1.00654602,0.305176,0.000000,-0.183105
6373705041,0.00163269,0.00321960,-1.00665283,0.122070,0.061035,0.061035
6378699250,0.00169373,0.00308228,-1.00701904,0.366211,-0.061035,-0.183105
6383681500,0.00207520,0.00346375,-1.00717163,0.183105,0.122070,0.000000
6388708583,0.00239563,0.00396729,-1.00674438,0.305176,0.000000,-0.122070
6393729333,0.00245667,0.00378418,-1.00592041,0.305176,0.000000,0.000000
6398687166,0.00256348,0.00326538,-1.00553894,0.305176,-0.122070,-0.061035
6403757666,0.00274658,0.00311279,-1.00608826,0.305176,0.000000,-0.061035
6408705875,0.00268555,0.00328064,-1.00659180,0.366211,0.061035,-0.122070
6413671458,0.00245667,0.00343323,-1.00624084,0.366211,0.061035,-0.061035
6418686541,0.00209045,0.00358582,-1.00584412,0.366211,0.122070,-0.061035
6423685500,0.00157166,0.00332642,-1.00601196,0.488281,0.061035,-0.122070
6428766583,0.00141907,0.00270081,-1.00595093,0.305176,0.000000,-0.061035
6433711708,0.00163269,0.00233459,-1.00556946,0.366211,0.061035,-0.061035
6438681500,0.00160217,0.00222778,-1.00596619,0.488281,0.122070,-0.061035
6443709708,0.00114441,0.00189209,-1.00712585,0.366211,0.061035,-0.122070
6448723291,0.00071716,0.00151062,-1.00791931,0.366211,0.061035,0.000000
6453696833,0.00068665,0.00143433,-1.00784302,0.305176,0.183105,-0.061035
6458706666,0.00085449,0.00170898,-1.00726318,0.305176,0.061035,-0.061035
6463697250,0.00138855,0.00213623,-1.00679016,0.183105,0.000000,0.000000
6468704458,0.00225830,0.00241089,-1.00663757,0.305176,0.183105,0.000000
6473711541,0.00250244,0.00228882,-1.00662231,0.244141,-0.061035,-0.122070
6478709041,0.00195312,0.00201416,-1.00646973,0.366211,0.061035,-0.122070
6483699833,0.00157166,0.00193787,-1.00628662,0.366211,0.000000,-0.183105
6488752416,0.00175476,0.00230408,-1.00634766,0.366211,0.061035,-0.061035
6493720541,0.00218201,0.00302124,-1.00650024,0.366211,0.061035,-0.061035
6498714166,0.00253296,0.00350952,-1.00616455,0.244141,0.000000,-0.061035
6503725500,0.00263977,0.00370789,-1.00569153,0.366211,0.061035,0.000000
6508679166,0.00286865,0.00384521,-1.00598145,0.305176,0.000000,-0.061035
6513696083,0.00346375,0.00382996,-1.00666809,0.305176,0.000000,-0.061035
6518762291,0.00366211,0.00369263,-1.00656128,0.305176,-0.061035,-0.122070
6523757500,0.00297546,0.00364685,-1.00604248,0.305176,0.061035,-0.061035
6528732958,0.00187683,0.00369263,-1.00596619,0.366211,0.122070,-0.061035
6533758750,0.00129700,0.00346375,-1.00608826,0.244141,0.000000,-0.061035
6538706875,0.00158691,0.00323486,-1.00598145,0.366211,0.122070,-0.061035
6543749208,0.00190735,0.00328064,-1.00593567,0.305176,0.122070,0.000000
6548729250,0.00148010,0.00334167,-1.00625610,0.366211,0.061035,0.000000
6553761125,0.00082397,0.00311279,-1.00636292,0.427246,0.061035,0.000000
6558712583,0.00094604,0.00257874,-1.00622559,0.427246,0.000000,-0.061035
6563708916,0.00173950,0.00173950,-1.00624084,0.366211,0.000000,-0.183105
6568734083,0.00224304,0.00082397,-1.00634766,0.488281,0.122070,-0.122070
6573699041,0.00183105,0.00048828,-1.00637817,0.366211,0.122070,-0.122070
6578739791,0.00120544,0.00094604,-1.00627136,0.366211,-0.061035,-0.122070
6583720750,0.00122070,0.00167847,-1.00605774,0.366211,0.183105,-0.061035
6588763583,0.00189209,0.00209045,-1.00599670,0.305176,0.122070,-0.183105
6593736125,0.00268555,0.00228882,-1.00611877,0.183105,-0.061035,-0.122070
6598746416,0.00292969,0.00242615,-1.00610352,0.305176,0.183105,-0.122070
6603766000,0.00260925,0.00253296,-1.00613403,0.305176,-0.061035,0.000000
6608755916,0.00253296,0.00296021,-1.00605774,0.244141,0.183105,0.000000
6613734916,0.00291443,0.00375366,-1.00564575,0.183105,0.183105,0.000000
6618719083,0.00291443,0.00436401,-1.00573730,0.366211,0.000000,-0.061035
6623744625,0.00242615,0.00453186,-1.00622559,0.244141,0.061035,-0.061035
6628736333,0.00198364,0.00471497,-1.00624084,0.305176,-0.061035,0.122070
6633728333,0.00177002,0.00502014,-1.00595093,0.244141,0.122070,-0.061035
6638713416,0.00158691,0.00492859,-1.00593567,0.244141,0.061035,-0.122070
6643712125,0.00144958,0.00453186,-1.00604248,0.305176,0.122070,0.000000
6648755958,0.00143433,0.00427246,-1.00608826,0.305176,0.061035,-0.122070
6653779041,0.00155640,0.00395203,-1.00639343,0.305176,0.061035,-0.122070
6658751875,0.00161743,0.00334167,-1.00663757,0.305176,0.000000,0.000000
6663744625,0.00134277,0.00270081,-1.00640869,0.488281,0.122070,0.000000
6668711833,0.00096130,0.00228882,-1.00599670,0.366211,0.183105,-0.183105
6673711416,0.00056458,0.00189209,-1.00610352,0.366211,0.122070,0.061035
6678737291,0.00035095,0.00154114,-1.00689697,0.427246,0.000000,0.000000
6683731708,0.00056458,0.00138855,-1.00726318,0.366211,0.061035,0.000000
6688788541,0.00112915,0.00122070,-1.00674438,0.122070,0.061035,-0.122070
6693753958,0.00155640,0.00091553,-1.00587463,0.244141,-0.061035,-0.061035
6698721041,0.00180054,0.00111389,-1.00523376,0.244141,0.000000,-0.122070
6703772833,0.00195312,0.00212097,-1.00518799,0.244141,0.061035,0.061035
6708753791,0.00230408,0.00292969,-1.00572205,0.244141,-0.061035,-0.122070
6713719583,0.00323486,0.00288391,-1.00650024,0.183105,0.061035,-0.122070
6718735583,0.00390625,0.00271606,-1.00697327,0.244141,0.061035,-0.061035
6723761958,0.00360107,0.00334167,-1.00726318,0.305176,0.000000,0.000000
6728757000,0.00289917,0.00436401,-1.00756836,0.366211,0.061035,0.000000
6733790333,0.00251770,0.00473022,-1.00744629,0.244141,0.061035,-0.061035
6738850125,0.00265503,0.00453186,-1.00698853,0.366211,-0.122070,-0.122070
6743747916,0.00271606,0.00427246,-1.00660706,0.305176,0.000000,-0.061035
6748750916,0.00230408,0.00415039,-1.00653076,0.305176,0.122070,-0.122070
6753807000,0.00172424,0.00425720,-1.00656128,0.122070,-0.061035,-0.122070
6758778625,0.00128174,0.00437927,-1.00659180,0.244141,-0.061035,-0.122070
6763755166,0.00108337,0.00434875,-1.00663757,0.305176,0.000000,-0.183105
6768775208,0.00143433,0.00386047,-1.00622559,0.305176,0.000000,0.000000
6773779750,0.00198364,0.00286865,-1.00529480,0.305176,0.061035,-0.061035
6778761375,0.00178528,0.00190735,-1.00521851,0.549316,0.122070,0.000000
6783744208,0.00097656,0.00148010,-1.00608826,0.488281,0.183105,-0.061035
6788776416,0.00068665,0.00143433,-1.00624084,0.366211,0.061035,-0.122070
6793765166,0.00108337,0.00135803,-1.00569153,0.366211,0.122070,-0.061035
6798780250,0.00126648,0.00119019,-1.00553894,0.366211,0.000000,0.000000
6803790541,0.00094604,0.00125122,-1.00596619,0.305176,0.122070,-0.122070
6808732708,0.00045776,0.00163269,-1.00608826,0.305176,0.061035,-0.183105
6813762750,0.00042725,0.00224304,-1.00552368,0.305176,0.061035,-0.061035
6818796916,0.00129700,0.00297546,-1.00520325,0.183105,0.000000,0.000000
6823791250,0.00222778,0.00346375,-1.00555420,0.305176,0.122070,-0.122070
6828779333,0.00245667,0.00379944,-1.00590515,0.122070,0.061035,0.000000
6833800708,0.00236511,0.00431824,-1.00596619,0.366211,0.122070,-0.061035
6838783166,0.00236511,0.00494385,-1.00576782,0.366211,0.061035,0.061035
6843778833,0.00228882,0.00523376,-1.00537109,0.244141,0.122070,-0.122070
6848761458,0.00205994,0.00500488,-1.00534058,0.427246,0.061035,-0.061035
6853806291,0.00190735,0.00445557,-1.00590515,0.305176,0.061035,0.122070
6858781208,0.00190735,0.00393677,-1.00633240,0.366211,0.000000,0.000000
6863765166,0.00189209,0.00355530,-1.00625610,0.305176,0.183105,-0.061035
6868801708,0.00169373,0.00314331,-1.00610352,0.244141,0.122070,-0.061035
6873780375,0.00151062,0.00270081,-1.00578308,0.305176,0.000000,0.000000
6878776500,0.00146484,0.00221252,-1.00529480,0.305176,0.000000,-0.183105
6883768708,0.00137329,0.00187683,-1.00520325,0.305176,0.000000,-0.122070
6888793416,0.00119019,0.00158691,-1.00566101,0.366211,0.122070,0.000000
6893851458,0.00122070,0.00125122,-1.00614929,0.183105,0.061035,-0.061035
6898781625,0.00144958,0.00152588,-1.00602722,0.244141,0.061035,-0.122070
6903803333,0.00175476,0.00222778,-1.00543213,0.244141,-0.061035,-0.061035
6908759083,0.00186157,0.00242615,-1.00531006,0.366211,0.000000,-0.061035
6913748250,0.00157166,0.00222778,-1.00581360,0.366211,0.000000,-0.061035
6918771583,0.00119019,0.00239563,-1.00619507,0.183105,0.183105,-0.061035
6923796750,0.00131226,0.00274658,-1.00634766,0.183105,0.000000,-0.061035
6928782833,0.00175476,0.00309753,-1.00624084,0.244141,0.122070,-0.122070
6933801125,0.00190735,0.00337219,-1.00590515,0.244141,0.000000,-0.183105
6938813458,0.00181580,0.00346375,-1.00593567,0.305176,0.061035,-0.061035
6943817750,0.00186157,0.00343323,-1.00616455,0.305176,0.183105,-0.122070
6948805375,0.00193787,0.00332642,-1.00608826,0.305176,0.000000,-0.122070
6953807500,0.00196838,0.00325012,-1.00595093,0.305176,0.122070,-0.183105
6958794458,0.00207520,0.00347900,-1.00613403,0.244141,-0.061035,-0.061035
6963796208,0.00250244,0.00366211,-1.00630188,0.183105,0.122070,0.000000
6968808500,0.00291443,0.00343323,-1.00610352,0.366211,0.061035,-0.183105
6973759708,0.00282288,0.00323486,-1.00584412,0.244141,0.183105,-0.061035
6978808458,0.00231934,0.00328064,-1.00585938,0.305176,-0.061035,-0.122070
6983850750,0.00177002,0.00321960,-1.00592041,0.305176,0.061035,0.000000
6988781833,0.00161743,0.00297546,-1.00549316,0.366211,0.061035,0.122070
6993777416,0.00160217,0.00268555,-1.00477600,0.488281,0.122070,-0.061035
6998786250,0.00160217,0.00256348,-1.00492859,0.366211,0.000000,-0.122070
7003806916,0.00181580,0.00286865,-1.00567627,0.366211,0.122070,0.000000
7008817125,0.00202942,0.00329590,-1.00585938,0.305176,0.122070,0.000000
7013772541,0.00212097,0.00312805,-1.00575256,0.122070,0.061035,-0.061035
7018790500,0.00180054,0.00270081,-1.00621033,0.305176,0.061035,-0.122070
7023846833,0.00120544,0.00267029,-1.00672913,0.427246,0.061035,-0.061035
7028813291,0.00103760,0.00285339,-1.00686646,0.305176,0.122070,0.061035
7033795416,0.00135803,0.00280762,-1.00692749,0.366211,0.183105,0.000000
7038785416,0.00177002,0.00244141,-1.00675964,0.305176,0.122070,-0.122070
7043804458,0.00196838,0.00230408,-1.00634766,0.366211,0.183105,-0.061035
7048864416,0.00193787,0.00262451,-1.00614929,0.366211,-0.061035,0.000000
7053849041,0.00193787,0.00285339,-1.00625610,0.305176,0.061035,-0.061035
7058845375,0.00201416,0.00274658,-1.00624084,0.244141,0.061035,0.061035
7063811000,0.00230408,0.00245667,-1.00610352,0.366211,0.000000,-0.061035
7068791541,0.00288391,0.00212097,-1.00650024,0.305176,0.061035,-0.122070
7073825291,0.00320435,0.00210571,-1.00715637,0.427246,0.000000,-0.061035
7078781875,0.00302124,0.00245667,-1.00685120,0.366211,0.061035,-0.122070
7083794791,0.00263977,0.00308228,-1.00588989,0.305176,0.122070,-0.122070
7088779083,0.00245667,0.00358582,-1.00569153,0.427246,0.122070,0.061035
7093778416,0.00262451,0.00361633,-1.00642395,0.366211,0.061035,-0.122070
7098815791,0.00265503,0.00344849,-1.00709534,0.305176,0.061035,0.122070
7103810458,0.00198364,0.00347900,-1.00695801,0.305176,-0.061035,0.000000
7108802125,0.00126648,0.00357056,-1.00634766,0.183105,0.122070,0.000000
7113839750,0.00148010,0.00352478,-1.00604248,0.366211,0.000000,-0.122070
7118828458,0.00204468,0.00360107,-1.00605774,0.305176,0.061035,-0.122070
7123824583,0.00177002,0.00376892,-1.00587463,0.366211,0.061035,-0.122070
7128857333,0.00097656,0.00366211,-1.00582886,0.183105,0.061035,-0.061035
7133844458,0.00091553,0.00340271,-1.00631714,0.366211,0.000000,-0.183105
7138904958,0.00131226,0.00306702,-1.00712585,0.305176,-0.061035,0.000000
7143848166,0.00105286,0.00276184,-1.00737000,0.244141,0.122070,-0.061035
7148862458,0.00073242,0.00268555,-1.00674438,0.244141,0.122070,-0.061035
7153913416,0.00123596,0.00265503,-1.00599670,0.488281,0.122070,0.000000
7158796375,0.00186157,0.00251770,-1.00559998,0.183105,0.061035,-0.061035
7163813166,0.00195312,0.00241089,-1.00546265,0.305176,0.183105,-0.122070
7168877875,0.00204468,0.00231934,-1.00556946,0.305176,0.122070,0.061035
7173800291,0.00271606,0.00213623,-1.00584412,0.427246,0.061035,-0.122070
7178835125,0.00334167,0.00222778,-1.00639343,0.305176,0.061035,-0.061035
7183833833,0.00314331,0.00265503,-1.00714111,0.183105,0.122070,-0.122070
7188919250,0.00239563,0.00286865,-1.00703430,0.122070,0.183105,-0.061035
7193848625,0.00205994,0.00267029,-1.00596619,0.244141,0.061035,-0.122070
7198844083,0.00213623,0.00245667,-1.00523376,0.305176,0.061035,-0.061035
7203858625,0.00192261,0.00263977,-1.00526428,0.183105,0.122070,-0.061035
7208838375,0.00140381,0.00311279,-1.00508118,0.427246,0.000000,-0.183105
7213812166,0.00094604,0.00335693,-1.00466919,0.366211,0.183105,-0.122070
7218861958,0.00074768,0.00321960,-1.00480652,0.488281,0.122070,-0.122070
7223847000,0.00105286,0.00337219,-1.00538635,0.305176,0.122070,0.000000
7228837583,0.00164795,0.00393677,-1.00593567,0.305176,0.122070,0.061035
7233863958,0.00193787,0.00410461,-1.00598145,0.183105,0.122070,0.061035
7238892958,0.00161743,0.00360107,-1.00559998,0.244141,0.061035,-0.122070
7243839083,0.00119019,0.00300598,-1.00537109,0.366211,0.000000,-0.122070
7248842375,0.00129700,0.00280762,-1.00552368,0.305176,0.000000,0.000000
7253867875,0.00169373,0.00280762,-1.00581360,0.305176,0.000000,-0.061035
7258890125,0.00187683,0.00251770,-1.00585938,0.183105,0.061035,-0.122070
7263844125,0.00192261,0.00213623,-1.00543213,0.244141,0.061035,0.061035
7268858291,0.00207520,0.00210571,-1.00521851,0.305176,0.061035,0.061035
7273847208,0.00233459,0.00216675,-1.00588989,0.244141,0.122070,-0.061035
7278852666,0.00247192,0.00204468,-1.00662231,0.549316,0.061035,0.000000
7283842416,0.00251770,0.00202942,-1.00653076,0.305176,0.000000,-0.183105
7288883791,0.00267029,0.00238037,-1.00634766,0.305176,-0.061035,0.000000
7293850750,0.00263977,0.00283813,-1.00677490,0.427246,0.061035,0.061035
7298868458,0.00227356,0.00314331,-1.00701904,0.244141,0.244141,-0.061035
7303864000,0.00202942,0.00326538,-1.00662231,0.305176,-0.061035,-0.122070
7308929833,0.00224304,0.00288391,-1.00642395,0.427246,0.183105,-0.122070
7313817541,0.00265503,0.00241089,-1.00654602,0.366211,0.061035,0.000000
7318844750,0.00267029,0.00265503,-1.00650024,0.366211,0.000000,-0.122070
7323842625,0.00221252,0.00337219,-1.00624084,0.366211,0.061035,0.000000
7328865625,0.00187683,0.00360107,-1.00596619,0.183105,0.061035,-0.061035
7333844166,0.00181580,0.00331116,-1.00604248,0.366211,0.061035,-0.183105
7338873583,0.00183105,0.00337219,-1.00657654,0.244141,0.061035,-0.061035
7343869958,0.00173950,0.00387573,-1.00683594,0.366211,0.122070,-0.061035
7348853750,0.00186157,0.00411987,-1.00636292,0.305176,0.000000,-0.183105
7353863666,0.00222778,0.00392151,-1.00570679,0.366211,0.061035,-0.061035
7358823500,0.00212097,0.00364685,-1.00549316,0.366211,0.000000,-0.061035
7363887375,0.00144958,0.00360107,-1.00592041,0.427246,0.061035,-0.061035
7368873958,0.00105286,0.00349426,-1.00654602,0.244141,0.061035,-0.122070
7373880708,0.00108337,0.00331116,-1.00697327,0.305176,0.061035,-0.122070
7378851875,0.00154114,0.00325012,-1.00743103,0.305176,0.122070,0.000000
7383846458,0.00234985,0.00296021,-1.00793457,0.305176,0.000000,-0.061035
7388859208,0.00288391,0.00204468,-1.00740051,0.305176,-0.061035,-0.122070
7393876541,0.00250244,0.00119019,-1.00558472,0.244141,-0.122070,0.000000
7398841458,0.00151062,0.00115967,-1.00468445,0.305176,-0.061035,0.000000
7403868458,0.00106812,0.00169373,-1.00598145,0.305176,0.061035,0.061035
7408843583,0.00148010,0.00213623,-1.00733948,0.244141,0.061035,0.000000
7413852416,0.00202942,0.00254822,-1.00688171,0.122070,0.061035,0.000000
7418866375,0.00222778,0.00285339,-1.00592041,0.244141,0.000000,-0.061035
7423883125,0.00209045,0.00297546,-1.00607300,0.305176,0.061035,-0.122070
7428867375,0.00202942,0.00317383,-1.00672913,0.244141,0.122070,-0.061035
7433887583,0.00222778,0.00332642,-1.00695801,0.244141,0.061035,-0.061035
7438886166,0.00244141,0.00318909,-1.00659180,0.488281,0.061035,-0.061035
7443893041,0.00256348,0.00305176,-1.00596619,0.305176,0.183105,-0.122070
7448868250,0.00276184,0.00318909,-1.00596619,0.183105,-0.061035,-0.183105
7453926333,0.00271606,0.00341797,-1.00651550,0.427246,0.000000,-0.061035
7458879166,0.00216675,0.00360107,-1.00646973,0.305176,-0.061035,-0.122070
7463857583,0.00155640,0.00379944,-1.00595093,0.183105,0.122070,0.000000
7468876375,0.00138855,0.00389099,-1.00634766,0.427246,0.122070,-0.061035
7473863041,0.00172424,0.00367737,-1.00744629,0.366211,0.122070,0.000000
7478893750,0.00219727,0.00332642,-1.00784302,0.244141,0.000000,0.061035
7483875916,0.00230408,0.00338745,-1.00720215,0.488281,0.122070,0.000000
7488875458,0.00161743,0.00352478,-1.00659180,0.305176,0.061035,-0.122070
7493893041,0.00080872,0.00312805,-1.00660706,0.305176,0.000000,0.000000
7498913166,0.00079346,0.00253296,-1.00674438,0.366211,0.061035,-0.122070
7503882416,0.00137329,0.00222778,-1.00665283,0.244141,0.122070,-0.122070
7508897916,0.00205994,0.00241089,-1.00674438,0.366211,0.000000,-0.122070
7513887583,0.00263977,0.00267029,-1.00686646,0.183105,0.061035,0.000000
7518959875,0.00277710,0.00238037,-1.00663757,0.244141,0.000000,-0.061035
7523919125,0.00254822,0.00184631,-1.00636292,0.305176,0.061035,-0.122070
7528907541,0.00230408,0.00180054,-1.00624084,0.305176,0.061035,-0.061035
7533878166,0.00218201,0.00230408,-1.00604248,0.549316,0.122070,0.000000
7539167916,0.00245667,0.00288391,-1.00595093,0.305176,0.183105,-0.183105
7543882833,0.00282288,0.00337219,-1.00633240,0.244141,0.000000,0.000000
7548862208,0.00270081,0.00370789,-1.00654602,0.427246,0.061035,-0.061035
7553890375,0.00225830,0.00369263,-1.00614929,0.244141,0.061035,0.061035
7558916333,0.00207520,0.00355530,-1.00619507,0.244141,0.000000,0.000000
7563896750,0.00187683,0.00370789,-1.00711060,0.244141,0.000000,-0.244141
7568893208,0.00140381,0.00402832,-1.00744629,0.183105,0.122070,-0.122070
7573917625,0.00126648,0.00419617,-1.00668335,0.305176,0.061035,-0.061035
7578907333,0.00141907,0.00389099,-1.00614929,0.305176,0.000000,0.061035
7583906708,0.00138855,0.00329590,-1.00630188,0.305176,0.183105,-0.061035
7588894833,0.00146484,0.00265503,-1.00619507,0.427246,0.000000,-0.122070
7593924541,0.00187683,0.00228882,-1.00567627,0.244141,0.000000,-0.061035
7598894291,0.00195312,0.00265503,-1.00531006,0.305176,0.000000,-0.061035
7603926625,0.00158691,0.00340271,-1.00520325,0.366211,0.061035,-0.122070
7608866791,0.00163269,0.00384521,-1.00500488,0.427246,0.183105,-0.061035
7613872666,0.00222778,0.00372314,-1.00471497,0.488281,-0.061035,-0.122070
7618904916,0.00231934,0.00338745,-1.00491333,0.244141,0.061035,-0.061035
7623982750,0.00167847,0.00296021,-1.00559998,0.366211,0.061035,-0.061035
7628928875,0.00123596,0.00239563,-1.00611877,0.305176,0.000000,-0.122070
7633894708,0.00149536,0.00212097,-1.00645447,0.183105,0.061035,-0.122070
7638895875,0.00172424,0.00244141,-1.00663757,0.244141,-0.061035,-0.061035
7643920000,0.00158691,0.00285339,-1.00605774,0.305176,0.000000,-0.061035
7648885833,0.00129700,0.00283813,-1.00514221,0.366211,0.061035,0.061035
7653922583,0.00103760,0.00238037,-1.00521851,0.305176,0.061035,-0.061035
7658936916,0.00093079,0.00210571,-1.00608826,0.366211,0.000000,-0.244141
7663893083,0.00094604,0.00233459,-1.00648499,0.244141,0.122070,-0.061035
7668917083,0.00097656,0.00276184,-1.00634766,0.305176,0.061035,-0.122070
7673895291,0.00109863,0.00297546,-1.00657654,0.366211,-0.122070,-0.183105
7678889250,0.00155640,0.00297546,-1.00695801,0.244141,0.000000,-0.061035
7683897875,0.00219727,0.00302124,-1.00662231,0.244141,0.061035,-0.122070
7688884625,0.00273132,0.00332642,-1.00598145,0.183105,0.122070,-0.183105
7693907125,0.00323486,0.00349426,-1.00592041,0.244141,0.183105,0.000000
7698905125,0.00366211,0.00334167,-1.00599670,0.366211,0.183105,-0.061035
7703938791,0.00355530,0.00331116,-1.00569153,0.244141,0.061035,-0.061035
7708941791,0.00309753,0.00341797,-1.00558472,0.427246,0.061035,-0.183105
7713906875,0.00283813,0.00347900,-1.00605774,0.244141,-0.061035,-0.183105
7718907916,0.00285339,0.00367737,-1.00634766,0.305176,0.061035,-0.061035
7723936000,0.00277710,0.00410461,-1.00582886,0.305176,0.061035,0.000000
7728998500,0.00251770,0.00434875,-1.00526428,0.244141,0.000000,0.000000
7733924125,0.00210571,0.00408936,-1.00512695,0.305176,0.061035,0.000000
7738898666,0.00163269,0.00364685,-1.00555420,0.244141,-0.061035,0.000000
7743909041,0.00134277,0.00358582,-1.00634766,0.305176,0.000000,0.061035
7748926208,0.00100708,0.00367737,-1.00668335,0.366211,0.183105,-0.061035
7753956041,0.00050354,0.00354004,-1.00651550,0.244141,0.061035,0.000000
7758939291,0.00042725,0.00314331,-1.00634766,0.183105,0.061035,-0.122070
7763903541,0.00105286,0.00241089,-1.00633240,0.427246,0.122070,0.000000
7768898291,0.00160217,0.00167847,-1.00621033,0.244141,0.000000,-0.122070
7773939458,0.00169373,0.00135803,-1.00567627,0.305176,0.061035,-0.122070
7778948666,0.00163269,0.00135803,-1.00544739,0.366211,0.122070,0.061035
7783931666,0.00135803,0.00132751,-1.00561523,0.183105,0.061035,-0.061035
7788931958,0.00129700,0.00149536,-1.00541687,0.427246,0.061035,-0.122070
7793961291,0.00195312,0.00205994,-1.00505066,0.305176,0.122070,0.000000
7798935041,0.00276184,0.00259399,-1.00531006,0.244141,0.000000,-0.061035
7803971000,0.00300598,0.00315857,-1.00611877,0.427246,0.061035,-0.122070
7808931666,0.00306702,0.00376892,-1.00677490,0.122070,0.061035,-0.122070
7813928791,0.00344849,0.00404358,-1.00669861,0.183105,0.061035,-0.061035
7818948583,0.00352478,0.00408936,-1.00598145,0.305176,0.122070,-0.061035
7823950416,0.00289917,0.00433350,-1.00540161,0.244141,0.061035,-0.061035
7828935916,0.00212097,0.00450134,-1.00555420,0.305176,0.061035,-0.061035
7834044583,0.00193787,0.00424194,-1.00598145,0.427246,0.061035,0.000000
7838909500,0.00234985,0.00382996,-1.00596619,0.366211,0.061035,0.061035
7843961583,0.00241089,0.00326538,-1.00563049,0.427246,0.061035,-0.061035
7848956041,0.00152588,0.00263977,-1.00567627,0.488281,0.000000,-0.061035
7853966875,0.00057983,0.00233459,-1.00608826,0.366211,0.000000,0.000000
7858957625,0.00028992,0.00233459,-1.00596619,0.244141,0.061035,-0.061035
7863935791,0.00036621,0.00239563,-1.00543213,0.305176,0.122070,-0.061035
7868941125,0.00048828,0.00260925,-1.00575256,0.305176,-0.061035,0.000000
7873955625,0.00079346,0.00274658,-1.00672913,0.244141,0.122070,-0.061035
7878959458,0.00122070,0.00234985,-1.00668335,0.305176,0.122070,-0.061035
7883948750,0.00140381,0.00169373,-1.00595093,0.366211,0.000000,0.000000
7888942583,0.00120544,0.00148010,-1.00598145,0.305176,0.122070,-0.122070
7893946250,0.00117493,0.00199890,-1.00660706,0.305176,0.244141,-0.183105
7898962833,0.00175476,0.00259399,-1.00677490,0.366211,0.061035,-0.061035
7903952750,0.00257874,0.00259399,-1.00608826,0.366211,0.122070,-0.183105
7908924083,0.00288391,0.00262451,-1.00566101,0.305176,0.122070,-0.061035
7913939166,0.00280762,0.00311279,-1.00602722,0.305176,0.122070,-0.061035
7918951916,0.00328064,0.00366211,-1.00653076,0.183105,0.061035,-0.061035
7923971166,0.00390625,0.00379944,-1.00659180,0.183105,0.000000,-0.061035
7928961833,0.00372314,0.00332642,-1.00624084,0.244141,0.061035,0.000000
7933959291,0.00309753,0.00267029,-1.00619507,0.427246,0.122070,-0.061035
7939022750,0.00259399,0.00260925,-1.00675964,0.305176,0.122070,-0.122070
7943966125,0.00199890,0.00299072,-1.00730896,0.305176,0.000000,-0.244141
7948950166,0.00125122,0.00328064,-1.00724792,0.427246,0.122070,-0.061035
7953966541,0.00091553,0.00340271,-1.00668335,0.305176,0.000000,-0.061035
7958993083,0.00117493,0.00341797,-1.00639343,0.305176,0.000000,-0.122070
7963964791,0.00140381,0.00335693,-1.00666809,0.427246,0.122070,0.000000
7968920458,0.00126648,0.00318909,-1.00656128,0.427246,-0.061035,0.061035
7973934916,0.00109863,0.00317383,-1.00584412,0.305176,0.061035,0.000000
7978961916,0.00126648,0.00314331,-1.00607300,0.366211,0.061035,0.000000
7983970166,0.00131226,0.00300598,-1.00703430,0.305176,0.000000,-0.061035
7988947250,0.00108337,0.00289917,-1.00682068,0.305176,0.122070,-0.122070
7994012833,0.00099182,0.00286865,-1.00556946,0.183105,0.183105,-0.061035
7998987541,0.00132751,0.00277710,-1.00526428,0.244141,0.061035,-0.061035
8003994666,0.00166321,0.00274658,-1.00611877,0.183105,0.000000,-0.061035
8008959916,0.00157166,0.00270081,-1.00688171,0.427246,0.061035,-0.183105
8014042000,0.00149536,0.00238037,-1.00695801,0.122070,0.122070,-0.122070
8018995083,0.00173950,0.00221252,-1.00651550,0.244141,0.061035,-0.183105
8023966166,0.00183105,0.00250244,-1.00582886,0.305176,0.000000,-0.061035
8028991583,0.00161743,0.00286865,-1.00543213,0.244141,0.000000,0.000000
8033979000,0.00143433,0.00292969,-1.00584412,0.366211,0.061035,-0.122070
8038951375,0.00141907,0.00285339,-1.00682068,0.244141,-0.061035,-0.244141
8044046083,0.00144958,0.00267029,-1.00718689,0.366211,-0.061035,-0.122070
8048963250,0.00149536,0.00276184,-1.00697327,0.305176,0.061035,0.000000
8054029833,0.00169373,0.00334167,-1.00692749,0.244141,0.061035,-0.122070
8058989041,0.00195312,0.00379944,-1.00689697,0.305176,0.000000,-0.061035
8063970541,0.00209045,0.00378418,-1.00668335,0.305176,0.000000,-0.061035
8068950625,0.00236511,0.00389099,-1.00659180,0.366211,0.183105,-0.122070
8074015208,0.00254822,0.00418091,-1.00694275,0.366211,-0.061035,0.000000
8078969750,0.00189209,0.00416565,-1.00729370,0.427246,0.000000,0.000000
8083979875,0.00076294,0.00382996,-1.00653076,0.366211,0.122070,-0.122070
8088981458,0.00048828,0.00323486,-1.00532532,0.305176,-0.061035,-0.183105
8093996958,0.00141907,0.00260925,-1.00511169,0.488281,0.000000,-0.061035
8098990708,0.00233459,0.00230408,-1.00544739,0.366211,0.122070,-0.061035
8103973416,0.00218201,0.00216675,-1.00582886,0.427246,0.183105,-0.061035
8109007625,0.00123596,0.00196838,-1.00653076,0.366211,0.122070,-0.061035
8114004500,0.00067139,0.00177002,-1.00677490,0.183105,0.000000,0.000000
8118987333,0.00090027,0.00175476,-1.00584412,0.366211,0.061035,0.000000
8124024083,0.00164795,0.00192261,-1.00482178,0.305176,0.122070,0.000000
8128993458,0.00231934,0.00236511,-1.00492859,0.305176,-0.061035,-0.122070
8133980916,0.00239563,0.00303650,-1.00563049,0.366211,0.061035,-0.122070
8138962250,0.00184631,0.00328064,-1.00595093,0.305176,-0.061035,0.000000
8144011625,0.00125122,0.00297546,-1.00593567,0.244141,-0.061035,-0.061035
8149077583,0.00115967,0.00302124,-1.00598145,0.244141,0.061035,0.000000
8154026333,0.00154114,0.00340271,-1.00601196,0.366211,0.061035,-0.122070
8158993375,0.00202942,0.00373840,-1.00616455,0.183105,0.061035,-0.061035
8164047458,0.00215149,0.00405884,-1.00633240,0.244141,0.061035,-0.061035
8169034916,0.00204468,0.00395203,-1.00595093,0.305176,0.061035,-0.244141
8173981875,0.00222778,0.00332642,-1.00534058,0.305176,0.061035,-0.061035
8179000875,0.00221252,0.00308228,-1.00552368,0.366211,0.061035,-0.061035
