timestamp_ns,accel_x,accel_y,accel_z,gyro_x,gyro_y,gyro_z
61270958,0.00712585,-0.00318909,-1.00872803,0.305176,0.122070,-0.122070
68187041,0.00540161,-0.00454712,-1.00262451,0.549316,-0.122070,0.000000
71835541,0.00363159,-0.00474548,-1.00346375,0.488281,-0.122070,-0.061035
76309291,0.00152588,-0.00422668,-1.00604248,0.427246,0.000000,-0.122070
81268625,-0.00062561,-0.00314331,-1.00408936,0.183105,0.122070,-0.061035
86885000,-0.00239563,-0.00163269,-1.00321960,0.244141,0.000000,-0.122070
91860083,-0.00343323,-0.00009155,-1.00704956,0.183105,0.061035,-0.122070
96272125,-0.00361633,0.00135803,-1.01106262,0.244141,0.061035,-0.122070
103206958,-0.00329590,0.00305176,-1.01100159,0.305176,-0.061035,-0.061035
112763666,-0.00309753,0.00486755,-1.00669861,0.305176,0.000000,-0.122070
112780583,-0.00334167,0.00651550,-1.00219727,0.305176,0.000000,-0.122070
117694833,-0.00340271,0.00775146,-1.00305176,0.366211,0.122070,-0.061035
122754958,-0.00241089,0.00831604,-1.00669861,0.366211,0.061035,-0.061035
126285416,-0.00047302,0.00814819,-1.00704956,0.366211,0.122070,0.061035
131478458,0.00180054,0.00737000,-1.00559998,0.305176,0.061035,0.061035
136323125,0.00416565,0.00628662,-1.00511169,0.122070,0.000000,-0.061035
141943416,0.00593567,0.00555420,-1.00541687,0.305176,0.061035,0.000000
146292833,0.00660706,0.00547791,-1.00672913,0.366211,0.000000,-0.183105
152214500,0.00685120,0.00511169,-1.00737000,0.427246,0.061035,0.000000
156283208,0.00761414,0.00389099,-1.00590515,0.244141,0.000000,-0.122070
161281750,0.00862122,0.00245667,-1.00469971,0.305176,0.061035,-0.061035
166277000,0.00856018,0.00132751,-1.00595093,0.244141,0.000000,-0.122070
171289083,0.00689697,0.00021362,-1.00752258,0.244141,-0.061035,-0.122070
176275375,0.00445557,-0.00099182,-1.00689697,0.305176,0.122070,0.000000
181281666,0.00222778,-0.00187683,-1.00584412,0.244141,-0.061035,-0.061035
186292833,0.00065613,-0.00233459,-1.00593567,0.244141,0.061035,-0.183105
191296958,-0.00048828,-0.00247192,-1.00622559,0.305176,-0.061035,-0.061035
196378000,-0.00177002,-0.00225830,-1.00611877,0.305176,-0.061035,-0.122070
201301375,-0.00300598,-0.00144958,-1.00529480,0.122070,0.061035,-0.061035
206327500,-0.00364685,0.00006104,-1.00492859,0.427246,0.183105,0.061035
211321791,-0.00346375,0.00216675,-1.00617981,0.305176,0.122070,0.000000
216352416,-0.00257874,0.00474548,-1.00737000,0.244141,0.122070,-0.061035
221333500,-0.00122070,0.00741577,-1.00640869,0.122070,0.061035,0.000000
226321708,0.00022888,0.00927734,-1.00421143,0.244141,0.122070,-0.061035
231327083,0.00148010,0.00988770,-1.00494385,0.244141,0.061035,-0.122070
236312500,0.00291443,0.00944519,-1.00851440,0.366211,0.122070,-0.122070
241328500,0.00463867,0.00840759,-1.00845337,0.366211,0.000000,-0.061035
246304916,0.00628662,0.00708008,-1.00450134,0.183105,-0.061035,-0.244141
251319791,0.00758362,0.00561523,-1.00343323,0.122070,0.061035,0.000000
256326083,0.00816345,0.00416565,-1.00657654,0.488281,0.061035,0.000000
261352708,0.00759888,0.00267029,-1.00868225,0.488281,0.000000,-0.122070
266320583,0.00624084,0.00117493,-1.00665283,0.244141,0.122070,0.000000
271327750,0.00511169,0.00009155,-1.00407410,0.244141,0.122070,-0.061035
276332875,0.00447083,-0.00041199,-1.00534058,0.305176,0.000000,-0.061035
281321875,0.00346375,-0.00054932,-1.00794983,0.305176,0.061035,0.000000
286313541,0.00177002,-0.00051880,-1.00796509,0.305176,-0.061035,-0.122070
291346291,0.00032043,-0.00038147,-1.00602722,0.427246,0.122070,-0.122070
296323458,-0.00024414,0.00024414,-1.00468445,0.366211,0.122070,0.061035
301367000,-0.00056458,0.00144958,-1.00526428,0.366211,-0.061035,-0.122070
306357041,-0.00134277,0.00256348,-1.00677490,0.366211,0.000000,-0.122070
311370541,-0.00213623,0.00318909,-1.00688171,0.366211,0.061035,0.000000
316349583,-0.00212097,0.00347900,-1.00537109,0.305176,0.122070,0.000000
321357666,-0.00163269,0.00398254,-1.00512695,0.244141,0.061035,0.000000
326327166,-0.00128174,0.00489807,-1.00695801,0.244141,0.000000,-0.122070
331349875,-0.00071716,0.00576782,-1.00740051,0.305176,0.061035,-0.061035
336345166,0.00073242,0.00625610,-1.00529480,0.305176,0.183105,0.061035
341360333,0.00259399,0.00630188,-1.00375366,0.305176,0.183105,0.000000
346377291,0.00395203,0.00617981,-1.00433350,0.244141,0.122070,-0.122070
351370250,0.00494385,0.00619507,-1.00588989,0.366211,0.000000,-0.061035
356377375,0.00611877,0.00607300,-1.00677490,0.305176,0.122070,-0.061035
361357541,0.00691223,0.00518799,-1.00619507,0.244141,0.000000,-0.061035
366381541,0.00688171,0.00363159,-1.00544739,0.244141,0.122070,-0.061035
371391291,0.00633240,0.00227356,-1.00595093,0.122070,0.000000,-0.061035
376362166,0.00540161,0.00123596,-1.00714111,0.366211,0.183105,0.000000
381543708,0.00396729,-0.00006104,-1.00735474,0.244141,0.061035,-0.183105
386327750,0.00248718,-0.00149536,-1.00677490,0.244141,0.061035,-0.061035
391346166,0.00131226,-0.00250244,-1.00674438,0.366211,0.061035,0.000000
396413958,0.00024414,-0.00276184,-1.00675964,0.305176,0.061035,0.061035
401386416,-0.00083923,-0.00189209,-1.00610352,0.427246,0.061035,-0.183105
406365166,-0.00166321,-0.00016785,-1.00556946,0.427246,0.000000,0.000000
411400541,-0.00169373,0.00172424,-1.00549316,0.366211,0.122070,-0.122070
416398458,-0.00105286,0.00355530,-1.00567627,0.427246,-0.061035,0.000000
421357791,-0.00025940,0.00518799,-1.00585938,0.610352,0.122070,0.000000
426351875,0.00056458,0.00657654,-1.00573730,0.366211,-0.061035,-0.122070
431367583,0.00146484,0.00756836,-1.00518799,0.488281,0.122070,-0.061035
436368583,0.00234985,0.00793457,-1.00506592,0.427246,0.000000,-0.122070
441349083,0.00291443,0.00770569,-1.00601196,0.244141,0.122070,-0.122070
446404958,0.00306702,0.00691223,-1.00721741,0.122070,0.122070,-0.122070
451433500,0.00311279,0.00573730,-1.00773621,0.305176,0.122070,-0.061035
456836000,0.00329590,0.00460815,-1.00761414,0.366211,0.000000,-0.061035
461409750,0.00364685,0.00347900,-1.00714111,0.305176,0.061035,-0.061035
466403458,0.00413513,0.00234985,-1.00665283,0.305176,0.000000,0.061035
471364250,0.00463867,0.00146484,-1.00643921,0.305176,0.000000,-0.122070
476385083,0.00477600,0.00076294,-1.00592041,0.244141,0.000000,-0.061035
481358625,0.00448608,0.00019836,-1.00535583,0.244141,-0.061035,-0.244141
486388750,0.00395203,0.00004578,-1.00529480,0.305176,0.061035,-0.122070
491375791,0.00305176,0.00045776,-1.00494385,0.427246,0.122070,0.000000
496369916,0.00196838,0.00086975,-1.00444031,0.244141,0.000000,-0.122070
501401708,0.00149536,0.00070190,-1.00482178,0.366211,0.061035,0.061035
506358208,0.00138855,0.00027466,-1.00555420,0.366211,0.061035,-0.122070
511383041,0.00077820,0.00042725,-1.00556946,0.183105,0.122070,0.000000
516404833,-0.00007629,0.00117493,-1.00555420,0.244141,0.061035,-0.183105
521379958,-0.00054932,0.00207520,-1.00592041,0.305176,0.122070,0.000000
526430458,-0.00035095,0.00306702,-1.00593567,0.427246,0.183105,0.061035
531379291,0.00064087,0.00410461,-1.00564575,0.549316,0.122070,-0.061035
536371916,0.00218201,0.00509644,-1.00491333,0.244141,0.183105,-0.061035
541393875,0.00344849,0.00585938,-1.00392151,0.427246,0.183105,0.000000
546405541,0.00381470,0.00613403,-1.00434875,0.244141,0.122070,-0.061035
551410625,0.00381470,0.00633240,-1.00598145,0.427246,0.244141,-0.122070
556377916,0.00427246,0.00660706,-1.00660706,0.488281,0.061035,-0.122070
561403041,0.00515747,0.00628662,-1.00593567,0.366211,0.000000,-0.061035
566423208,0.00581360,0.00502014,-1.00523376,0.244141,0.000000,-0.122070
571444666,0.00582886,0.00355530,-1.00532532,0.244141,0.061035,-0.061035
576482041,0.00534058,0.00248718,-1.00706482,0.366211,0.183105,-0.183105
581357625,0.00460815,0.00135803,-1.00892639,0.305176,0.061035,-0.061035
586386583,0.00358582,0.00038147,-1.00790405,0.366211,0.000000,-0.183105
591414416,0.00265503,0.00030518,-1.00537109,0.366211,0.000000,-0.061035
596383000,0.00201416,0.00062561,-1.00459290,0.366211,0.000000,-0.122070
601381333,0.00163269,0.00090027,-1.00482178,0.244141,0.000000,-0.183105
606377208,0.00160217,0.00163269,-1.00483704,0.366211,-0.122070,0.000000
611422041,0.00157166,0.00285339,-1.00547791,0.427246,-0.061035,-0.122070
616436458,0.00114441,0.00381470,-1.00637817,0.366211,0.122070,-0.061035
621417958,0.00056458,0.00424194,-1.00619507,0.305176,0.061035,-0.061035
626431375,0.00018311,0.00463867,-1.00563049,0.488281,0.000000,0.000000
631444333,0.00000000,0.00506592,-1.00561523,0.244141,0.061035,-0.061035
636424125,0.00001526,0.00509644,-1.00534058,0.488281,0.122070,-0.061035
641433458,0.00033569,0.00474548,-1.00494385,0.427246,0.061035,-0.183105
646391250,0.00079346,0.00419617,-1.00521851,0.244141,0.122070,-0.061035
651446000,0.00115967,0.00360107,-1.00563049,0.244141,0.000000,-0.061035
656409500,0.00175476,0.00306702,-1.00607300,0.244141,0.000000,-0.122070
661433291,0.00265503,0.00233459,-1.00674438,0.122070,0.000000,0.000000
666401500,0.00344849,0.00151062,-1.00683594,0.305176,0.000000,-0.183105
671413000,0.00405884,0.00109863,-1.00640869,0.305176,0.061035,-0.122070
676437958,0.00459290,0.00129700,-1.00650024,0.305176,0.000000,0.000000
681440916,0.00476074,0.00172424,-1.00659180,0.305176,0.122070,-0.061035
686469291,0.00440979,0.00202942,-1.00619507,0.427246,0.061035,-0.061035
691420750,0.00392151,0.00225830,-1.00631714,0.366211,0.000000,-0.122070
696425833,0.00349426,0.00228882,-1.00683594,0.488281,0.061035,-0.122070
701444208,0.00300598,0.00213623,-1.00660706,0.366211,0.061035,-0.061035
706439416,0.00242615,0.00218201,-1.00578308,0.305176,0.183105,-0.061035
711417250,0.00192261,0.00241089,-1.00555420,0.427246,-0.061035,0.000000
716421583,0.00154114,0.00273132,-1.00595093,0.488281,0.122070,0.000000
721442041,0.00114441,0.00306702,-1.00599670,0.183105,0.000000,-0.061035
726440666,0.00064087,0.00297546,-1.00593567,0.305176,0.061035,-0.061035
731522750,0.00000000,0.00283813,-1.00625610,0.366211,0.000000,-0.183105
736420958,-0.00050354,0.00343323,-1.00662231,0.305176,0.061035,-0.183105
741448291,-0.00021362,0.00444031,-1.00682068,0.366211,-0.061035,-0.122070
746463958,0.00080872,0.00511169,-1.00666809,0.183105,0.000000,-0.061035
751418625,0.00172424,0.00537109,-1.00602722,0.305176,0.061035,-0.122070
756457166,0.00215149,0.00534058,-1.00541687,0.244141,0.183105,-0.183105
761419875,0.00236511,0.00488281,-1.00514221,0.366211,-0.061035,0.000000
766422000,0.00273132,0.00424194,-1.00521851,0.305176,-0.061035,0.061035
771453375,0.00344849,0.00358582,-1.00573730,0.244141,0.000000,-0.061035
776433541,0.00407410,0.00236511,-1.00605774,0.244141,0.183105,-0.122070
781414291,0.00384521,0.00077820,-1.00520325,0.366211,0.061035,-0.061035
786454000,0.00326538,-0.00013733,-1.00422668,0.183105,0.000000,0.000000
791438000,0.00335693,-0.00016785,-1.00448608,0.427246,-0.061035,-0.122070
796418916,0.00405884,0.00010681,-1.00505066,0.366211,0.061035,-0.061035
801437458,0.00469971,0.00027466,-1.00523376,0.244141,-0.061035,-0.061035
806446291,0.00445557,0.00056458,-1.00569153,0.366211,0.000000,-0.244141
811457541,0.00312805,0.00128174,-1.00617981,0.366211,0.000000,-0.122070
816434791,0.00175476,0.00233459,-1.00648499,0.427246,-0.061035,-0.183105
821475250,0.00123596,0.00354004,-1.00657654,0.366211,0.061035,-0.122070
826465041,0.00126648,0.00433350,-1.00588989,0.366211,-0.061035,-0.183105
831447666,0.00114441,0.00437927,-1.00509644,0.183105,-0.061035,-0.122070
836446500,0.00074768,0.00421143,-1.00552368,0.305176,0.000000,-0.061035
841444041,0.00045776,0.00425720,-1.00637817,0.427246,-0.061035,-0.061035
846422041,0.00041199,0.00437927,-1.00651550,0.305176,0.183105,-0.183105
851496500,0.00050354,0.00419617,-1.00611877,0.366211,-0.061035,-0.183105
856422333,0.00090027,0.00357056,-1.00599670,0.366211,0.000000,0.061035
861461583,0.00183105,0.00279236,-1.00625610,0.244141,0.122070,-0.122070
866494875,0.00291443,0.00231934,-1.00642395,0.244141,0.122070,-0.122070
871581583,0.00340271,0.00207520,-1.00627136,0.366211,0.000000,0.061035
876426375,0.00321960,0.00202942,-1.00599670,0.183105,0.000000,-0.061035
881459000,0.00297546,0.00219727,-1.00611877,0.305176,0.061035,0.000000
886684875,0.00302124,0.00195312,-1.00659180,0.122070,0.000000,-0.061035
891500333,0.00305176,0.00112915,-1.00613403,0.488281,0.122070,0.000000
896499125,0.00294495,0.00077820,-1.00541687,0.427246,0.122070,-0.061035
901475958,0.00277710,0.00122070,-1.00604248,0.488281,0.000000,-0.122070
906453416,0.00259399,0.00209045,-1.00703430,0.427246,0.122070,0.061035
911451583,0.00215149,0.00276184,-1.00669861,0.366211,0.122070,0.000000
916542750,0.00140381,0.00251770,-1.00575256,0.305176,-0.061035,-0.122070
921486458,0.00090027,0.00187683,-1.00553894,0.366211,0.061035,-0.183105
926466541,0.00079346,0.00178528,-1.00593567,0.183105,0.000000,-0.061035
931455958,0.00068665,0.00242615,-1.00637817,0.305176,-0.061035,-0.122070
936460416,0.00064087,0.00360107,-1.00639343,0.244141,0.061035,-0.061035
941459166,0.00096130,0.00466919,-1.00569153,0.244141,-0.061035,-0.061035
946484791,0.00131226,0.00495911,-1.00515747,0.305176,-0.061035,-0.244141
951511333,0.00122070,0.00463867,-1.00547791,0.244141,0.122070,-0.061035
956511750,0.00102234,0.00428772,-1.00573730,0.244141,0.183105,-0.061035
961526208,0.00114441,0.00378418,-1.00546265,0.122070,0.061035,-0.061035
966572958,0.00160217,0.00292969,-1.00540161,0.183105,0.061035,-0.061035
971509458,0.00210571,0.00204468,-1.00531006,0.366211,0.122070,0.000000
976484291,0.00260925,0.00148010,-1.00492859,0.305176,0.183105,-0.061035
981586875,0.00305176,0.00111389,-1.00486755,0.305176,0.000000,-0.122070
986476333,0.00360107,0.00077820,-1.00515747,0.305176,0.122070,-0.061035
991598000,0.00419617,0.00071716,-1.00564575,0.366211,0.061035,-0.061035
996471666,0.00445557,0.00094604,-1.00668335,0.366211,0.061035,-0.122070
1001470916,0.00424194,0.00141907,-1.00718689,0.305176,0.122070,0.000000
1006494500,0.00354004,0.00215149,-1.00613403,0.305176,-0.061035,-0.183105
1011535875,0.00265503,0.00283813,-1.00502014,0.305176,0.061035,-0.061035
1016483416,0.00190735,0.00338745,-1.00537109,0.305176,-0.061035,-0.122070
1021508125,0.00132751,0.00419617,-1.00616455,0.305176,0.122070,0.000000
1026494625,0.00090027,0.00505066,-1.00617981,0.366211,0.122070,-0.061035
1031545208,0.00056458,0.00527954,-1.00564575,0.305176,0.183105,-0.122070
1036504625,0.00030518,0.00486755,-1.00524902,0.244141,0.122070,-0.061035
1041503750,0.00021362,0.00462341,-1.00514221,0.305176,0.244141,0.000000
1046501583,0.00042725,0.00476074,-1.00523376,0.366211,0.122070,-0.122070
1051491000,0.00054932,0.00494385,-1.00537109,0.427246,-0.122070,0.000000
1056500208,0.00035095,0.00497437,-1.00582886,0.305176,0.061035,-0.122070
1061494541,0.00036621,0.00440979,-1.00671387,0.305176,0.122070,-0.122070
1066522208,0.00082397,0.00357056,-1.00718689,0.427246,0.122070,-0.122070
1071481375,0.00178528,0.00294495,-1.00671387,0.305176,0.122070,-0.061035
1076507333,0.00309753,0.00230408,-1.00614929,0.366211,0.122070,-0.061035
1081512541,0.00376892,0.00157166,-1.00627136,0.244141,0.000000,-0.122070
1086526833,0.00338745,0.00085449,-1.00666809,0.183105,-0.061035,-0.244141
1091512375,0.00277710,0.00039673,-1.00666809,0.183105,-0.061035,-0.122070
1096571208,0.00274658,0.00007629,-1.00630188,0.305176,0.122070,-0.061035
1101489541,0.00305176,-0.00025940,-1.00569153,0.183105,0.122070,-0.183105
1106482791,0.00283813,-0.00036621,-1.00531006,0.305176,0.061035,0.000000
1111497583,0.00221252,0.00024414,-1.00543213,0.305176,0.061035,-0.061035
1116483541,0.00192261,0.00146484,-1.00547791,0.366211,0.061035,-0.061035
1121508375,0.00221252,0.00262451,-1.00523376,0.305176,-0.061035,-0.122070
1126534750,0.00262451,0.00344849,-1.00549316,0.244141,0.122070,0.000000
1131537666,0.00283813,0.00404358,-1.00599670,0.244141,-0.061035,-0.061035
1136534458,0.00271606,0.00485229,-1.00660706,0.305176,0.061035,-0.061035
1141527166,0.00230408,0.00584412,-1.00714111,0.244141,-0.122070,-0.061035
1146504875,0.00192261,0.00617981,-1.00704956,0.244141,0.000000,0.000000
1151543541,0.00186157,0.00556946,-1.00660706,0.366211,0.061035,-0.122070
1156526291,0.00215149,0.00453186,-1.00640869,0.244141,0.122070,-0.183105
1161497625,0.00241089,0.00364685,-1.00613403,0.305176,0.122070,-0.061035
1166497166,0.00231934,0.00292969,-1.00588989,0.244141,0.122070,-0.061035
1171536875,0.00192261,0.00224304,-1.00628662,0.305176,-0.061035,-0.183105
1176537500,0.00180054,0.00186157,-1.00672913,0.366211,0.122070,-0.061035
1181537291,0.00233459,0.00164795,-1.00628662,0.244141,0.183105,0.000000
1186528000,0.00326538,0.00119019,-1.00576782,0.366211,0.183105,-0.061035
1191522625,0.00378418,0.00064087,-1.00581360,0.366211,0.122070,0.183105
1196516500,0.00355530,0.00044250,-1.00561523,0.366211,0.183105,-0.122070
1201577500,0.00302124,0.00073242,-1.00497437,0.244141,0.000000,0.000000
1206531666,0.00260925,0.00128174,-1.00479126,0.183105,-0.061035,-0.061035
1211596791,0.00259399,0.00192261,-1.00508118,0.244141,0.061035,0.061035
1216540375,0.00282288,0.00257874,-1.00578308,0.183105,0.061035,-0.244141
1221544083,0.00296021,0.00335693,-1.00691223,0.183105,0.000000,-0.122070
1226542291,0.00291443,0.00410461,-1.00744629,0.183105,0.061035,-0.061035
1231497208,0.00262451,0.00445557,-1.00666809,0.244141,0.000000,-0.183105
1236540791,0.00207520,0.00473022,-1.00492859,0.244141,-0.122070,-0.122070
1241543041,0.00169373,0.00532532,-1.00340271,0.305176,0.000000,0.061035
1246511583,0.00160217,0.00569153,-1.00553894,0.183105,0.122070,-0.061035
1251538833,0.00149536,0.00553894,-1.01000977,0.183105,0.000000,0.000000
1256534958,0.00148010,0.00515747,-1.01031494,0.366211,0.122070,-0.061035
1261517375,0.00183105,0.00485229,-1.00639343,0.122070,0.061035,-0.061035
1266550375,0.00233459,0.00448608,-1.00355530,0.122070,0.000000,-0.061035
1271539166,0.00274658,0.00376892,-1.00373840,0.244141,0.122070,-0.061035
1276509208,0.00305176,0.00276184,-1.00515747,0.122070,0.000000,-0.183105
1281539500,0.00292969,0.00177002,-1.00585938,0.305176,0.000000,0.000000
1286597916,0.00234985,0.00097656,-1.00590515,0.305176,0.000000,0.000000
1291564458,0.00204468,0.00050354,-1.00582886,0.244141,0.061035,0.000000
1296527708,0.00213623,0.00038147,-1.00535583,0.061035,-0.122070,-0.061035
1301575458,0.00199890,0.00044250,-1.00532532,0.122070,0.061035,-0.183105
1306584041,0.00146484,0.00045776,-1.00617981,0.305176,0.000000,-0.183105
1311526750,0.00123596,0.00067139,-1.00645447,0.427246,0.061035,0.000000
1316535541,0.00178528,0.00120544,-1.00585938,0.305176,0.061035,-0.061035
1321548625,0.00239563,0.00173950,-1.00556946,0.244141,0.061035,-0.122070
1326607916,0.00254822,0.00228882,-1.00575256,0.061035,0.000000,-0.061035
1331626583,0.00236511,0.00306702,-1.00595093,0.244141,0.122070,-0.061035
1336545833,0.00222778,0.00389099,-1.00607300,0.183105,0.061035,-0.061035
1341573625,0.00234985,0.00437927,-1.00581360,0.244141,0.061035,-0.061035
1346562791,0.00265503,0.00431824,-1.00508118,0.366211,0.061035,-0.061035
1351576416,0.00317383,0.00379944,-1.00491333,0.427246,0.061035,-0.061035
1356550875,0.00329590,0.00321960,-1.00531006,0.305176,0.122070,-0.122070
1361534333,0.00268555,0.00288391,-1.00547791,0.305176,0.000000,-0.122070
1366528750,0.00215149,0.00286865,-1.00582886,0.427246,0.000000,0.000000
1371558458,0.00224304,0.00306702,-1.00605774,0.427246,0.061035,-0.122070
1376553625,0.00253296,0.00344849,-1.00578308,0.366211,0.122070,0.000000
1381574208,0.00267029,0.00370789,-1.00576782,0.305176,0.061035,-0.122070
1386591083,0.00292969,0.00328064,-1.00601196,0.427246,0.000000,-0.061035
1391571083,0.00329590,0.00239563,-1.00604248,0.244141,0.000000,0.000000
1396568791,0.00338745,0.00186157,-1.00686646,0.305176,0.061035,-0.122070
1401540916,0.00294495,0.00181580,-1.00775146,0.488281,0.061035,-0.061035
1406553875,0.00233459,0.00195312,-1.00703430,0.427246,0.061035,-0.061035
1411564791,0.00215149,0.00218201,-1.00610352,0.366211,0.122070,-0.183105
1416577916,0.00256348,0.00242615,-1.00639343,0.488281,0.183105,-0.122070
1421580166,0.00297546,0.00236511,-1.00650024,0.305176,0.061035,-0.183105
1426543375,0.00265503,0.00193787,-1.00552368,0.427246,0.122070,0.061035
1431597166,0.00222778,0.00154114,-1.00488281,0.366211,0.122070,-0.122070
1436576416,0.00270081,0.00163269,-1.00514221,0.305176,0.000000,-0.122070
1441584208,0.00338745,0.00212097,-1.00559998,0.305176,0.000000,-0.122070
1446567958,0.00311279,0.00247192,-1.00564575,0.366211,-0.061035,0.000000
1451632875,0.00239563,0.00265503,-1.00537109,0.305176,-0.061035,0.000000
1456559291,0.00215149,0.00288391,-1.00553894,0.366211,0.122070,-0.061035
1461630291,0.00205994,0.00320435,-1.00637817,0.366211,0.122070,0.122070
1466568416,0.00181580,0.00341797,-1.00698853,0.366211,0.122070,-0.061035
1471592875,0.00189209,0.00341797,-1.00627136,0.244141,0.122070,-0.061035
1476605000,0.00218201,0.00340271,-1.00497437,0.244141,-0.061035,0.000000
1481585333,0.00204468,0.00364685,-1.00454712,0.427246,0.000000,0.061035
1486575583,0.00135803,0.00393677,-1.00498962,0.549316,0.000000,0.000000
1491553750,0.00061035,0.00401306,-1.00587463,0.427246,0.183105,-0.061035
1496573958,0.00022888,0.00393677,-1.00639343,0.305176,0.122070,-0.061035
1501578666,0.00047302,0.00390625,-1.00599670,0.305176,0.061035,0.122070
1506567708,0.00114441,0.00407410,-1.00593567,0.427246,0.122070,-0.061035
1511570750,0.00154114,0.00413513,-1.00662231,0.305176,-0.061035,-0.061035
1516571958,0.00164795,0.00390625,-1.00672913,0.244141,0.061035,-0.061035
1521569416,0.00183105,0.00393677,-1.00625610,0.244141,0.061035,-0.122070
1526576250,0.00201416,0.00427246,-1.00653076,0.366211,0.122070,-0.061035
1531574833,0.00222778,0.00457764,-1.00695801,0.244141,0.061035,-0.183105
1536557958,0.00289917,0.00480652,-1.00645447,0.244141,0.000000,-0.183105
1541595166,0.00401306,0.00469971,-1.00558472,0.183105,-0.061035,-0.061035
1546588000,0.00466919,0.00424194,-1.00509644,0.244141,-0.061035,-0.061035
1551614458,0.00448608,0.00384521,-1.00526428,0.244141,0.000000,0.061035
1556562791,0.00384521,0.00344849,-1.00621033,0.244141,0.061035,0.000000
1561566666,0.00326538,0.00265503,-1.00682068,0.244141,-0.122070,0.000000
1566650625,0.00302124,0.00175476,-1.00642395,0.183105,0.061035,-0.244141
1571578291,0.00317383,0.00132751,-1.00605774,0.427246,0.183105,-0.061035
1576575041,0.00323486,0.00135803,-1.00619507,0.183105,0.061035,-0.122070
1581618916,0.00280762,0.00144958,-1.00646973,0.305176,0.061035,-0.061035
1586618500,0.00210571,0.00152588,-1.00686646,0.244141,0.122070,-0.061035
1591584500,0.00164795,0.00169373,-1.00703430,0.549316,0.122070,0.000000
1596589375,0.00190735,0.00210571,-1.00662231,0.366211,0.000000,0.000000
1601585291,0.00277710,0.00296021,-1.00657654,0.427246,0.061035,-0.122070
1606588333,0.00337219,0.00369263,-1.00692749,0.183105,-0.061035,-0.122070
1611583333,0.00276184,0.00372314,-1.00631714,0.305176,0.061035,-0.061035
1616618041,0.00215149,0.00355530,-1.00552368,0.305176,0.000000,-0.122070
1621586166,0.00257874,0.00367737,-1.00630188,0.244141,-0.061035,0.061035
1626592833,0.00274658,0.00387573,-1.00749207,0.244141,0.000000,-0.122070
1631598208,0.00190735,0.00393677,-1.00704956,0.427246,0.122070,0.000000
1636600458,0.00134277,0.00381470,-1.00611877,0.488281,0.122070,-0.061035
1641600041,0.00192261,0.00366211,-1.00584412,0.244141,-0.061035,-0.122070
1646614291,0.00259399,0.00364685,-1.00598145,0.366211,0.061035,-0.122070
1651600750,0.00271606,0.00346375,-1.00634766,0.488281,0.061035,0.000000
1656633458,0.00280762,0.00315857,-1.00643921,0.305176,0.000000,-0.061035
1661721041,0.00302124,0.00296021,-1.00581360,0.305176,0.061035,-0.061035
1666797291,0.00297546,0.00247192,-1.00547791,0.366211,0.122070,-0.061035
1671644416,0.00300598,0.00175476,-1.00604248,0.427246,0.122070,0.000000
1676584958,0.00344849,0.00149536,-1.00634766,0.183105,0.061035,-0.061035
1681668458,0.00375366,0.00189209,-1.00614929,0.366211,0.061035,0.000000
1686650250,0.00328064,0.00233459,-1.00651550,0.305176,0.122070,0.000000
1691582625,0.00221252,0.00225830,-1.00700378,0.244141,0.122070,0.061035
1696582375,0.00155640,0.00193787,-1.00657654,0.305176,0.122070,-0.122070
1701588375,0.00175476,0.00178528,-1.00550842,0.305176,0.061035,-0.122070
1706580958,0.00212097,0.00212097,-1.00485229,0.183105,0.000000,-0.122070
1711592583,0.00212097,0.00285339,-1.00509644,0.244141,0.061035,-0.122070
1716620875,0.00198364,0.00376892,-1.00576782,0.427246,0.122070,0.000000
1721582958,0.00205994,0.00439453,-1.00593567,0.183105,0.000000,-0.183105
1726622625,0.00239563,0.00469971,-1.00567627,0.305176,0.061035,-0.061035
1731640041,0.00259399,0.00485229,-1.00566101,0.366211,0.061035,-0.122070
1736617291,0.00239563,0.00489807,-1.00610352,0.366211,0.000000,-0.122070
1741603875,0.00242615,0.00476074,-1.00611877,0.305176,0.000000,-0.183105
1746594958,0.00292969,0.00419617,-1.00569153,0.427246,0.000000,-0.183105
1751624916,0.00320435,0.00334167,-1.00579834,0.427246,0.000000,0.000000
1756618500,0.00318909,0.00279236,-1.00643921,0.427246,-0.061035,-0.061035
1761663416,0.00297546,0.00227356,-1.00666809,0.305176,0.000000,-0.122070
1766619125,0.00262451,0.00117493,-1.00636292,0.183105,0.000000,0.061035
1771674375,0.00238037,0.00035095,-1.00584412,0.305176,0.061035,-0.061035
1776649958,0.00222778,0.00050354,-1.00592041,0.305176,0.061035,-0.183105
1781650458,0.00207520,0.00111389,-1.00680542,0.305176,0.000000,-0.122070
1786633500,0.00209045,0.00154114,-1.00689697,0.305176,0.122070,0.061035
1791614625,0.00221252,0.00193787,-1.00575256,0.366211,0.061035,0.061035
1796640416,0.00210571,0.00254822,-1.00540161,0.305176,0.000000,-0.122070
1801647833,0.00164795,0.00299072,-1.00639343,0.244141,0.122070,0.061035
1806616375,0.00112915,0.00320435,-1.00711060,0.366211,0.000000,0.000000
1811644291,0.00103760,0.00332642,-1.00669861,0.488281,0.061035,-0.061035
1816632416,0.00134277,0.00352478,-1.00608826,0.244141,0.061035,0.000000
1821632416,0.00175476,0.00372314,-1.00575256,0.183105,-0.122070,-0.122070
1826632500,0.00198364,0.00352478,-1.00588989,0.366211,0.061035,0.000000
1831664541,0.00204468,0.00306702,-1.00614929,0.366211,0.183105,0.000000
1836610916,0.00221252,0.00289917,-1.00608826,0.305176,0.061035,-0.122070
1841630000,0.00234985,0.00320435,-1.00607300,0.244141,0.183105,0.000000
1846628833,0.00221252,0.00352478,-1.00634766,0.305176,-0.061035,-0.122070
1851655208,0.00201416,0.00332642,-1.00614929,0.244141,0.000000,-0.061035
1856638291,0.00227356,0.00289917,-1.00566101,0.366211,0.061035,-0.061035
1861636250,0.00289917,0.00247192,-1.00587463,0.427246,0.122070,-0.061035
1866619875,0.00297546,0.00195312,-1.00648499,0.305176,0.122070,-0.061035
1871618458,0.00218201,0.00148010,-1.00628662,0.427246,0.000000,-0.061035
1876694041,0.00172424,0.00119019,-1.00575256,0.427246,0.244141,-0.061035
1881640208,0.00247192,0.00112915,-1.00567627,0.366211,0.061035,0.000000
1886634958,0.00376892,0.00134277,-1.00585938,0.122070,-0.061035,0.000000
1891661458,0.00436401,0.00172424,-1.00614929,0.305176,0.122070,-0.244141
1896664166,0.00396729,0.00216675,-1.00621033,0.244141,0.122070,0.061035
1901653333,0.00317383,0.00218201,-1.00567627,0.305176,0.000000,0.061035
1906670166,0.00267029,0.00196838,-1.00544739,0.183105,0.000000,-0.061035
1911639833,0.00267029,0.00238037,-1.00611877,0.183105,0.122070,-0.122070
1916677333,0.00274658,0.00343323,-1.00639343,0.183105,0.122070,0.000000
1921645166,0.00257874,0.00444031,-1.00555420,0.305176,0.122070,0.061035
1926644833,0.00241089,0.00492859,-1.00498962,0.305176,0.000000,-0.122070
1931671083,0.00219727,0.00489807,-1.00535583,0.305176,0.122070,0.000000
1936639166,0.00178528,0.00448608,-1.00602722,0.061035,0.061035,-0.244141
1941660416,0.00154114,0.00408936,-1.00634766,0.366211,0.061035,0.000000
1946653875,0.00164795,0.00407410,-1.00616455,0.244141,0.122070,-0.061035
1951652166,0.00170898,0.00389099,-1.00614929,0.305176,-0.061035,0.061035
1956668500,0.00172424,0.00331116,-1.00689697,0.244141,-0.061035,0.000000
1961667166,0.00173950,0.00277710,-1.00747681,0.305176,0.061035,0.000000
1966671166,0.00138855,0.00241089,-1.00700378,0.244141,0.000000,-0.183105
1971654458,0.00094604,0.00221252,-1.00581360,0.427246,0.061035,0.000000
1976655208,0.00112915,0.00228882,-1.00521851,0.366211,0.061035,0.000000
1981740375,0.00196838,0.00242615,-1.00576782,0.366211,0.122070,-0.061035
1986653416,0.00279236,0.00248718,-1.00662231,0.427246,0.061035,-0.183105
1991652041,0.00306702,0.00263977,-1.00679016,0.305176,0.122070,-0.061035
1996661000,0.00312805,0.00279236,-1.00624084,0.305176,0.122070,-0.183105
2001648791,0.00323486,0.00247192,-1.00570679,0.244141,0.061035,0.000000
2006672083,0.00318909,0.00164795,-1.00576782,0.427246,0.122070,-0.061035
2011663125,0.00306702,0.00128174,-1.00584412,0.366211,0.000000,0.000000
2016671333,0.00297546,0.00184631,-1.00559998,0.244141,0.122070,-0.122070
2021696875,0.00277710,0.00265503,-1.00555420,0.244141,-0.061035,-0.122070
2026679666,0.00251770,0.00305176,-1.00592041,0.366211,0.000000,0.061035
2031687500,0.00239563,0.00317383,-1.00596619,0.244141,0.061035,-0.244141
2036658166,0.00234985,0.00363159,-1.00555420,0.244141,0.122070,-0.061035
2041678625,0.00210571,0.00454712,-1.00512695,0.305176,0.061035,-0.122070
2046679500,0.00169373,0.00535583,-1.00521851,0.244141,0.000000,-0.183105
2051691541,0.00143433,0.00511169,-1.00579834,0.366211,0.061035,-0.122070
2056669833,0.00144958,0.00389099,-1.00622559,0.366211,0.061035,0.000000
2061698375,0.00172424,0.00291443,-1.00619507,0.305176,0.061035,-0.122070
2066690833,0.00207520,0.00265503,-1.00621033,0.305176,0.122070,0.000000
2071677958,0.00230408,0.00241089,-1.00651550,0.183105,0.061035,-0.183105
2076699083,0.00199890,0.00196838,-1.00656128,0.244141,0.000000,0.000000
2081734083,0.00148010,0.00186157,-1.00634766,0.305176,0.000000,0.000000
2086737833,0.00172424,0.00201416,-1.00648499,0.366211,0.061035,-0.122070
2091695041,0.00262451,0.00212097,-1.00683594,0.366211,0.122070,-0.122070
2096690041,0.00352478,0.00228882,-1.00700378,0.305176,0.061035,-0.061035
2101681791,0.00405884,0.00248718,-1.00671387,0.366211,0.000000,-0.061035
2106663833,0.00384521,0.00276184,-1.00604248,0.366211,0.061035,-0.061035
2111700958,0.00350952,0.00311279,-1.00575256,0.305176,0.061035,0.061035
2116684416,0.00343323,0.00337219,-1.00607300,0.183105,-0.061035,-0.122070
2121787458,0.00318909,0.00326538,-1.00595093,0.305176,0.000000,-0.061035
2126697000,0.00285339,0.00305176,-1.00512695,0.305176,0.122070,0.000000
2131686083,0.00270081,0.00315857,-1.00495911,0.427246,-0.061035,0.061035
2136692166,0.00245667,0.00341797,-1.00587463,0.244141,0.000000,-0.061035
2141680458,0.00190735,0.00354004,-1.00639343,0.366211,0.061035,-0.061035
2146692041,0.00125122,0.00341797,-1.00611877,0.244141,0.122070,-0.061035
2151708250,0.00090027,0.00270081,-1.00566101,0.366211,0.000000,0.000000
2156679291,0.00090027,0.00173950,-1.00514221,0.305176,-0.061035,-0.122070
2161728958,0.00115967,0.00146484,-1.00477600,0.366211,0.061035,0.000000
2166699541,0.00172424,0.00183105,-1.00514221,0.305176,0.061035,0.000000
2171689958,0.00219727,0.00241089,-1.00576782,0.366211,0.000000,-0.061035
2176714958,0.00210571,0.00288391,-1.00621033,0.305176,-0.061035,-0.183105
2181719708,0.00166321,0.00320435,-1.00668335,0.305176,-0.122070,0.061035
2186686166,0.00140381,0.00338745,-1.00672913,0.366211,0.122070,0.000000
2191792791,0.00148010,0.00338745,-1.00593567,0.305176,0.000000,-0.122070
2196689916,0.00183105,0.00309753,-1.00558472,0.366211,0.122070,-0.122070
2201734916,0.00222778,0.00280762,-1.00596619,0.488281,0.000000,-0.183105
2206743166,0.00236511,0.00280762,-1.00601196,0.366211,-0.061035,-0.061035
2211711750,0.00218201,0.00286865,-1.00627136,0.244141,0.061035,-0.122070
2216724000,0.00219727,0.00285339,-1.00717163,0.244141,-0.061035,0.122070
2221726750,0.00267029,0.00303650,-1.00752258,0.549316,0.122070,0.122070
2226739083,0.00306702,0.00334167,-1.00695801,0.305176,0.061035,-0.122070
2231727583,0.00280762,0.00340271,-1.00633240,0.244141,-0.122070,-0.061035
2236709708,0.00241089,0.00302124,-1.00608826,0.183105,0.061035,-0.061035
2241692916,0.00231934,0.00254822,-1.00633240,0.366211,0.000000,-0.061035
2246745708,0.00241089,0.00256348,-1.00666809,0.305176,0.183105,-0.061035
2251693541,0.00254822,0.00283813,-1.00646973,0.183105,0.000000,-0.122070
2256711291,0.00276184,0.00297546,-1.00610352,0.244141,0.061035,0.000000
2261705291,0.00280762,0.00285339,-1.00634766,0.366211,0.183105,-0.061035
2266748791,0.00244141,0.00259399,-1.00682068,0.305176,-0.061035,-0.061035
2271726000,0.00218201,0.00241089,-1.00662231,0.366211,0.000000,0.061035
2276749833,0.00247192,0.00239563,-1.00598145,0.305176,0.000000,-0.061035
2281736875,0.00265503,0.00242615,-1.00555420,0.366211,0.061035,-0.061035
2286708916,0.00241089,0.00250244,-1.00555420,0.305176,0.122070,-0.061035
2291729416,0.00227356,0.00282288,-1.00588989,0.244141,0.061035,-0.122070
2296724958,0.00242615,0.00346375,-1.00621033,0.183105,0.061035,0.061035
2301704500,0.00270081,0.00415039,-1.00578308,0.366211,0.244141,-0.061035
2306780583,0.00273132,0.00460815,-1.00538635,0.366211,0.061035,-0.122070
2311718541,0.00231934,0.00436401,-1.00588989,0.427246,0.122070,-0.122070
2316744458,0.00196838,0.00355530,-1.00643921,0.366211,0.000000,0.000000
2321757083,0.00205994,0.00311279,-1.00648499,0.427246,0.000000,-0.061035
2326757208,0.00230408,0.00325012,-1.00679016,0.366211,0.061035,-0.061035
2331727625,0.00231934,0.00323486,-1.00697327,0.305176,0.061035,-0.061035
2336724333,0.00231934,0.00299072,-1.00662231,0.366211,0.122070,0.000000
2341766291,0.00233459,0.00265503,-1.00646973,0.366211,-0.061035,0.000000
2346803625,0.00231934,0.00209045,-1.00628662,0.427246,0.000000,0.061035
2351739708,0.00238037,0.00155640,-1.00578308,0.366211,0.000000,-0.122070
2356755333,0.00245667,0.00149536,-1.00585938,0.366211,0.000000,-0.122070
2361733958,0.00273132,0.00184631,-1.00624084,0.305176,0.061035,-0.061035
2366747250,0.00305176,0.00236511,-1.00596619,0.244141,0.061035,-0.061035
2371771000,0.00308228,0.00299072,-1.00566101,0.183105,0.122070,-0.122070
2376720458,0.00291443,0.00331116,-1.00619507,0.366211,0.061035,-0.122070
2381759208,0.00253296,0.00303650,-1.00683594,0.366211,-0.061035,-0.122070
2386760041,0.00170898,0.00259399,-1.00680542,0.427246,0.061035,-0.122070
2391726166,0.00086975,0.00260925,-1.00610352,0.366211,0.122070,-0.061035
2396750833,0.00076294,0.00276184,-1.00527954,0.305176,0.244141,0.061035
2401755000,0.00140381,0.00276184,-1.00544739,0.244141,0.061035,-0.061035
2406759166,0.00195312,0.00302124,-1.00660706,0.305176,0.000000,-0.122070
2411737041,0.00205994,0.00352478,-1.00700378,0.305176,0.061035,0.000000
2416749750,0.00207520,0.00352478,-1.00642395,0.366211,0.122070,0.000000
2421741541,0.00245667,0.00297546,-1.00621033,0.366211,0.000000,0.000000
2426725083,0.00308228,0.00248718,-1.00653076,0.366211,0.183105,-0.122070
2431761916,0.00346375,0.00247192,-1.00663757,0.427246,0.061035,-0.061035
2436764833,0.00349426,0.00263977,-1.00639343,0.488281,0.061035,-0.183105
2441734166,0.00335693,0.00253296,-1.00607300,0.366211,0.000000,-0.122070
2446755291,0.00312805,0.00218201,-1.00602722,0.244141,0.061035,0.061035
2451786708,0.00286865,0.00183105,-1.00660706,0.244141,0.061035,-0.122070
2456745708,0.00268555,0.00154114,-1.00714111,0.305176,0.061035,0.000000
2461803916,0.00283813,0.00157166,-1.00688171,0.244141,0.122070,-0.183105
2466814375,0.00315857,0.00184631,-1.00634766,0.427246,0.122070,-0.122070
2471776000,0.00320435,0.00219727,-1.00575256,0.244141,0.122070,-0.122070
2476774708,0.00312805,0.00277710,-1.00498962,0.305176,0.244141,-0.061035
2481830291,0.00263977,0.00326538,-1.00474548,0.366211,0.122070,0.000000
2486869583,0.00170898,0.00329590,-1.00546265,0.183105,-0.061035,-0.122070
2491761875,0.00125122,0.00325012,-1.00628662,0.122070,0.000000,0.000000
2496760083,0.00152588,0.00334167,-1.00646973,0.244141,0.122070,0.000000
2501770541,0.00160217,0.00337219,-1.00636292,0.244141,0.061035,-0.061035
2506766666,0.00117493,0.00315857,-1.00630188,0.305176,0.183105,0.061035
2511783875,0.00093079,0.00291443,-1.00625610,0.244141,0.000000,-0.183105
2516781166,0.00119019,0.00283813,-1.00662231,0.305176,0.000000,-0.061035
2521765750,0.00161743,0.00305176,-1.00674438,0.427246,0.061035,0.000000
2526782416,0.00205994,0.00321960,-1.00608826,0.305176,0.000000,0.000000
2531780333,0.00241089,0.00274658,-1.00584412,0.366211,0.000000,-0.061035
2536766708,0.00256348,0.00189209,-1.00631714,0.366211,-0.061035,0.061035
2541782208,0.00283813,0.00149536,-1.00607300,0.305176,0.000000,-0.122070
2546784750,0.00341797,0.00149536,-1.00534058,0.305176,0.122070,-0.122070
2551783416,0.00373840,0.00155640,-1.00538635,0.244141,0.061035,-0.061035
2556769500,0.00352478,0.00187683,-1.00585938,0.305176,-0.061035,0.000000
2561785041,0.00308228,0.00250244,-1.00627136,0.244141,-0.061035,-0.122070
2566825791,0.00300598,0.00282288,-1.00675964,0.366211,0.000000,-0.061035
2571782416,0.00318909,0.00270081,-1.00646973,0.427246,0.122070,0.000000
2576792166,0.00308228,0.00280762,-1.00532532,0.244141,-0.061035,-0.183105
2581819916,0.00274658,0.00309753,-1.00521851,0.183105,0.000000,0.061035
2586776041,0.00270081,0.00309753,-1.00628662,0.305176,0.061035,-0.183105
2591785666,0.00292969,0.00292969,-1.00675964,0.305176,0.061035,0.000000
2596776000,0.00292969,0.00283813,-1.00619507,0.305176,0.061035,-0.061035
2601766541,0.00231934,0.00305176,-1.00544739,0.427246,0.183105,-0.061035
2606839583,0.00155640,0.00355530,-1.00505066,0.061035,0.061035,0.000000
2611819708,0.00097656,0.00392151,-1.00524902,0.305176,0.061035,-0.061035
2616870625,0.00061035,0.00387573,-1.00575256,0.305176,0.061035,-0.183105
2621770583,0.00073242,0.00347900,-1.00587463,0.366211,0.122070,-0.122070
2626769791,0.00137329,0.00291443,-1.00595093,0.427246,0.122070,-0.061035
2631789500,0.00213623,0.00247192,-1.00614929,0.366211,-0.061035,-0.122070
2636789791,0.00253296,0.00241089,-1.00607300,0.488281,0.000000,0.061035
2641788416,0.00221252,0.00259399,-1.00608826,0.305176,0.000000,0.000000
2646802166,0.00186157,0.00259399,-1.00653076,0.427246,0.000000,-0.061035
2651817958,0.00225830,0.00242615,-1.00628662,0.488281,0.122070,-0.122070
2656808583,0.00286865,0.00224304,-1.00531006,0.488281,0.061035,0.000000
2661798833,0.00321960,0.00202942,-1.00488281,0.305176,0.000000,-0.122070
2666785833,0.00355530,0.00201416,-1.00534058,0.305176,0.061035,-0.122070
2671819708,0.00386047,0.00227356,-1.00592041,0.366211,0.183105,-0.061035
2676790666,0.00393677,0.00267029,-1.00637817,0.244141,0.061035,-0.061035
2681852708,0.00366211,0.00305176,-1.00682068,0.488281,0.122070,-0.061035
2686799791,0.00308228,0.00299072,-1.00686646,0.366211,-0.061035,-0.061035
2691793500,0.00276184,0.00250244,-1.00654602,0.244141,0.061035,-0.061035
2696825833,0.00296021,0.00238037,-1.00613403,0.183105,0.000000,-0.061035
2701805000,0.00292969,0.00271606,-1.00553894,0.305176,0.000000,-0.122070
2706801125,0.00239563,0.00297546,-1.00508118,0.366211,0.122070,-0.122070
2711804375,0.00210571,0.00306702,-1.00549316,0.305176,0.061035,0.000000
2716807875,0.00215149,0.00344849,-1.00640869,0.427246,0.000000,-0.061035
2721783958,0.00177002,0.00402832,-1.00669861,0.305176,0.061035,-0.061035
2726781000,0.00093079,0.00419617,-1.00621033,0.305176,0.061035,-0.183105
2731790666,0.00064087,0.00399780,-1.00566101,0.427246,0.061035,0.000000
2736824375,0.00109863,0.00386047,-1.00585938,0.305176,0.122070,-0.122070
2741834958,0.00155640,0.00389099,-1.00648499,0.305176,0.061035,-0.061035
2746823833,0.00189209,0.00372314,-1.00639343,0.244141,0.061035,-0.122070
2751816083,0.00212097,0.00299072,-1.00543213,0.183105,0.061035,-0.122070
2756818541,0.00215149,0.00212097,-1.00498962,0.366211,-0.061035,0.000000
2761869875,0.00222778,0.00166321,-1.00581360,0.305176,0.000000,-0.061035
2766791291,0.00239563,0.00149536,-1.00708008,0.488281,0.122070,-0.061035
2771817041,0.00265503,0.00166321,-1.00759888,0.305176,0.122070,-0.061035
2776831833,0.00309753,0.00198364,-1.00683594,0.122070,-0.122070,-0.122070
2781844916,0.00341797,0.00215149,-1.00550842,0.183105,0.000000,-0.061035
2786816791,0.00331116,0.00224304,-1.00505066,0.244141,0.000000,-0.061035
2791807333,0.00285339,0.00219727,-1.00559998,0.305176,0.061035,-0.122070
2796814375,0.00257874,0.00221252,-1.00595093,0.244141,-0.061035,-0.122070
2801811708,0.00256348,0.00289917,-1.00587463,0.305176,0.122070,0.061035
2806805791,0.00218201,0.00373840,-1.00633240,0.305176,0.122070,0.000000
2811819583,0.00128174,0.00358582,-1.00686646,0.244141,0.061035,-0.061035
2816966041,0.00067139,0.00285339,-1.00645447,0.305176,0.000000,0.122070
2821872708,0.00085449,0.00274658,-1.00579834,0.427246,0.122070,0.061035
2826866208,0.00135803,0.00335693,-1.00588989,0.244141,-0.061035,0.000000
2831830625,0.00149536,0.00387573,-1.00651550,0.366211,0.061035,0.061035
2836815583,0.00138855,0.00381470,-1.00703430,0.244141,0.061035,-0.244141
2841833958,0.00164795,0.00352478,-1.00671387,0.305176,0.061035,-0.122070
2846799291,0.00198364,0.00358582,-1.00596619,0.305176,0.122070,-0.183105
2851838166,0.00166321,0.00390625,-1.00590515,0.244141,0.061035,-0.122070
2856808583,0.00117493,0.00381470,-1.00634766,0.366211,0.061035,-0.122070
2861880291,0.00123596,0.00334167,-1.00608826,0.366211,-0.061035,-0.122070
2866876375,0.00189209,0.00276184,-1.00552368,0.183105,-0.061035,0.000000
2871820125,0.00277710,0.00241089,-1.00564575,0.366211,0.061035,0.000000
2876813583,0.00344849,0.00234985,-1.00592041,0.183105,-0.122070,-0.061035
2881877875,0.00379944,0.00221252,-1.00579834,0.244141,0.122070,0.000000
2886820833,0.00393677,0.00184631,-1.00573730,0.366211,0.183105,0.000000
2891844041,0.00405884,0.00170898,-1.00595093,0.366211,0.000000,0.000000
2896852833,0.00415039,0.00192261,-1.00642395,0.305176,0.000000,-0.061035
2901852166,0.00373840,0.00242615,-1.00683594,0.366211,0.061035,-0.061035
2906845125,0.00309753,0.00303650,-1.00656128,0.244141,0.122070,-0.061035
2911853500,0.00274658,0.00332642,-1.00579834,0.305176,0.061035,0.061035
2916869541,0.00244141,0.00360107,-1.00558472,0.244141,0.000000,-0.061035
2921887916,0.00202942,0.00405884,-1.00602722,0.427246,0.000000,-0.122070
2926828708,0.00177002,0.00419617,-1.00628662,0.183105,0.183105,-0.122070
2931816208,0.00195312,0.00382996,-1.00607300,0.244141,0.061035,-0.061035
2936849750,0.00225830,0.00340271,-1.00573730,0.244141,0.122070,0.000000
2941843666,0.00222778,0.00311279,-1.00566101,0.244141,0.000000,-0.061035
2946869791,0.00199890,0.00280762,-1.00607300,0.366211,-0.061035,-0.122070
2951870291,0.00189209,0.00270081,-1.00628662,0.366211,-0.061035,-0.122070
2956867500,0.00192261,0.00292969,-1.00581360,0.305176,-0.061035,-0.122070
2961864416,0.00195312,0.00289917,-1.00546265,0.305176,0.061035,-0.122070
2966865166,0.00195312,0.00265503,-1.00578308,0.244141,0.122070,0.000000
2971957958,0.00204468,0.00283813,-1.00621033,0.305176,0.000000,-0.061035
2976831458,0.00238037,0.00305176,-1.00666809,0.305176,0.061035,-0.061035
2981894875,0.00257874,0.00279236,-1.00709534,0.305176,0.000000,0.000000
2986874291,0.00244141,0.00250244,-1.00677490,0.305176,0.061035,-0.061035
2991855291,0.00236511,0.00270081,-1.00599670,0.488281,0.122070,-0.061035
2996897583,0.00259399,0.00303650,-1.00581360,0.305176,0.000000,-0.122070
3001888291,0.00297546,0.00289917,-1.00611877,0.244141,0.000000,-0.122070
3006890500,0.00338745,0.00251770,-1.00619507,0.305176,0.000000,-0.061035
3011831750,0.00373840,0.00234985,-1.00610352,0.305176,0.061035,-0.122070
3016910833,0.00370789,0.00242615,-1.00581360,0.244141,0.061035,-0.061035
3021872833,0.00337219,0.00273132,-1.00531006,0.488281,0.122070,-0.061035
3026946166,0.00317383,0.00320435,-1.00515747,0.122070,0.061035,-0.122070
3031879625,0.00286865,0.00340271,-1.00541687,0.244141,0.061035,0.000000
3036897333,0.00224304,0.00308228,-1.00546265,0.244141,0.061035,0.061035
3041847583,0.00164795,0.00270081,-1.00529480,0.305176,0.000000,-0.061035
3046839250,0.00163269,0.00273132,-1.00550842,0.183105,0.000000,-0.183105
3051888375,0.00199890,0.00286865,-1.00584412,0.366211,0.061035,-0.061035
3056842000,0.00201416,0.00263977,-1.00605774,0.305176,0.000000,-0.061035
3061860375,0.00166321,0.00187683,-1.00622559,0.305176,0.061035,-0.061035
3066921208,0.00146484,0.00117493,-1.00608826,0.366211,0.000000,0.000000
3071864291,0.00167847,0.00120544,-1.00566101,0.488281,0.000000,-0.122070
3076845416,0.00209045,0.00175476,-1.00579834,0.427246,0.061035,-0.122070
3081942416,0.00267029,0.00227356,-1.00642395,0.305176,0.122070,-0.061035
3086899208,0.00308228,0.00248718,-1.00669861,0.183105,0.000000,-0.122070
3091876750,0.00277710,0.00260925,-1.00675964,0.427246,0.000000,-0.122070
3096879708,0.00230408,0.00299072,-1.00677490,0.305176,-0.061035,-0.122070
3101877500,0.00242615,0.00337219,-1.00617981,0.488281,0.122070,0.000000
3106879125,0.00273132,0.00325012,-1.00547791,0.244141,-0.061035,0.000000
3111859125,0.00314331,0.00289917,-1.00524902,0.305176,0.061035,-0.061035
3116897291,0.00346375,0.00288391,-1.00537109,0.427246,0.183105,-0.061035
3121912333,0.00271606,0.00312805,-1.00573730,0.488281,0.061035,-0.061035
3126897333,0.00143433,0.00312805,-1.00596619,0.305176,-0.061035,0.000000
3131966041,0.00126648,0.00296021,-1.00558472,0.366211,-0.061035,0.061035
3136908166,0.00216675,0.00279236,-1.00566101,0.366211,0.061035,0.000000
3141905416,0.00300598,0.00270081,-1.00697327,0.305176,0.000000,-0.183105
3146935041,0.00280762,0.00303650,-1.00773621,0.305176,0.061035,-0.122070
3151944291,0.00192261,0.00349426,-1.00685120,0.183105,0.122070,-0.061035
3156921541,0.00140381,0.00340271,-1.00595093,0.122070,0.061035,0.000000
3161866125,0.00157166,0.00303650,-1.00595093,0.244141,0.122070,-0.061035
3166937166,0.00183105,0.00299072,-1.00608826,0.366211,0.000000,-0.122070
3171887625,0.00198364,0.00326538,-1.00596619,0.427246,0.061035,-0.244141
3176888666,0.00221252,0.00340271,-1.00576782,0.549316,0.183105,-0.061035
3181933666,0.00216675,0.00340271,-1.00564575,0.305176,0.122070,-0.061035
3186925208,0.00189209,0.00372314,-1.00584412,0.244141,0.000000,0.000000
3191892208,0.00216675,0.00424194,-1.00587463,0.244141,0.122070,-0.122070
3196932958,0.00309753,0.00444031,-1.00534058,0.305176,0.000000,-0.061035
3201925916,0.00364685,0.00411987,-1.00529480,0.305176,0.061035,0.000000
3206937791,0.00337219,0.00343323,-1.00631714,0.305176,0.000000,0.000000
3211935750,0.00308228,0.00302124,-1.00682068,0.366211,0.061035,0.000000
3216905250,0.00323486,0.00294495,-1.00587463,0.244141,0.061035,-0.122070
3221878375,0.00355530,0.00276184,-1.00491333,0.366211,0.183105,0.000000
3226926541,0.00357056,0.00260925,-1.00524902,0.244141,0.000000,-0.061035
3231916541,0.00315857,0.00283813,-1.00617981,0.366211,0.122070,-0.061035
3236879250,0.00263977,0.00303650,-1.00640869,0.305176,0.122070,-0.061035
3241965708,0.00236511,0.00267029,-1.00587463,0.366211,0.122070,-0.183105
3246911458,0.00219727,0.00192261,-1.00569153,0.366211,0.000000,-0.061035
3251922750,0.00193787,0.00149536,-1.00619507,0.366211,0.061035,-0.061035
3256917333,0.00198364,0.00187683,-1.00662231,0.183105,0.061035,-0.061035
3261910166,0.00236511,0.00279236,-1.00648499,0.305176,0.122070,-0.061035
3266910750,0.00238037,0.00317383,-1.00628662,0.305176,0.061035,0.000000
3271921291,0.00186157,0.00271606,-1.00627136,0.244141,0.061035,-0.183105
3276929875,0.00143433,0.00242615,-1.00610352,0.488281,0.183105,-0.061035
3281972083,0.00148010,0.00286865,-1.00584412,0.366211,0.122070,-0.122070
3286981416,0.00205994,0.00338745,-1.00598145,0.305176,0.061035,0.000000
3291929083,0.00288391,0.00349426,-1.00645447,0.122070,0.000000,-0.183105
3296927416,0.00338745,0.00323486,-1.00692749,0.183105,0.061035,0.122070
3301927041,0.00325012,0.00282288,-1.00700378,0.366211,-0.183105,-0.122070
3306930833,0.00274658,0.00251770,-1.00662231,0.183105,0.061035,-0.122070
3311915208,0.00239563,0.00263977,-1.00611877,0.305176,0.000000,-0.061035
3316967291,0.00238037,0.00318909,-1.00605774,0.427246,0.000000,-0.061035
3321926791,0.00242615,0.00370789,-1.00616455,0.427246,0.061035,0.000000
3326950708,0.00222778,0.00361633,-1.00582886,0.366211,0.122070,-0.061035
3331977458,0.00207520,0.00296021,-1.00549316,0.427246,0.061035,-0.122070
3336948416,0.00234985,0.00221252,-1.00596619,0.366211,0.183105,-0.061035
3341932250,0.00259399,0.00186157,-1.00671387,0.244141,0.000000,0.000000
3346937291,0.00224304,0.00195312,-1.00698853,0.244141,-0.061035,-0.061035
3351961083,0.00198364,0.00225830,-1.00674438,0.244141,0.061035,0.000000
3356946083,0.00231934,0.00242615,-1.00595093,0.244141,0.000000,-0.061035
3361960458,0.00238037,0.00241089,-1.00566101,0.244141,-0.061035,0.000000
3366930000,0.00167847,0.00222778,-1.00633240,0.244141,0.000000,0.000000
3371951083,0.00077820,0.00175476,-1.00637817,0.305176,0.061035,-0.061035
3376956791,0.00044250,0.00137329,-1.00552368,0.244141,0.061035,-0.061035
3381995291,0.00083923,0.00178528,-1.00506592,0.366211,0.183105,0.061035
3386946625,0.00138855,0.00277710,-1.00520325,0.183105,0.183105,0.000000
3391972083,0.00166321,0.00337219,-1.00537109,0.366211,0.183105,-0.061035
3396940416,0.00192261,0.00344849,-1.00550842,0.427246,0.244141,-0.061035
3401963666,0.00224304,0.00340271,-1.00572205,0.305176,0.122070,0.000000
3406914875,0.00230408,0.00332642,-1.00605774,0.366211,0.183105,-0.061035
3411957125,0.00225830,0.00300598,-1.00689697,0.366211,0.061035,0.000000
3416954666,0.00248718,0.00256348,-1.00743103,0.244141,0.061035,-0.061035
3421948000,0.00286865,0.00248718,-1.00663757,0.488281,0.000000,-0.122070
3426963583,0.00300598,0.00267029,-1.00585938,0.305176,0.061035,-0.061035
3432068708,0.00277710,0.00268555,-1.00631714,0.427246,0.122070,-0.061035
3436943333,0.00247192,0.00282288,-1.00717163,0.366211,0.061035,-0.183105
3442006791,0.00231934,0.00321960,-1.00747681,0.244141,0.061035,-0.061035
3446953833,0.00204468,0.00364685,-1.00723267,0.244141,0.061035,-0.061035
3451976125,0.00164795,0.00375366,-1.00700378,0.183105,0.122070,-0.061035
3456958041,0.00155640,0.00355530,-1.00695801,0.305176,0.183105,-0.122070
3461987958,0.00198364,0.00325012,-1.00668335,0.366211,0.000000,0.000000
3466971000,0.00260925,0.00299072,-1.00599670,0.427246,-0.061035,-0.061035
3471937875,0.00271606,0.00302124,-1.00559998,0.305176,-0.061035,-0.122070
3476968875,0.00209045,0.00326538,-1.00611877,0.366211,0.122070,-0.061035
3482078666,0.00154114,0.00329590,-1.00648499,0.305176,0.061035,-0.061035
3486947083,0.00141907,0.00296021,-1.00607300,0.305176,0.061035,0.000000
3492008708,0.00158691,0.00233459,-1.00613403,0.305176,0.183105,-0.061035
3496975500,0.00224304,0.00172424,-1.00682068,0.305176,0.000000,-0.061035
3502005541,0.00286865,0.00170898,-1.00651550,0.366211,0.122070,0.061035
3506984708,0.00248718,0.00209045,-1.00543213,0.244141,0.183105,0.000000
3511951041,0.00173950,0.00225830,-1.00498962,0.427246,-0.061035,0.000000
3516991916,0.00183105,0.00228882,-1.00509644,0.366211,0.061035,0.000000
3521962166,0.00263977,0.00244141,-1.00520325,0.366211,0.000000,-0.122070
3527005708,0.00292969,0.00270081,-1.00559998,0.305176,0.061035,0.000000
3531962291,0.00236511,0.00285339,-1.00631714,0.244141,0.122070,-0.061035
3536965833,0.00183105,0.00317383,-1.00698853,0.305176,0.122070,0.000000
3541981541,0.00234985,0.00364685,-1.00715637,0.366211,0.000000,-0.122070
3546988416,0.00360107,0.00370789,-1.00639343,0.183105,0.000000,-0.122070
3552027500,0.00416565,0.00331116,-1.00547791,0.183105,0.061035,-0.122070
3557002625,0.00367737,0.00302124,-1.00570679,0.305176,0.183105,-0.061035
3561986166,0.00280762,0.00292969,-1.00631714,0.366211,0.000000,-0.122070
3566992625,0.00201416,0.00302124,-1.00599670,0.183105,0.000000,-0.244141
3572000375,0.00163269,0.00335693,-1.00541687,0.305176,0.000000,-0.122070
3576975375,0.00178528,0.00349426,-1.00550842,0.427246,0.000000,-0.061035
3582028625,0.00228882,0.00306702,-1.00587463,0.305176,-0.061035,0.000000
3586973666,0.00294495,0.00257874,-1.00616455,0.305176,-0.061035,-0.122070
3591973541,0.00335693,0.00271606,-1.00630188,0.366211,0.000000,-0.122070
3597043166,0.00321960,0.00303650,-1.00604248,0.305176,0.061035,-0.061035
3601957708,0.00294495,0.00273132,-1.00567627,0.305176,0.000000,-0.061035
3606993083,0.00318909,0.00234985,-1.00582886,0.366211,0.061035,0.000000
3611993083,0.00344849,0.00245667,-1.00624084,0.244141,0.061035,-0.122070
3617058000,0.00289917,0.00242615,-1.00625610,0.305176,0.061035,-0.061035
3621986583,0.00233459,0.00181580,-1.00596619,0.366211,0.061035,-0.061035
3626975875,0.00245667,0.00119019,-1.00585938,0.366211,0.061035,0.000000
3631983041,0.00267029,0.00125122,-1.00645447,0.244141,0.183105,-0.061035
3637017250,0.00256348,0.00213623,-1.00724792,0.183105,0.122070,-0.122070
3642008625,0.00247192,0.00300598,-1.00700378,0.122070,0.000000,-0.061035
3647014666,0.00265503,0.00341797,-1.00587463,0.305176,0.000000,-0.061035
3651991000,0.00277710,0.00347900,-1.00531006,0.488281,0.122070,0.122070
3656989458,0.00253296,0.00343323,-1.00576782,0.305176,0.061035,-0.183105
3662017583,0.00259399,0.00358582,-1.00630188,0.244141,0.061035,-0.061035
3666981375,0.00325012,0.00384521,-1.00631714,0.427246,0.061035,0.000000
3672008125,0.00360107,0.00361633,-1.00614929,0.427246,0.122070,-0.122070
3677011125,0.00317383,0.00326538,-1.00588989,0.305176,0.122070,-0.122070
3682106500,0.00245667,0.00329590,-1.00569153,0.244141,-0.061035,-0.183105
3687021541,0.00180054,0.00312805,-1.00556946,0.488281,0.061035,0.061035
3692012666,0.00143433,0.00263977,-1.00534058,0.244141,0.183105,0.000000
3696984083,0.00135803,0.00234985,-1.00567627,0.183105,0.061035,-0.183105
3701997041,0.00138855,0.00236511,-1.00657654,0.366211,0.122070,-0.122070
3706982791,0.00164795,0.00242615,-1.00659180,0.366211,0.061035,0.000000
3711994000,0.00230408,0.00230408,-1.00558472,0.488281,0.061035,-0.122070
3717020041,0.00267029,0.00199890,-1.00544739,0.427246,-0.122070,0.000000
3721975833,0.00210571,0.00167847,-1.00653076,0.427246,0.000000,0.000000
3727026375,0.00122070,0.00181580,-1.00706482,0.427246,0.061035,0.000000
3732047166,0.00096130,0.00262451,-1.00621033,0.427246,-0.122070,-0.061035
3737037000,0.00115967,0.00306702,-1.00532532,0.305176,0.183105,-0.122070
3742037833,0.00117493,0.00245667,-1.00552368,0.305176,0.000000,0.061035
3747001416,0.00119019,0.00189209,-1.00628662,0.244141,0.000000,-0.122070
3752148500,0.00183105,0.00221252,-1.00663757,0.366211,0.061035,0.000000
3757040541,0.00282288,0.00283813,-1.00617981,0.427246,0.122070,-0.122070
3762078083,0.00335693,0.00309753,-1.00590515,0.427246,0.000000,0.000000
3766987833,0.00320435,0.00308228,-1.00627136,0.366211,0.061035,-0.061035
3772026291,0.00292969,0.00300598,-1.00616455,0.244141,0.061035,-0.061035
3777028000,0.00279236,0.00282288,-1.00527954,0.244141,0.061035,0.000000
3782041083,0.00277710,0.00280762,-1.00479126,0.366211,0.000000,-0.122070
3787021833,0.00285339,0.00297546,-1.00543213,0.244141,0.061035,-0.061035
3792019666,0.00291443,0.00300598,-1.00663757,0.488281,0.061035,-0.061035
3797051500,0.00276184,0.00291443,-1.00709534,0.427246,0.000000,-0.061035
3802041666,0.00225830,0.00267029,-1.00633240,0.305176,0.061035,-0.061035
3807052333,0.00184631,0.00227356,-1.00543213,0.305176,0.000000,-0.061035
3812039208,0.00221252,0.00195312,-1.00526428,0.183105,0.061035,-0.061035
3817054333,0.00302124,0.00193787,-1.00555420,0.366211,0.122070,0.000000
3822032708,0.00338745,0.00231934,-1.00582886,0.305176,0.122070,-0.061035
3827025833,0.00299072,0.00267029,-1.00624084,0.244141,0.122070,0.000000
3832005708,0.00247192,0.00268555,-1.00679016,0.427246,0.122070,-0.122070
3837046291,0.00228882,0.00282288,-1.00680542,0.244141,0.061035,-0.061035
3842027500,0.00230408,0.00338745,-1.00642395,0.305176,0.000000,-0.061035
3847033625,0.00250244,0.00408936,-1.00642395,0.305176,0.122070,-0.122070
3852062958,0.00250244,0.00425720,-1.00628662,0.366211,0.061035,-0.061035
3857069458,0.00219727,0.00355530,-1.00556946,0.183105,0.000000,0.000000
3862040375,0.00205994,0.00248718,-1.00511169,0.305176,0.061035,-0.061035
3867007833,0.00231934,0.00186157,-1.00511169,0.305176,-0.122070,-0.061035
3872049625,0.00280762,0.00186157,-1.00540161,0.244141,0.000000,-0.061035
3877040333,0.00320435,0.00218201,-1.00616455,0.183105,0.122070,-0.183105
3882046875,0.00303650,0.00244141,-1.00671387,0.305176,0.061035,0.000000
3887052041,0.00239563,0.00242615,-1.00650024,0.427246,0.000000,-0.122070
3892070166,0.00201416,0.00242615,-1.00613403,0.244141,0.061035,-0.122070
3897041750,0.00216675,0.00282288,-1.00607300,0.183105,0.000000,0.000000
3902046291,0.00248718,0.00328064,-1.00601196,0.305176,0.061035,-0.061035
3907046208,0.00280762,0.00317383,-1.00587463,0.305176,0.122070,-0.061035
3912035625,0.00271606,0.00256348,-1.00564575,0.427246,0.061035,0.000000
3917081250,0.00198364,0.00236511,-1.00552368,0.366211,0.000000,-0.122070
3922043583,0.00125122,0.00286865,-1.00602722,0.305176,0.000000,-0.061035
3927038541,0.00131226,0.00325012,-1.00668335,0.183105,0.000000,-0.122070
3932083375,0.00201416,0.00300598,-1.00642395,0.244141,0.061035,0.000000
3937022666,0.00247192,0.00273132,-1.00596619,0.244141,0.000000,-0.122070
3942065791,0.00221252,0.00308228,-1.00590515,0.366211,0.183105,0.000000
3947061083,0.00137329,0.00382996,-1.00552368,0.305176,0.061035,-0.122070
3952074208,0.00088501,0.00411987,-1.00463867,0.305176,0.122070,0.000000
3957034500,0.00129700,0.00344849,-1.00421143,0.366211,0.122070,-0.122070
3962040375,0.00190735,0.00257874,-1.00468445,0.183105,0.000000,-0.061035
3967032625,0.00221252,0.00225830,-1.00538635,0.305176,0.061035,-0.061035
3972072958,0.00210571,0.00234985,-1.00584412,0.305176,0.122070,0.061035
3977056166,0.00172424,0.00239563,-1.00595093,0.366211,0.122070,0.061035
3982056250,0.00144958,0.00213623,-1.00579834,0.366211,0.122070,0.000000
3987059625,0.00155640,0.00172424,-1.00599670,0.366211,0.183105,-0.061035
3992089458,0.00202942,0.00163269,-1.00650024,0.427246,0.061035,0.000000
3997074208,0.00239563,0.00192261,-1.00672913,0.183105,0.061035,-0.122070
4002021291,0.00231934,0.00236511,-1.00668335,0.244141,0.000000,-0.183105
4007082208,0.00207520,0.00283813,-1.00672913,0.366211,0.122070,0.000000
4012095500,0.00205994,0.00326538,-1.00672913,0.366211,0.122070,0.000000
4017080916,0.00204468,0.00332642,-1.00637817,0.305176,0.122070,-0.061035
4022099041,0.00173950,0.00306702,-1.00611877,0.244141,0.061035,0.000000
4027062333,0.00132751,0.00288391,-1.00611877,0.427246,0.122070,0.061035
4032076791,0.00144958,0.00292969,-1.00590515,0.183105,0.000000,0.000000
4037072916,0.00231934,0.00329590,-1.00552368,0.305176,0.000000,-0.183105
4042088000,0.00328064,0.00386047,-1.00534058,0.305176,0.183105,-0.061035
4047063041,0.00343323,0.00392151,-1.00537109,0.183105,-0.061035,-0.183105
4052086458,0.00286865,0.00326538,-1.00564575,0.305176,0.122070,-0.122070
4057051708,0.00216675,0.00253296,-1.00599670,0.122070,0.061035,-0.061035
4062066500,0.00190735,0.00219727,-1.00605774,0.244141,0.061035,-0.122070
4067095250,0.00215149,0.00234985,-1.00598145,0.305176,0.061035,-0.183105
4072067666,0.00230408,0.00263977,-1.00608826,0.244141,0.122070,-0.061035
4077065291,0.00216675,0.00263977,-1.00627136,0.244141,0.061035,-0.122070
4082140875,0.00218201,0.00238037,-1.00657654,0.305176,0.122070,-0.061035
4087098750,0.00227356,0.00219727,-1.00677490,0.305176,0.061035,0.000000
4092114291,0.00213623,0.00244141,-1.00610352,0.427246,0.000000,-0.122070
4097057666,0.00186157,0.00283813,-1.00500488,0.183105,0.061035,-0.122070
4102088291,0.00160217,0.00291443,-1.00473022,0.366211,0.000000,-0.122070
4107109750,0.00175476,0.00268555,-1.00534058,0.488281,0.122070,0.000000
4112108708,0.00251770,0.00268555,-1.00582886,0.366211,-0.061035,-0.061035
4117109375,0.00321960,0.00299072,-1.00593567,0.366211,0.000000,0.000000
4122072833,0.00309753,0.00328064,-1.00590515,0.305176,0.122070,0.061035
4127089750,0.00271606,0.00321960,-1.00588989,0.427246,0.061035,0.000000
4132082291,0.00268555,0.00305176,-1.00584412,0.244141,0.061035,-0.122070
4137085916,0.00270081,0.00289917,-1.00553894,0.305176,0.122070,-0.061035
4142099666,0.00265503,0.00262451,-1.00518799,0.244141,0.061035,-0.183105
4147075666,0.00302124,0.00238037,-1.00544739,0.305176,0.061035,-0.061035
4152144000,0.00357056,0.00228882,-1.00608826,0.366211,0.122070,-0.122070
4157105833,0.00332642,0.00245667,-1.00616455,0.244141,-0.122070,-0.122070
4162074666,0.00233459,0.00274658,-1.00573730,0.488281,0.244141,-0.122070
4167059916,0.00151062,0.00274658,-1.00564575,0.427246,0.183105,-0.183105
4172100958,0.00140381,0.00277710,-1.00604248,0.183105,0.061035,-0.183105
4177092208,0.00187683,0.00311279,-1.00639343,0.366211,0.122070,-0.061035
4182104333,0.00236511,0.00323486,-1.00628662,0.305176,0.183105,-0.061035
4187094000,0.00257874,0.00300598,-1.00584412,0.305176,0.000000,-0.122070
4192113375,0.00280762,0.00260925,-1.00582886,0.427246,0.000000,-0.122070
4197091291,0.00332642,0.00231934,-1.00627136,0.366211,0.061035,-0.122070
4202124125,0.00381470,0.00260925,-1.00611877,0.305176,0.061035,-0.061035
4207105541,0.00367737,0.00294495,-1.00555420,0.366211,-0.061035,-0.122070
4212120541,0.00321960,0.00253296,-1.00531006,0.427246,0.122070,-0.122070
4217177541,0.00297546,0.00180054,-1.00538635,0.305176,0.122070,-0.183105
4222093625,0.00267029,0.00178528,-1.00543213,0.305176,0.000000,-0.061035
4227121916,0.00257874,0.00260925,-1.00541687,0.244141,0.000000,0.000000
4232098041,0.00286865,0.00320435,-1.00538635,0.427246,0.061035,0.000000
4237129041,0.00288391,0.00318909,-1.00550842,0.244141,0.000000,-0.183105
4242100833,0.00250244,0.00306702,-1.00592041,0.305176,0.000000,0.000000
4247101333,0.00196838,0.00291443,-1.00621033,0.366211,-0.061035,-0.122070
4252090041,0.00152588,0.00292969,-1.00587463,0.305176,0.000000,-0.061035
4257091250,0.00128174,0.00320435,-1.00556946,0.305176,0.122070,-0.122070
4262096083,0.00114441,0.00335693,-1.00621033,0.427246,0.122070,-0.061035
4267101583,0.00120544,0.00300598,-1.00700378,0.244141,0.061035,-0.122070
4272129208,0.00129700,0.00241089,-1.00701904,0.305176,0.183105,-0.061035
4277103791,0.00129700,0.00239563,-1.00659180,0.366211,0.000000,-0.122070
4282107000,0.00125122,0.00277710,-1.00599670,0.244141,0.061035,0.061035
4287109166,0.00120544,0.00288391,-1.00559998,0.244141,0.061035,0.000000
4292100583,0.00161743,0.00270081,-1.00579834,0.244141,0.061035,0.000000
4297132125,0.00213623,0.00238037,-1.00588989,0.244141,-0.061035,-0.183105
4302113541,0.00207520,0.00193787,-1.00543213,0.305176,0.061035,-0.061035
4307108666,0.00193787,0.00169373,-1.00540161,0.427246,0.000000,-0.061035
4312127708,0.00239563,0.00199890,-1.00604248,0.244141,0.122070,-0.061035
4317127875,0.00329590,0.00254822,-1.00622559,0.183105,0.000000,-0.061035
4322157666,0.00395203,0.00274658,-1.00598145,0.366211,0.000000,-0.061035
4327108708,0.00416565,0.00265503,-1.00601196,0.427246,0.061035,-0.061035
4332129833,0.00390625,0.00273132,-1.00593567,0.305176,0.061035,-0.122070
4337146708,0.00329590,0.00294495,-1.00570679,0.366211,-0.183105,0.000000
4342139833,0.00302124,0.00320435,-1.00584412,0.366211,0.183105,0.061035
4347125041,0.00321960,0.00326538,-1.00610352,0.244141,0.000000,-0.061035
4352152666,0.00306702,0.00308228,-1.00625610,0.366211,0.061035,-0.122070
4357145250,0.00228882,0.00303650,-1.00624084,0.305176,0.122070,-0.061035
4362108291,0.00151062,0.00320435,-1.00582886,0.244141,0.000000,0.000000
4367096125,0.00122070,0.00317383,-1.00555420,0.305176,0.122070,0.061035
4372130958,0.00151062,0.00297546,-1.00566101,0.305176,-0.061035,-0.061035
4377116833,0.00219727,0.00297546,-1.00559998,0.183105,0.061035,-0.122070
4382170250,0.00276184,0.00328064,-1.00527954,0.366211,0.122070,0.000000
4387152375,0.00270081,0.00369263,-1.00538635,0.305176,0.000000,-0.061035
4392112333,0.00224304,0.00390625,-1.00590515,0.305176,0.000000,-0.061035
4397140666,0.00205994,0.00366211,-1.00602722,0.183105,0.000000,-0.061035
4402154875,0.00234985,0.00296021,-1.00585938,0.366211,0.122070,-0.122070
4407150208,0.00257874,0.00241089,-1.00605774,0.305176,0.061035,0.061035
4412137791,0.00247192,0.00242615,-1.00634766,0.366211,0.061035,-0.061035
4417135833,0.00219727,0.00257874,-1.00643921,0.366211,0.061035,-0.183105
4422155500,0.00233459,0.00260925,-1.00636292,0.427246,0.061035,0.000000
4427163125,0.00291443,0.00276184,-1.00628662,0.427246,0.000000,0.000000
4432182916,0.00320435,0.00305176,-1.00663757,0.366211,0.000000,0.061035
4437168791,0.00318909,0.00318909,-1.00726318,0.305176,-0.061035,-0.061035
4442197083,0.00311279,0.00292969,-1.00711060,0.427246,0.122070,-0.061035
4447157416,0.00270081,0.00267029,-1.00617981,0.305176,0.122070,0.061035
4452156833,0.00227356,0.00283813,-1.00540161,0.366211,0.061035,-0.061035
4457130208,0.00228882,0.00321960,-1.00526428,0.183105,0.122070,0.000000
4462150416,0.00251770,0.00332642,-1.00567627,0.244141,0.061035,0.061035
4467158666,0.00250244,0.00312805,-1.00634766,0.305176,0.183105,0.000000
4472133041,0.00234985,0.00286865,-1.00651550,0.244141,0.061035,-0.061035
4477184875,0.00221252,0.00297546,-1.00582886,0.366211,0.122070,0.000000
4482154083,0.00177002,0.00360107,-1.00538635,0.305176,0.061035,0.000000
4487151833,0.00132751,0.00384521,-1.00579834,0.305176,0.061035,-0.061035
4492186583,0.00129700,0.00317383,-1.00619507,0.305176,0.000000,-0.122070
4497145833,0.00151062,0.00251770,-1.00611877,0.305176,-0.061035,0.000000
4502166833,0.00166321,0.00244141,-1.00608826,0.244141,-0.061035,-0.061035
4507167083,0.00155640,0.00241089,-1.00627136,0.305176,0.183105,0.061035
4512151166,0.00151062,0.00230408,-1.00634766,0.366211,0.000000,-0.244141
4517173291,0.00192261,0.00244141,-1.00598145,0.427246,0.000000,-0.122070
4522163541,0.00239563,0.00251770,-1.00537109,0.427246,0.122070,-0.061035
4527228833,0.00273132,0.00224304,-1.00503540,0.427246,0.122070,0.000000
4532179416,0.00311279,0.00218201,-1.00534058,0.305176,0.122070,-0.122070
4537184208,0.00346375,0.00247192,-1.00569153,0.305176,0.122070,-0.061035
4542177833,0.00370789,0.00251770,-1.00552368,0.305176,0.000000,-0.061035
4547162291,0.00357056,0.00207520,-1.00558472,0.305176,-0.061035,-0.122070
4552200750,0.00291443,0.00167847,-1.00621033,0.366211,0.061035,0.000000
4557183250,0.00250244,0.00204468,-1.00631714,0.427246,0.000000,-0.183105
4562171041,0.00274658,0.00288391,-1.00605774,0.244141,0.122070,-0.061035
4567136250,0.00291443,0.00311279,-1.00645447,0.427246,0.122070,-0.061035
4572197708,0.00267029,0.00289917,-1.00698853,0.366211,0.000000,-0.183105
4577156125,0.00239563,0.00282288,-1.00682068,0.305176,0.122070,0.000000
4582168666,0.00216675,0.00294495,-1.00607300,0.366211,0.061035,-0.061035
4587175333,0.00198364,0.00318909,-1.00515747,0.305176,0.122070,-0.122070
4592218125,0.00184631,0.00325012,-1.00498962,0.366211,0.122070,-0.061035
4597145125,0.00183105,0.00297546,-1.00616455,0.427246,-0.061035,0.000000
4602186041,0.00207520,0.00257874,-1.00732422,0.427246,0.122070,-0.122070
4607182416,0.00236511,0.00236511,-1.00721741,0.305176,0.061035,0.000000
4612166250,0.00222778,0.00225830,-1.00677490,0.305176,0.061035,-0.183105
4617198875,0.00158691,0.00222778,-1.00692749,0.244141,0.000000,0.000000
4622165291,0.00129700,0.00259399,-1.00718689,0.122070,0.061035,-0.183105
4627149583,0.00189209,0.00312805,-1.00680542,0.366211,0.122070,-0.061035
4632206583,0.00273132,0.00315857,-1.00601196,0.366211,0.000000,-0.061035
4637212333,0.00300598,0.00291443,-1.00550842,0.244141,0.000000,-0.122070
4642193041,0.00283813,0.00300598,-1.00576782,0.366211,0.061035,0.000000
4647160916,0.00285339,0.00332642,-1.00611877,0.427246,0.183105,0.061035
4652202125,0.00329590,0.00344849,-1.00564575,0.427246,0.122070,-0.183105
4657221833,0.00370789,0.00323486,-1.00537109,0.366211,0.183105,-0.183105
4662187916,0.00350952,0.00297546,-1.00605774,0.122070,0.000000,-0.183105
4667199583,0.00282288,0.00283813,-1.00648499,0.427246,0.122070,-0.122070
4672230041,0.00239563,0.00259399,-1.00633240,0.244141,0.122070,-0.061035
4677202250,0.00259399,0.00219727,-1.00643921,0.427246,0.244141,-0.061035
4682186833,0.00294495,0.00219727,-1.00703430,0.366211,0.000000,-0.244141
4687173666,0.00273132,0.00277710,-1.00732422,0.244141,0.061035,-0.122070
4692209750,0.00201416,0.00318909,-1.00677490,0.366211,0.061035,-0.061035
4697193458,0.00163269,0.00294495,-1.00579834,0.305176,0.122070,-0.061035
4702179458,0.00170898,0.00262451,-1.00553894,0.305176,0.061035,0.000000
4707182875,0.00170898,0.00306702,-1.00640869,0.366211,-0.061035,-0.122070
4712190083,0.00157166,0.00386047,-1.00668335,0.244141,0.061035,0.000000
4717205291,0.00149536,0.00367737,-1.00550842,0.305176,0.000000,0.000000
4722195291,0.00172424,0.00250244,-1.00480652,0.244141,-0.122070,-0.183105
4727165250,0.00238037,0.00186157,-1.00588989,0.366211,0.000000,-0.122070
4732221208,0.00297546,0.00224304,-1.00711060,0.244141,0.061035,-0.122070
4737187666,0.00326538,0.00289917,-1.00695801,0.549316,0.183105,0.000000
4742203000,0.00355530,0.00326538,-1.00604248,0.305176,0.061035,0.061035
4747177083,0.00354004,0.00331116,-1.00517273,0.305176,0.000000,-0.183105
4752204666,0.00302124,0.00346375,-1.00502014,0.366211,0.000000,0.000000
4757185583,0.00244141,0.00399780,-1.00593567,0.305176,0.122070,-0.061035
4762250583,0.00205994,0.00422668,-1.00642395,0.427246,0.061035,0.000000
4767225250,0.00172424,0.00349426,-1.00590515,0.366211,0.061035,0.000000
4772225041,0.00164795,0.00239563,-1.00584412,0.244141,0.183105,-0.061035
4777255833,0.00186157,0.00213623,-1.00628662,0.305176,0.000000,-0.061035
4782406541,0.00204468,0.00259399,-1.00614929,0.305176,0.000000,-0.122070
4787240250,0.00175476,0.00280762,-1.00582886,0.305176,0.061035,-0.061035
4792223291,0.00135803,0.00247192,-1.00610352,0.366211,0.061035,-0.061035
4797237000,0.00166321,0.00224304,-1.00654602,0.366211,0.061035,-0.061035
4802212791,0.00227356,0.00231934,-1.00671387,0.244141,0.061035,-0.183105
4807200166,0.00254822,0.00244141,-1.00653076,0.305176,0.000000,-0.061035
4812219291,0.00250244,0.00239563,-1.00596619,0.183105,0.000000,-0.061035
4817265291,0.00244141,0.00233459,-1.00575256,0.427246,0.061035,-0.061035
4822256625,0.00262451,0.00256348,-1.00576782,0.427246,0.061035,-0.061035
4827218125,0.00321960,0.00297546,-1.00532532,0.427246,0.000000,-0.061035
4832219416,0.00378418,0.00311279,-1.00497437,0.366211,0.000000,-0.061035
4837243583,0.00379944,0.00291443,-1.00534058,0.244141,0.000000,-0.061035
4842218875,0.00331116,0.00288391,-1.00602722,0.305176,0.061035,0.061035
4847292500,0.00260925,0.00300598,-1.00625610,0.366211,-0.061035,-0.061035
4852316833,0.00195312,0.00300598,-1.00599670,0.305176,0.000000,0.000000
4857241166,0.00175476,0.00300598,-1.00566101,0.305176,0.122070,0.122070
4862219250,0.00189209,0.00303650,-1.00555420,0.305176,0.000000,0.000000
4867240125,0.00193787,0.00276184,-1.00572205,0.305176,0.000000,-0.122070
4872213958,0.00192261,0.00245667,-1.00570679,0.427246,0.122070,-0.122070
4877219000,0.00189209,0.00247192,-1.00540161,0.305176,0.061035,0.000000
4882422250,0.00190735,0.00292969,-1.00569153,0.305176,-0.061035,0.000000
4887243083,0.00202942,0.00349426,-1.00634766,0.244141,0.061035,0.061035
4892244083,0.00215149,0.00363159,-1.00601196,0.427246,0.061035,-0.122070
4897258250,0.00227356,0.00341797,-1.00535583,0.305176,0.183105,-0.061035
4902244583,0.00228882,0.00311279,-1.00561523,0.427246,0.061035,-0.061035
4907213375,0.00230408,0.00280762,-1.00610352,0.305176,0.061035,-0.122070
4912296416,0.00254822,0.00244141,-1.00610352,0.244141,-0.122070,0.000000
4917357041,0.00302124,0.00222778,-1.00584412,0.305176,0.122070,-0.061035
4922714875,0.00329590,0.00231934,-1.00561523,0.305176,0.061035,-0.061035
4927266708,0.00302124,0.00254822,-1.00581360,0.305176,0.183105,0.000000
4932243416,0.00254822,0.00285339,-1.00634766,0.305176,-0.061035,-0.061035
4937285750,0.00234985,0.00265503,-1.00624084,0.244141,-0.061035,-0.061035
4942333416,0.00238037,0.00192261,-1.00546265,0.366211,0.000000,-0.061035
4947247583,0.00231934,0.00161743,-1.00540161,0.244141,0.061035,0.000000
4952268916,0.00192261,0.00199890,-1.00633240,0.305176,0.122070,0.000000
4957241791,0.00160217,0.00247192,-1.00660706,0.183105,0.061035,0.000000
4962258541,0.00186157,0.00260925,-1.00576782,0.305176,-0.061035,-0.122070
4967304458,0.00238037,0.00277710,-1.00527954,0.244141,0.061035,-0.061035
4972241375,0.00222778,0.00312805,-1.00579834,0.366211,0.122070,0.061035
4977321083,0.00152588,0.00317383,-1.00659180,0.183105,-0.061035,-0.061035
4982318625,0.00128174,0.00294495,-1.00682068,0.183105,0.122070,-0.061035
4987491208,0.00175476,0.00302124,-1.00617981,0.366211,0.122070,-0.061035
4992259708,0.00228882,0.00347900,-1.00538635,0.305176,0.122070,-0.061035
4997268041,0.00227356,0.00357056,-1.00552368,0.305176,0.183105,-0.061035
5002251416,0.00201416,0.00308228,-1.00582886,0.427246,0.183105,0.000000
5007241541,0.00190735,0.00285339,-1.00526428,0.183105,0.000000,-0.061035
5012261416,0.00209045,0.00302124,-1.00492859,0.366211,0.000000,0.061035
5017317875,0.00247192,0.00306702,-1.00544739,0.427246,0.122070,0.000000
5022256833,0.00256348,0.00291443,-1.00616455,0.305176,0.183105,-0.122070
5027304666,0.00234985,0.00259399,-1.00665283,0.183105,0.122070,0.000000
5032320541,0.00244141,0.00219727,-1.00666809,0.366211,0.061035,0.000000
5037261583,0.00276184,0.00213623,-1.00633240,0.427246,0.000000,-0.122070
5042274541,0.00277710,0.00212097,-1.00631714,0.244141,0.122070,0.000000
5047258583,0.00253296,0.00173950,-1.00660706,0.305176,0.061035,-0.122070
5052269958,0.00239563,0.00128174,-1.00653076,0.366211,0.122070,0.000000
5057285875,0.00253296,0.00140381,-1.00659180,0.183105,0.122070,0.000000
5062449708,0.00267029,0.00225830,-1.00718689,0.305176,0.061035,-0.122070
5067263291,0.00250244,0.00294495,-1.00704956,0.366211,-0.061035,-0.061035
5072266666,0.00224304,0.00306702,-1.00587463,0.305176,0.183105,0.061035
5077281833,0.00225830,0.00305176,-1.00537109,0.244141,0.061035,-0.183105
5082347250,0.00225830,0.00321960,-1.00572205,0.366211,0.061035,-0.061035
5087292666,0.00213623,0.00337219,-1.00595093,0.244141,0.061035,-0.061035
5092390666,0.00186157,0.00349426,-1.00628662,0.122070,0.122070,-0.122070
5097278208,0.00154114,0.00386047,-1.00631714,0.427246,0.183105,0.000000
5102278583,0.00152588,0.00416565,-1.00567627,0.305176,0.000000,-0.061035
5107339708,0.00204468,0.00393677,-1.00576782,0.305176,0.061035,-0.061035
5112291833,0.00280762,0.00341797,-1.00679016,0.305176,0.122070,0.000000
5117371250,0.00340271,0.00280762,-1.00672913,0.305176,0.000000,-0.122070
5122378541,0.00375366,0.00213623,-1.00567627,0.244141,0.122070,-0.061035
5127330291,0.00369263,0.00193787,-1.00558472,0.183105,0.061035,-0.061035
5132282375,0.00299072,0.00218201,-1.00622559,0.366211,0.061035,0.000000
5137264458,0.00215149,0.00230408,-1.00608826,0.305176,0.061035,-0.061035
5142266583,0.00183105,0.00227356,-1.00549316,0.427246,0.061035,-0.122070
5147367125,0.00205994,0.00198364,-1.00527954,0.427246,0.122070,-0.061035
5152360750,0.00247192,0.00148010,-1.00564575,0.305176,0.000000,-0.061035
5157296125,0.00274658,0.00132751,-1.00624084,0.305176,0.000000,-0.122070
5162313041,0.00247192,0.00196838,-1.00616455,0.427246,0.122070,0.000000
5167293416,0.00189209,0.00289917,-1.00547791,0.244141,0.122070,-0.061035
5172269958,0.00163269,0.00334167,-1.00559998,0.183105,0.061035,0.000000
5177289833,0.00170898,0.00335693,-1.00683594,0.183105,0.122070,0.000000
5182289375,0.00157166,0.00337219,-1.00769043,0.305176,0.061035,-0.122070
5187302875,0.00149536,0.00352478,-1.00761414,0.427246,0.000000,0.061035
5192301083,0.00209045,0.00354004,-1.00753784,0.305176,0.061035,-0.061035
5197353333,0.00268555,0.00318909,-1.00735474,0.183105,0.000000,0.000000
5202302000,0.00283813,0.00285339,-1.00657654,0.305176,0.061035,0.000000
5207307125,0.00292969,0.00282288,-1.00570679,0.305176,0.000000,0.061035
5212278083,0.00315857,0.00286865,-1.00531006,0.244141,0.061035,-0.122070
5217311333,0.00320435,0.00270081,-1.00561523,0.244141,0.061035,-0.061035
5222314625,0.00305176,0.00228882,-1.00637817,0.366211,0.000000,-0.122070
5227277333,0.00305176,0.00204468,-1.00630188,0.366211,0.122070,0.061035
5232268041,0.00325012,0.00216675,-1.00544739,0.366211,0.122070,-0.122070
5237303833,0.00341797,0.00236511,-1.00517273,0.427246,0.122070,0.000000
5242276708,0.00329590,0.00245667,-1.00563049,0.305176,0.061035,-0.061035
5247263250,0.00303650,0.00245667,-1.00614929,0.305176,0.061035,0.000000
5252303375,0.00280762,0.00250244,-1.00625610,0.427246,0.122070,-0.061035
5257302375,0.00247192,0.00282288,-1.00575256,0.244141,0.061035,-0.061035
5262247916,0.00196838,0.00314331,-1.00521851,0.244141,0.122070,-0.122070
5267287791,0.00157166,0.00323486,-1.00529480,0.305176,0.000000,-0.061035
5272307625,0.00160217,0.00360107,-1.00537109,0.427246,0.122070,-0.061035
5277294166,0.00199890,0.00407410,-1.00518799,0.305176,-0.061035,-0.061035
5282308333,0.00244141,0.00376892,-1.00561523,0.061035,0.122070,0.000000
5287311666,0.00296021,0.00296021,-1.00666809,0.244141,0.122070,-0.061035
5292304541,0.00350952,0.00282288,-1.00691223,0.305176,0.000000,-0.122070
5297301000,0.00341797,0.00306702,-1.00613403,0.305176,0.061035,-0.061035
5302342750,0.00250244,0.00277710,-1.00561523,0.244141,0.000000,-0.061035
5307295000,0.00167847,0.00219727,-1.00593567,0.427246,-0.122070,-0.122070
5312292250,0.00163269,0.00212097,-1.00685120,0.305176,0.000000,-0.122070
5317334166,0.00202942,0.00248718,-1.00732422,0.244141,0.061035,-0.183105
5322295708,0.00253296,0.00286865,-1.00666809,0.427246,0.122070,0.061035
5327302041,0.00288391,0.00292969,-1.00573730,0.244141,0.000000,-0.061035
5332290666,0.00306702,0.00268555,-1.00543213,0.183105,0.122070,-0.122070
5337293291,0.00305176,0.00244141,-1.00534058,0.427246,0.122070,-0.061035
5342308125,0.00276184,0.00231934,-1.00508118,0.366211,0.000000,-0.122070
5347307375,0.00221252,0.00215149,-1.00529480,0.305176,0.122070,0.000000
5352299458,0.00195312,0.00198364,-1.00599670,0.427246,0.122070,-0.061035
5357318125,0.00224304,0.00207520,-1.00645447,0.183105,0.000000,0.000000
5362246958,0.00250244,0.00257874,-1.00646973,0.305176,0.122070,-0.061035
5367301458,0.00218201,0.00328064,-1.00625610,0.305176,0.122070,0.000000
5372317416,0.00157166,0.00387573,-1.00576782,0.244141,0.122070,0.000000
5377317291,0.00122070,0.00413513,-1.00527954,0.427246,0.122070,0.122070
5382363625,0.00122070,0.00395203,-1.00537109,0.488281,0.122070,-0.061035
5387324333,0.00138855,0.00378418,-1.00579834,0.305176,0.061035,-0.061035
5392321291,0.00195312,0.00381470,-1.00630188,0.183105,0.061035,-0.122070
5397329125,0.00273132,0.00375366,-1.00674438,0.305176,-0.061035,-0.122070
5402312625,0.00276184,0.00352478,-1.00686646,0.427246,0.000000,-0.122070
5407378708,0.00218201,0.00331116,-1.00662231,0.366211,0.000000,-0.061035
5412316958,0.00193787,0.00300598,-1.00624084,0.244141,0.000000,-0.122070
5417315208,0.00247192,0.00254822,-1.00596619,0.183105,0.061035,0.000000
5422325625,0.00343323,0.00213623,-1.00602722,0.366211,0.122070,-0.061035
5427308958,0.00393677,0.00210571,-1.00616455,0.366211,0.061035,-0.122070
5432355416,0.00357056,0.00233459,-1.00593567,0.122070,0.000000,-0.244141
5437330250,0.00279236,0.00247192,-1.00527954,0.244141,0.061035,-0.122070
5442328083,0.00239563,0.00247192,-1.00514221,0.305176,0.000000,-0.122070
5447358875,0.00259399,0.00242615,-1.00572205,0.305176,0.122070,-0.122070
5452333750,0.00288391,0.00242615,-1.00588989,0.366211,0.061035,-0.061035
5457316833,0.00280762,0.00242615,-1.00566101,0.305176,0.061035,-0.061035
5462349541,0.00227356,0.00233459,-1.00588989,0.366211,0.122070,-0.061035
5467317083,0.00172424,0.00210571,-1.00656128,0.183105,0.061035,0.000000
5472327458,0.00169373,0.00193787,-1.00694275,0.305176,0.122070,0.061035
5477370208,0.00202942,0.00213623,-1.00672913,0.183105,0.122070,-0.061035
5482412500,0.00236511,0.00292969,-1.00596619,0.244141,0.122070,-0.061035
5487331458,0.00245667,0.00375366,-1.00529480,0.366211,0.000000,-0.183105
5492351833,0.00225830,0.00389099,-1.00558472,0.183105,-0.061035,-0.061035
5497348500,0.00204468,0.00329590,-1.00630188,0.366211,0.000000,0.000000
5502346541,0.00215149,0.00279236,-1.00639343,0.244141,0.122070,-0.061035
5507347416,0.00230408,0.00282288,-1.00637817,0.244141,0.000000,-0.183105
5512428833,0.00218201,0.00309753,-1.00677490,0.305176,0.122070,0.000000
5517344625,0.00212097,0.00302124,-1.00683594,0.183105,0.000000,0.000000
5522345833,0.00213623,0.00273132,-1.00650024,0.244141,0.122070,-0.061035
5527332500,0.00215149,0.00283813,-1.00630188,0.366211,-0.122070,-0.061035
5532373333,0.00244141,0.00303650,-1.00617981,0.305176,0.000000,-0.061035
5537323375,0.00265503,0.00286865,-1.00608826,0.427246,0.000000,-0.061035
5542336166,0.00238037,0.00253296,-1.00627136,0.366211,0.061035,-0.061035
5547356416,0.00221252,0.00239563,-1.00608826,0.244141,0.061035,-0.061035
5552364750,0.00254822,0.00256348,-1.00537109,0.305176,0.061035,-0.183105
5557341541,0.00292969,0.00260925,-1.00495911,0.305176,0.000000,-0.183105
5562374208,0.00303650,0.00233459,-1.00474548,0.183105,0.000000,0.061035
5567430125,0.00294495,0.00234985,-1.00473022,0.305176,0.000000,-0.061035
5572359083,0.00256348,0.00273132,-1.00532532,0.427246,0.061035,0.000000
5577354125,0.00228882,0.00311279,-1.00585938,0.366211,0.122070,-0.122070
5582362666,0.00241089,0.00326538,-1.00581360,0.488281,0.061035,0.000000
5587357625,0.00245667,0.00311279,-1.00587463,0.366211,0.000000,-0.061035
5592351833,0.00224304,0.00296021,-1.00605774,0.244141,0.122070,0.061035
5597350250,0.00230408,0.00306702,-1.00611877,0.305176,0.061035,-0.061035
5602365041,0.00285339,0.00315857,-1.00688171,0.183105,-0.061035,-0.122070
5607372083,0.00300598,0.00297546,-1.00793457,0.366211,0.000000,-0.061035
5612360125,0.00231934,0.00289917,-1.00791931,0.366211,0.122070,-0.061035
5617373541,0.00154114,0.00280762,-1.00729370,0.366211,0.061035,-0.122070
5622349208,0.00141907,0.00283813,-1.00712585,0.427246,0.061035,-0.183105
5627351708,0.00195312,0.00332642,-1.00672913,0.366211,0.061035,0.000000
5632371083,0.00260925,0.00360107,-1.00596619,0.366211,-0.061035,-0.122070
5637351791,0.00296021,0.00315857,-1.00556946,0.244141,0.061035,0.061035
5642364333,0.00296021,0.00254822,-1.00520325,0.244141,0.000000,-0.122070
5647359458,0.00263977,0.00224304,-1.00485229,0.183105,0.061035,-0.244141
5652367291,0.00205994,0.00192261,-1.00509644,0.305176,0.061035,0.000000
5657368625,0.00160217,0.00149536,-1.00540161,0.366211,0.000000,-0.183105
5662385041,0.00170898,0.00157166,-1.00521851,0.244141,0.061035,-0.183105
5667388666,0.00227356,0.00228882,-1.00546265,0.366211,0.000000,0.000000
5672411166,0.00262451,0.00306702,-1.00621033,0.305176,0.061035,-0.122070
5677390958,0.00215149,0.00325012,-1.00627136,0.244141,0.000000,-0.122070
5682382708,0.00135803,0.00305176,-1.00569153,0.366211,0.000000,-0.183105
5687380416,0.00117493,0.00312805,-1.00529480,0.366211,0.061035,-0.183105
5692399541,0.00184631,0.00358582,-1.00518799,0.366211,0.122070,-0.061035
5697380416,0.00239563,0.00392151,-1.00517273,0.366211,-0.061035,0.061035
5702404125,0.00222778,0.00393677,-1.00556946,0.427246,0.122070,-0.122070
5707399750,0.00180054,0.00364685,-1.00616455,0.427246,0.061035,0.000000
5712385375,0.00177002,0.00318909,-1.00666809,0.366211,0.122070,-0.061035
5717397333,0.00205994,0.00289917,-1.00698853,0.305176,0.122070,-0.122070
5722394375,0.00238037,0.00305176,-1.00624084,0.183105,0.122070,-0.122070
5727417125,0.00228882,0.00354004,-1.00506592,0.244141,0.061035,-0.061035
5732462416,0.00180054,0.00370789,-1.00556946,0.244141,0.061035,-0.061035
5737385708,0.00155640,0.00308228,-1.00672913,0.366211,0.122070,-0.061035
5742366583,0.00178528,0.00207520,-1.00639343,0.244141,0.000000,-0.183105
5747390625,0.00225830,0.00149536,-1.00543213,0.305176,-0.122070,-0.061035
5752393333,0.00263977,0.00151062,-1.00553894,0.305176,0.061035,-0.122070
5757364625,0.00247192,0.00151062,-1.00637817,0.366211,0.122070,-0.061035
5762396041,0.00195312,0.00131226,-1.00703430,0.366211,0.000000,-0.122070
5767377875,0.00201416,0.00120544,-1.00695801,0.183105,0.061035,0.000000
5772391041,0.00256348,0.00140381,-1.00648499,0.183105,0.000000,-0.061035
5777383833,0.00276184,0.00186157,-1.00643921,0.427246,0.122070,-0.122070
5782438250,0.00280762,0.00251770,-1.00691223,0.183105,0.061035,-0.061035
5787418500,0.00321960,0.00321960,-1.00694275,0.244141,-0.061035,-0.183105
5792387583,0.00361633,0.00389099,-1.00637817,0.305176,-0.061035,0.000000
5797407125,0.00340271,0.00459290,-1.00604248,0.183105,0.061035,-0.061035
5802374583,0.00282288,0.00500488,-1.00558472,0.366211,0.122070,0.000000
5807383000,0.00224304,0.00466919,-1.00517273,0.427246,0.000000,-0.122070
5812398916,0.00192261,0.00408936,-1.00585938,0.244141,0.061035,-0.183105
5817403583,0.00184631,0.00401306,-1.00659180,0.366211,0.061035,0.000000
5822379041,0.00181580,0.00404358,-1.00608826,0.305176,0.000000,0.061035
5827449833,0.00184631,0.00373840,-1.00543213,0.305176,0.000000,-0.122070
5832397500,0.00192261,0.00334167,-1.00550842,0.366211,0.000000,-0.061035
5837388541,0.00201416,0.00277710,-1.00567627,0.305176,0.122070,-0.061035
5842405416,0.00218201,0.00184631,-1.00578308,0.366211,0.000000,0.000000
5847406250,0.00215149,0.00117493,-1.00608826,0.183105,-0.061035,-0.122070
5852436666,0.00173950,0.00138855,-1.00608826,0.244141,0.061035,-0.061035
5857385250,0.00154114,0.00201416,-1.00572205,0.366211,0.000000,-0.061035
5862405416,0.00201416,0.00204468,-1.00581360,0.366211,0.122070,-0.122070
5867392166,0.00225830,0.00144958,-1.00627136,0.427246,0.000000,0.061035
5872415583,0.00177002,0.00112915,-1.00665283,0.366211,0.000000,-0.061035
5877395458,0.00178528,0.00158691,-1.00674438,0.305176,0.122070,0.061035
5882432291,0.00248718,0.00263977,-1.00637817,0.244141,0.122070,-0.244141
5887398333,0.00283813,0.00378418,-1.00608826,0.305176,0.061035,-0.183105
5892420375,0.00247192,0.00466919,-1.00630188,0.366211,0.000000,-0.061035
5897696375,0.00219727,0.00520325,-1.00639343,0.305176,0.000000,-0.122070
5902456458,0.00273132,0.00531006,-1.00610352,0.305176,0.000000,-0.061035
5907438916,0.00337219,0.00492859,-1.00598145,0.305176,0.122070,-0.061035
5912427541,0.00337219,0.00437927,-1.00648499,0.244141,0.122070,-0.122070
5917437500,0.00305176,0.00418091,-1.00718689,0.183105,0.000000,-0.061035
5922445041,0.00308228,0.00419617,-1.00735474,0.183105,0.061035,-0.183105
5927439166,0.00340271,0.00396729,-1.00697327,0.244141,0.000000,-0.061035
5932466583,0.00329590,0.00341797,-1.00637817,0.366211,0.000000,-0.061035
5937406375,0.00247192,0.00279236,-1.00592041,0.366211,0.183105,-0.061035
5942415833,0.00177002,0.00224304,-1.00595093,0.366211,0.000000,-0.122070
5947405166,0.00180054,0.00192261,-1.00576782,0.488281,-0.061035,-0.061035
5952434166,0.00222778,0.00172424,-1.00544739,0.366211,0.000000,-0.122070
5957416291,0.00260925,0.00143433,-1.00622559,0.244141,0.000000,-0.061035
5962449958,0.00282288,0.00099182,-1.00753784,0.305176,0.061035,0.000000
5967461750,0.00267029,0.00071716,-1.00761414,0.427246,0.000000,-0.061035
5972441000,0.00221252,0.00070190,-1.00662231,0.122070,0.000000,-0.061035
5977454083,0.00169373,0.00115967,-1.00576782,0.244141,0.000000,-0.183105
5982446041,0.00140381,0.00254822,-1.00584412,0.305176,0.183105,-0.122070
5987463958,0.00155640,0.00396729,-1.00656128,0.183105,0.061035,-0.061035
5992458291,0.00227356,0.00422668,-1.00653076,0.244141,0.000000,-0.061035
5997461416,0.00308228,0.00373840,-1.00550842,0.305176,0.122070,-0.061035
6002446333,0.00308228,0.00363159,-1.00514221,0.244141,0.000000,0.000000
6007429500,0.00244141,0.00413513,-1.00584412,0.305176,0.000000,-0.061035
6012475833,0.00215149,0.00469971,-1.00640869,0.305176,0.061035,0.122070
6017456041,0.00247192,0.00482178,-1.00639343,0.122070,0.122070,-0.122070
6022457250,0.00325012,0.00439453,-1.00621033,0.305176,-0.061035,-0.244141
6027433666,0.00376892,0.00387573,-1.00587463,0.183105,0.000000,-0.122070
6032430000,0.00354004,0.00352478,-1.00561523,0.183105,-0.061035,-0.122070
6037458291,0.00291443,0.00315857,-1.00570679,0.305176,0.122070,0.000000
6042454916,0.00256348,0.00238037,-1.00590515,0.366211,0.061035,0.000000
6047433375,0.00276184,0.00143433,-1.00624084,0.305176,0.122070,-0.122070
6052478500,0.00286865,0.00117493,-1.00660706,0.427246,0.122070,-0.061035
6057422291,0.00248718,0.00157166,-1.00599670,0.427246,0.061035,-0.122070
6062444250,0.00169373,0.00184631,-1.00469971,0.427246,0.183105,-0.061035
6067453791,0.00086975,0.00151062,-1.00428772,0.549316,0.122070,-0.122070
6072441708,0.00057983,0.00126648,-1.00505066,0.427246,0.122070,0.000000
6077432375,0.00099182,0.00160217,-1.00579834,0.244141,0.122070,-0.122070
6082459333,0.00164795,0.00201416,-1.00608826,0.488281,0.061035,-0.183105
6087547125,0.00227356,0.00209045,-1.00636292,0.427246,0.122070,-0.061035
6092481208,0.00277710,0.00222778,-1.00671387,0.366211,0.061035,0.061035
6097449916,0.00296021,0.00267029,-1.00698853,0.366211,-0.061035,-0.061035
6102465875,0.00277710,0.00329590,-1.00704956,0.244141,0.000000,-0.061035
6107429625,0.00250244,0.00378418,-1.00634766,0.366211,0.061035,-0.061035
6112493708,0.00251770,0.00396729,-1.00555420,0.244141,0.061035,-0.122070
6117485166,0.00277710,0.00404358,-1.00576782,0.244141,0.061035,-0.061035
6122462541,0.00276184,0.00430298,-1.00616455,0.366211,0.000000,0.000000
6127469125,0.00236511,0.00456238,-1.00614929,0.366211,0.061035,-0.061035
6132457041,0.00219727,0.00439453,-1.00657654,0.244141,0.061035,-0.061035
6137448666,0.00234985,0.00401306,-1.00686646,0.244141,0.000000,0.000000
6142432750,0.00259399,0.00376892,-1.00631714,0.366211,0.061035,-0.061035
6147442000,0.00267029,0.00347900,-1.00555420,0.366211,0.183105,0.061035
6152446708,0.00239563,0.00289917,-1.00531006,0.305176,0.061035,-0.183105
6157458583,0.00224304,0.00227356,-1.00564575,0.183105,-0.122070,-0.061035
6162453833,0.00248718,0.00222778,-1.00625610,0.305176,0.061035,-0.061035
6167432083,0.00234985,0.00265503,-1.00654602,0.366211,0.122070,-0.122070
6172437583,0.00177002,0.00285339,-1.00613403,0.366211,0.061035,-0.183105
6177431875,0.00154114,0.00234985,-1.00610352,0.366211,0.000000,-0.061035
6182447041,0.00186157,0.00152588,-1.00663757,0.366211,0.061035,-0.061035
6187462500,0.00221252,0.00132751,-1.00651550,0.244141,0.061035,-0.061035
6192514458,0.00233459,0.00190735,-1.00579834,0.305176,0.061035,-0.122070
6197496416,0.00204468,0.00241089,-1.00558472,0.366211,0.000000,-0.061035
6202477291,0.00164795,0.00233459,-1.00588989,0.366211,0.122070,0.000000
6207500666,0.00175476,0.00213623,-1.00587463,0.305176,0.183105,0.000000
6212464666,0.00201416,0.00245667,-1.00555420,0.305176,0.000000,-0.122070
6217500125,0.00192261,0.00321960,-1.00549316,0.305176,0.000000,0.061035
6222493583,0.00201416,0.00357056,-1.00584412,0.305176,0.000000,-0.061035
6227503333,0.00239563,0.00299072,-1.00627136,0.366211,0.061035,-0.061035
6232490875,0.00230408,0.00215149,-1.00622559,0.366211,0.061035,0.061035
6237467125,0.00198364,0.00189209,-1.00549316,0.183105,0.122070,-0.061035
6242483208,0.00224304,0.00227356,-1.00494385,0.244141,0.183105,0.000000
6247454916,0.00225830,0.00274658,-1.00564575,0.305176,0.000000,0.000000
6252496916,0.00180054,0.00277710,-1.00668335,0.366211,0.122070,-0.061035
6257540416,0.00173950,0.00244141,-1.00683594,0.244141,0.061035,-0.061035
6262452000,0.00204468,0.00242615,-1.00659180,0.183105,0.061035,-0.061035
6267513416,0.00192261,0.00289917,-1.00634766,0.244141,0.183105,-0.061035
6272516833,0.00157166,0.00328064,-1.00633240,0.305176,0.000000,-0.061035
6277479875,0.00178528,0.00303650,-1.00643921,0.488281,0.122070,-0.061035
6282518375,0.00213623,0.00250244,-1.00610352,0.305176,0.061035,0.000000
6287516875,0.00205994,0.00273132,-1.00582886,0.366211,0.061035,-0.061035
6292470500,0.00178528,0.00325012,-1.00640869,0.244141,0.000000,-0.061035
6297499041,0.00178528,0.00308228,-1.00674438,0.366211,0.061035,0.000000
6302508791,0.00210571,0.00274658,-1.00596619,0.244141,0.000000,-0.122070
6307483041,0.00250244,0.00306702,-1.00544739,0.305176,0.061035,0.000000
6312487833,0.00282288,0.00358582,-1.00601196,0.305176,0.000000,-0.061035
6317490416,0.00296021,0.00389099,-1.00665283,0.427246,0.122070,0.000000
6322515375,0.00296021,0.00396729,-1.00701904,0.366211,0.061035,0.000000
6327496000,0.00297546,0.00355530,-1.00711060,0.305176,0.000000,-0.061035
6332534541,0.00320435,0.00289917,-1.00697327,0.366211,0.122070,-0.061035
6337489666,0.00320435,0.00280762,-1.00694275,0.244141,0.000000,-0.122070
6342492333,0.00260925,0.00305176,-1.00697327,0.183105,0.000000,0.000000
6347559791,0.00198364,0.00285339,-1.00628662,0.244141,0.061035,-0.122070
6352504333,0.00209045,0.00215149,-1.00523376,0.366211,0.061035,0.000000
6357470625,0.00277710,0.00160217,-1.00540161,0.366211,0.000000,-0.122070
6362471250,0.00294495,0.00193787,-1.00669861,0.244141,0.122070,-0.061035
6367474083,0.00224304,0.00314331,-1.00721741,0.305176,0.061035,-0.061035
6372530166,0.00166321,0.00413513,-1.00646973,0.427246,0.000000,0.000000
6377499291,0.00164795,0.00401306,-1.00555420,0.122070,0.061035,-0.122070
6382619708,0.00180054,0.00328064,-1.00543213,0.427246,0.000000,0.000000
6387536458,0.00172424,0.00291443,-1.00605774,0.244141,0.061035,-0.122070
6392517583,0.00112915,0.00305176,-1.00627136,0.427246,0.122070,-0.061035
6397590333,0.00068665,0.00314331,-1.00550842,0.366211,0.061035,-0.183105
6402569250,0.00094604,0.00323486,-1.00520325,0.183105,0.061035,-0.183105
6407575083,0.00140381,0.00335693,-1.00573730,0.244141,0.000000,-0.061035
6412529000,0.00177002,0.00328064,-1.00570679,0.366211,0.061035,0.000000
6417628416,0.00244141,0.00289917,-1.00494385,0.244141,-0.061035,0.061035
6422503708,0.00318909,0.00251770,-1.00480652,0.427246,0.061035,0.000000
6427487041,0.00335693,0.00250244,-1.00547791,0.122070,-0.122070,-0.122070
6432566500,0.00296021,0.00277710,-1.00654602,0.488281,0.000000,0.000000
6437562750,0.00268555,0.00289917,-1.00718689,0.305176,0.000000,0.061035
6442518000,0.00256348,0.00267029,-1.00646973,0.305176,0.061035,0.061035
6447552166,0.00241089,0.00224304,-1.00521851,0.183105,0.000000,-0.122070
6452567208,0.00251770,0.00199890,-1.00523376,0.305176,0.061035,-0.061035
6457502416,0.00274658,0.00215149,-1.00605774,0.244141,-0.061035,-0.061035
6462490625,0.00265503,0.00254822,-1.00639343,0.427246,0.061035,-0.122070
6467634416,0.00245667,0.00286865,-1.00659180,0.244141,0.061035,-0.061035
6472534500,0.00253296,0.00309753,-1.00688171,0.427246,0.061035,-0.061035
6477490791,0.00279236,0.00346375,-1.00665283,0.305176,0.061035,-0.061035
6482614583,0.00274658,0.00375366,-1.00608826,0.305176,0.122070,0.000000
6487543958,0.00225830,0.00364685,-1.00569153,0.305176,0.183105,-0.061035
6492521083,0.00186157,0.00347900,-1.00555420,0.244141,0.122070,-0.061035
6497614708,0.00169373,0.00335693,-1.00578308,0.305176,0.000000,-0.061035
6502628333,0.00167847,0.00309753,-1.00604248,0.305176,0.061035,0.000000
6507518166,0.00205994,0.00267029,-1.00566101,0.305176,0.000000,0.000000
6512521625,0.00262451,0.00236511,-1.00531006,0.549316,0.122070,-0.122070
6517645333,0.00260925,0.00216675,-1.00573730,0.366211,0.000000,0.000000
6522559125,0.00224304,0.00204468,-1.00613403,0.244141,0.122070,0.061035
6527495916,0.00228882,0.00221252,-1.00584412,0.183105,0.183105,-0.061035
6532582583,0.00251770,0.00251770,-1.00540161,0.305176,0.061035,0.000000
6538017416,0.00265503,0.00247192,-1.00515747,0.366211,0.061035,-0.061035
6542563625,0.00276184,0.00213623,-1.00514221,0.366211,-0.061035,-0.061035
6547525541,0.00251770,0.00190735,-1.00567627,0.366211,0.122070,-0.061035
6552554083,0.00186157,0.00189209,-1.00619507,0.305176,0.183105,0.061035
6557560458,0.00155640,0.00199890,-1.00595093,0.305176,0.061035,-0.061035
6562540291,0.00193787,0.00227356,-1.00599670,0.305176,0.000000,0.000000
6567590125,0.00222778,0.00268555,-1.00628662,0.305176,0.122070,-0.183105
6572549458,0.00210571,0.00294495,-1.00567627,0.366211,0.183105,-0.061035
6577510291,0.00192261,0.00314331,-1.00494385,0.305176,-0.061035,-0.061035
6582574625,0.00184631,0.00364685,-1.00535583,0.488281,0.000000,-0.122070
6587574208,0.00167847,0.00404358,-1.00585938,0.427246,0.122070,-0.061035
6592575083,0.00160217,0.00357056,-1.00521851,0.305176,0.122070,-0.061035
6597614583,0.00193787,0.00288391,-1.00418091,0.183105,-0.061035,-0.183105
6602550333,0.00230408,0.00289917,-1.00395203,0.305176,-0.061035,-0.061035
6607599583,0.00239563,0.00312805,-1.00479126,0.244141,0.061035,-0.061035
6612587250,0.00248718,0.00306702,-1.00608826,0.061035,0.061035,-0.061035
6617755750,0.00260925,0.00296021,-1.00665283,0.183105,0.122070,-0.061035
6622575791,0.00256348,0.00277710,-1.00651550,0.366211,0.122070,-0.061035
6627524333,0.00247192,0.00225830,-1.00666809,0.244141,0.122070,-0.122070
6632629500,0.00247192,0.00169373,-1.00668335,0.305176,0.000000,-0.122070
6637569375,0.00247192,0.00170898,-1.00573730,0.427246,0.061035,-0.122070
6642559250,0.00253296,0.00205994,-1.00500488,0.244141,0.000000,-0.061035
6647726000,0.00274658,0.00202942,-1.00534058,0.366211,0.000000,0.000000
6652602250,0.00292969,0.00202942,-1.00601196,0.244141,0.122070,0.000000
6657574500,0.00305176,0.00250244,-1.00628662,0.427246,0.122070,-0.061035
6662592083,0.00325012,0.00283813,-1.00605774,0.305176,0.061035,-0.061035
6667656583,0.00338745,0.00260925,-1.00566101,0.366211,0.000000,-0.122070
6672572125,0.00323486,0.00227356,-1.00569153,0.427246,0.000000,0.061035
6677563583,0.00291443,0.00260925,-1.00607300,0.244141,0.061035,0.000000
6682665791,0.00236511,0.00325012,-1.00595093,0.305176,0.000000,-0.122070
6687611083,0.00173950,0.00352478,-1.00572205,0.427246,-0.122070,-0.122070
6692603500,0.00169373,0.00352478,-1.00671387,0.427246,0.061035,-0.244141
6697671083,0.00247192,0.00363159,-1.00762939,0.366211,-0.122070,-0.122070
6702622833,0.00325012,0.00366211,-1.00701904,0.244141,0.122070,-0.122070
6707606375,0.00329590,0.00363159,-1.00608826,0.244141,-0.061035,-0.122070
6712587083,0.00285339,0.00389099,-1.00595093,0.244141,0.061035,-0.122070
6717645833,0.00253296,0.00399780,-1.00616455,0.488281,0.061035,0.000000
6722574833,0.00259399,0.00326538,-1.00663757,0.488281,0.061035,0.061035
6727595041,0.00257874,0.00242615,-1.00711060,0.366211,0.061035,0.061035
6732708666,0.00221252,0.00216675,-1.00688171,0.366211,-0.061035,-0.122070
6737608000,0.00202942,0.00210571,-1.00614929,0.366211,0.122070,0.000000
6742580250,0.00239563,0.00207520,-1.00602722,0.366211,0.122070,0.000000
6747818708,0.00285339,0.00215149,-1.00619507,0.305176,0.122070,-0.183105
6752643125,0.00280762,0.00210571,-1.00614929,0.122070,0.122070,0.000000
6757631000,0.00218201,0.00196838,-1.00631714,0.366211,0.061035,0.000000
6762617791,0.00169373,0.00202942,-1.00662231,0.305176,-0.061035,-0.122070
6767673291,0.00192261,0.00245667,-1.00662231,0.305176,0.122070,0.000000
6772615250,0.00234985,0.00288391,-1.00656128,0.366211,0.122070,0.061035
6777585625,0.00242615,0.00300598,-1.00605774,0.183105,0.122070,0.000000
6782717541,0.00219727,0.00302124,-1.00447083,0.305176,0.061035,0.000000
6787659208,0.00219727,0.00340271,-1.00419617,0.183105,0.061035,-0.122070
6792618625,0.00250244,0.00398254,-1.00646973,0.305176,0.000000,0.000000
6797636041,0.00283813,0.00398254,-1.00733948,0.305176,0.061035,0.061035
6802623958,0.00277710,0.00331116,-1.00579834,0.366211,0.061035,-0.122070
6807605666,0.00230408,0.00273132,-1.00506592,0.244141,-0.061035,-0.122070
6812679666,0.00199890,0.00283813,-1.00550842,0.183105,0.000000,-0.061035
6817676791,0.00228882,0.00323486,-1.00578308,0.244141,-0.122070,-0.061035
6822589500,0.00265503,0.00341797,-1.00576782,0.244141,0.061035,0.061035
6827606041,0.00277710,0.00338745,-1.00552368,0.427246,0.122070,-0.122070
6832646875,0.00273132,0.00300598,-1.00529480,0.244141,0.061035,0.000000
6837570041,0.00248718,0.00231934,-1.00564575,0.244141,0.000000,-0.122070
6842597666,0.00224304,0.00193787,-1.00578308,0.366211,0.122070,-0.061035
6847720500,0.00222778,0.00210571,-1.00523376,0.183105,0.000000,-0.183105
6852667958,0.00219727,0.00239563,-1.00526428,0.305176,0.122070,-0.122070
6857627000,0.00213623,0.00251770,-1.00587463,0.183105,0.061035,-0.122070
6862624166,0.00241089,0.00271606,-1.00604248,0.366211,0.061035,-0.061035
6867642375,0.00297546,0.00309753,-1.00582886,0.244141,0.000000,-0.122070
6872632250,0.00317383,0.00321960,-1.00578308,0.366211,0.061035,-0.122070
6877587208,0.00276184,0.00297546,-1.00585938,0.366211,0.183105,0.000000
6882759166,0.00233459,0.00242615,-1.00578308,0.244141,-0.122070,-0.122070
6887632458,0.00248718,0.00177002,-1.00532532,0.244141,0.000000,-0.183105
6892645541,0.00259399,0.00148010,-1.00505066,0.366211,0.061035,-0.061035
6897743041,0.00196838,0.00202942,-1.00563049,0.244141,0.122070,-0.122070
6902653583,0.00170898,0.00299072,-1.00619507,0.366211,-0.061035,-0.122070
6907605083,0.00267029,0.00344849,-1.00579834,0.244141,0.183105,0.000000
6912606041,0.00332642,0.00335693,-1.00544739,0.305176,0.061035,-0.061035
6917647416,0.00260925,0.00338745,-1.00575256,0.366211,0.061035,-0.061035
6922610291,0.00181580,0.00367737,-1.00578308,0.244141,0.061035,-0.061035
6927593750,0.00199890,0.00372314,-1.00561523,0.549316,0.122070,-0.244141
6932611708,0.00260925,0.00360107,-1.00602722,0.305176,0.000000,0.000000
6937623750,0.00279236,0.00357056,-1.00627136,0.427246,0.122070,-0.122070
6942633208,0.00247192,0.00321960,-1.00563049,0.305176,0.122070,0.000000
6947598791,0.00205994,0.00227356,-1.00531006,0.427246,0.061035,0.000000
6952642291,0.00189209,0.00132751,-1.00569153,0.305176,0.061035,0.000000
6957618875,0.00207520,0.00128174,-1.00549316,0.366211,0.183105,0.000000
6962595708,0.00250244,0.00196838,-1.00476074,0.366211,-0.061035,0.000000
6967683833,0.00271606,0.00238037,-1.00469971,0.305176,0.000000,-0.061035
6972631666,0.00274658,0.00239563,-1.00531006,0.305176,0.000000,-0.122070
6977650458,0.00291443,0.00256348,-1.00585938,0.366211,-0.061035,-0.061035
6982629500,0.00305176,0.00286865,-1.00592041,0.366211,0.061035,-0.061035
6987620041,0.00308228,0.00311279,-1.00572205,0.305176,0.122070,-0.061035
6992641708,0.00289917,0.00332642,-1.00593567,0.244141,0.061035,-0.122070
6997620625,0.00245667,0.00331116,-1.00651550,0.366211,0.000000,0.000000
7002611958,0.00204468,0.00314331,-1.00651550,0.366211,0.122070,0.000000
7007609541,0.00196838,0.00300598,-1.00585938,0.305176,0.183105,0.000000
7012635875,0.00187683,0.00286865,-1.00559998,0.366211,0.122070,0.061035
7017749208,0.00170898,0.00267029,-1.00578308,0.244141,0.061035,-0.061035
7022661750,0.00193787,0.00263977,-1.00592041,0.488281,0.061035,-0.061035
7027613125,0.00234985,0.00282288,-1.00619507,0.366211,0.061035,-0.122070
7032675125,0.00251770,0.00285339,-1.00636292,0.244141,0.061035,-0.061035
7037660666,0.00247192,0.00256348,-1.00598145,0.305176,0.061035,-0.122070
7042610208,0.00245667,0.00215149,-1.00592041,0.244141,0.061035,-0.061035
7047646250,0.00260925,0.00190735,-1.00643921,0.305176,0.061035,0.000000
7052661666,0.00271606,0.00192261,-1.00659180,0.305176,0.122070,0.000000
7057641708,0.00259399,0.00219727,-1.00639343,0.244141,0.122070,-0.061035
7062638250,0.00259399,0.00265503,-1.00625610,0.366211,0.061035,-0.122070
7067681625,0.00297546,0.00308228,-1.00559998,0.244141,0.000000,-0.061035
7072666833,0.00318909,0.00323486,-1.00514221,0.183105,-0.061035,0.000000
7077616541,0.00271606,0.00309753,-1.00595093,0.427246,0.183105,0.061035
7082690666,0.00189209,0.00291443,-1.00665283,0.244141,0.000000,-0.061035
7087685333,0.00143433,0.00265503,-1.00610352,0.427246,0.000000,-0.122070
7092680916,0.00152588,0.00248718,-1.00535583,0.427246,-0.061035,-0.061035
7097672416,0.00158691,0.00265503,-1.00538635,0.366211,0.122070,0.000000
7102667791,0.00135803,0.00288391,-1.00636292,0.183105,0.061035,-0.122070
7107662541,0.00146484,0.00288391,-1.00720215,0.427246,0.000000,0.000000
7112688833,0.00183105,0.00282288,-1.00656128,0.366211,0.061035,0.000000
7117677583,0.00207520,0.00285339,-1.00511169,0.305176,0.061035,-0.061035
7122685916,0.00238037,0.00274658,-1.00473022,0.366211,0.000000,-0.122070
7127682041,0.00259399,0.00238037,-1.00535583,0.366211,-0.061035,-0.061035
7132664666,0.00236511,0.00225830,-1.00556946,0.366211,0.061035,0.061035
7137668958,0.00216675,0.00262451,-1.00540161,0.427246,0.061035,-0.061035
7142668750,0.00228882,0.00294495,-1.00602722,0.122070,-0.061035,-0.183105
7147641500,0.00231934,0.00296021,-1.00691223,0.305176,0.061035,-0.061035
7152705958,0.00195312,0.00273132,-1.00680542,0.244141,0.061035,-0.122070
7157679750,0.00180054,0.00250244,-1.00608826,0.183105,0.061035,0.000000
7162671541,0.00247192,0.00263977,-1.00546265,0.305176,-0.061035,-0.122070
7167683875,0.00320435,0.00312805,-1.00515747,0.305176,0.000000,-0.061035
7172737375,0.00325012,0.00332642,-1.00537109,0.305176,0.000000,-0.061035
7177663000,0.00297546,0.00296021,-1.00564575,0.427246,0.000000,-0.061035
7182671791,0.00286865,0.00267029,-1.00561523,0.305176,0.183105,-0.061035
7187700541,0.00286865,0.00274658,-1.00567627,0.366211,0.061035,-0.122070
7192655708,0.00273132,0.00277710,-1.00590515,0.183105,0.000000,0.000000
7197651666,0.00260925,0.00283813,-1.00593567,0.305176,0.000000,-0.122070
7202671291,0.00288391,0.00320435,-1.00593567,0.427246,0.122070,-0.122070
7207678125,0.00291443,0.00350952,-1.00631714,0.427246,0.183105,-0.061035
7212722708,0.00212097,0.00328064,-1.00648499,0.366211,-0.061035,-0.122070
7217675750,0.00117493,0.00267029,-1.00602722,0.244141,-0.061035,-0.122070
7222690541,0.00097656,0.00212097,-1.00581360,0.427246,0.122070,-0.061035
7227671708,0.00160217,0.00193787,-1.00621033,0.366211,0.000000,0.000000
7232694166,0.00219727,0.00231934,-1.00654602,0.305176,0.000000,0.000000
7237688958,0.00213623,0.00299072,-1.00668335,0.244141,0.061035,-0.061035
7242671625,0.00183105,0.00323486,-1.00643921,0.183105,0.061035,-0.122070
7247639708,0.00163269,0.00270081,-1.00575256,0.244141,0.061035,0.000000
7252691458,0.00166321,0.00199890,-1.00572205,0.366211,0.122070,-0.061035
7257696041,0.00190735,0.00177002,-1.00640869,0.122070,0.000000,0.000000
7262678875,0.00238037,0.00196838,-1.00665283,0.305176,0.061035,-0.061035
7267702875,0.00303650,0.00238037,-1.00633240,0.244141,0.061035,-0.122070
7272679958,0.00326538,0.00274658,-1.00627136,0.366211,0.000000,-0.061035
7277707958,0.00271606,0.00300598,-1.00640869,0.305176,0.061035,-0.061035
7282714916,0.00216675,0.00326538,-1.00639343,0.244141,0.061035,-0.122070
7287701208,0.00242615,0.00347900,-1.00610352,0.366211,0.061035,0.000000
7292683958,0.00297546,0.00370789,-1.00552368,0.244141,0.061035,0.000000
7297719583,0.00286865,0.00379944,-1.00511169,0.183105,0.061035,0.122070
7302706000,0.00210571,0.00360107,-1.00526428,0.366211,0.122070,0.061035
7307704958,0.00141907,0.00332642,-1.00541687,0.244141,0.061035,-0.122070
7312703166,0.00144958,0.00323486,-1.00540161,0.427246,0.122070,-0.061035
7317746250,0.00204468,0.00354004,-1.00590515,0.183105,0.061035,0.000000
7322692208,0.00265503,0.00375366,-1.00657654,0.244141,0.000000,-0.061035
7327765541,0.00286865,0.00338745,-1.00666809,0.061035,-0.061035,0.000000
7332716250,0.00265503,0.00283813,-1.00642395,0.305176,0.000000,-0.061035
7337678333,0.00238037,0.00286865,-1.00637817,0.366211,0.183105,-0.061035
7342691958,0.00227356,0.00305176,-1.00682068,0.305176,0.061035,-0.061035
7347698375,0.00210571,0.00263977,-1.00706482,0.427246,0.000000,-0.122070
7352745791,0.00183105,0.00218201,-1.00636292,0.183105,-0.061035,-0.183105
7357691750,0.00190735,0.00247192,-1.00540161,0.305176,0.061035,0.000000
7362667750,0.00231934,0.00297546,-1.00576782,0.305176,0.061035,-0.061035
7367713583,0.00262451,0.00297546,-1.00695801,0.305176,0.000000,-0.061035
7372738500,0.00276184,0.00280762,-1.00697327,0.427246,0.183105,0.000000
7377705166,0.00257874,0.00299072,-1.00592041,0.366211,0.061035,-0.061035
7382729208,0.00219727,0.00317383,-1.00540161,0.305176,0.061035,-0.061035
7387730791,0.00224304,0.00303650,-1.00585938,0.305176,-0.061035,-0.122070
7392714791,0.00259399,0.00288391,-1.00659180,0.305176,0.000000,-0.061035
7397725916,0.00267029,0.00288391,-1.00659180,0.366211,0.061035,-0.122070
7402687958,0.00263977,0.00294495,-1.00567627,0.366211,0.061035,-0.061035
7407722833,0.00256348,0.00312805,-1.00517273,0.427246,0.183105,-0.183105
7412732416,0.00247192,0.00335693,-1.00610352,0.305176,0.000000,0.000000
7417721000,0.00238037,0.00344849,-1.00686646,0.244141,0.122070,-0.183105
7422687166,0.00221252,0.00337219,-1.00613403,0.305176,0.000000,-0.183105
7427716291,0.00210571,0.00305176,-1.00549316,0.305176,0.061035,-0.122070
7432807166,0.00234985,0.00259399,-1.00611877,0.305176,0.061035,0.061035
7437704250,0.00254822,0.00222778,-1.00657654,0.366211,0.000000,-0.122070
7442736833,0.00230408,0.00199890,-1.00640869,0.183105,0.061035,-0.061035
7447694416,0.00198364,0.00190735,-1.00617981,0.366211,0.000000,-0.122070
7452960041,0.00207520,0.00186157,-1.00605774,0.366211,0.122070,-0.061035
7457736541,0.00234985,0.00170898,-1.00613403,0.427246,0.122070,-0.122070
7462715500,0.00238037,0.00178528,-1.00621033,0.244141,0.061035,-0.122070
7467708083,0.00198364,0.00231934,-1.00596619,0.427246,0.000000,0.000000
7472722333,0.00155640,0.00285339,-1.00610352,0.305176,0.061035,0.000000
7477747375,0.00180054,0.00302124,-1.00674438,0.305176,0.061035,-0.061035
7482796333,0.00268555,0.00286865,-1.00665283,0.305176,0.061035,-0.183105
7487735125,0.00350952,0.00259399,-1.00572205,0.305176,0.061035,0.000000
7492710375,0.00376892,0.00262451,-1.00547791,0.366211,0.000000,-0.061035
7497764916,0.00338745,0.00326538,-1.00604248,0.427246,0.122070,0.000000
7502825625,0.00297546,0.00384521,-1.00640869,0.305176,0.061035,0.000000
7507721708,0.00305176,0.00360107,-1.00625610,0.366211,0.122070,-0.122070
7512763958,0.00352478,0.00282288,-1.00588989,0.427246,0.122070,-0.183105
7517726875,0.00376892,0.00244141,-1.00563049,0.427246,0.000000,-0.061035
7522721625,0.00344849,0.00263977,-1.00625610,0.244141,0.061035,-0.183105
7527715708,0.00297546,0.00277710,-1.00700378,0.366211,0.061035,-0.061035
7532765875,0.00282288,0.00260925,-1.00660706,0.427246,0.122070,-0.061035
7537731500,0.00288391,0.00257874,-1.00584412,0.427246,0.061035,-0.183105
7542742500,0.00286865,0.00305176,-1.00599670,0.305176,0.061035,-0.061035
7547760916,0.00247192,0.00372314,-1.00634766,0.305176,-0.061035,0.000000
7552775125,0.00190735,0.00375366,-1.00619507,0.305176,0.061035,0.061035
7557753833,0.00186157,0.00303650,-1.00598145,0.244141,0.061035,0.000000
7562743333,0.00209045,0.00247192,-1.00639343,0.427246,0.061035,-0.061035
7567718666,0.00184631,0.00247192,-1.00737000,0.366211,0.061035,-0.061035
7572735541,0.00148010,0.00257874,-1.00799561,0.305176,0.000000,0.000000
7577733875,0.00186157,0.00273132,-1.00767517,0.244141,0.122070,0.000000
7582754083,0.00253296,0.00311279,-1.00701904,0.183105,0.000000,-0.122070
7587824083,0.00254822,0.00344849,-1.00672913,0.244141,0.000000,0.000000
7592750708,0.00233459,0.00366211,-1.00656128,0.122070,-0.122070,-0.061035
7597727708,0.00254822,0.00370789,-1.00610352,0.183105,0.061035,-0.122070
7602765541,0.00277710,0.00349426,-1.00602722,0.244141,-0.122070,0.000000
7607769125,0.00241089,0.00312805,-1.00624084,0.244141,0.000000,-0.061035
7612737458,0.00186157,0.00299072,-1.00572205,0.244141,-0.061035,0.061035
7617794791,0.00189209,0.00328064,-1.00498962,0.366211,0.000000,0.000000
7622755583,0.00205994,0.00373840,-1.00491333,0.427246,0.061035,-0.122070
7627726375,0.00166321,0.00389099,-1.00521851,0.305176,0.000000,-0.061035
7632769708,0.00126648,0.00349426,-1.00605774,0.183105,0.000000,0.061035
7637753708,0.00140381,0.00280762,-1.00717163,0.427246,-0.061035,-0.061035
7642731791,0.00158691,0.00256348,-1.00709534,0.305176,0.061035,0.000000
7647805583,0.00167847,0.00271606,-1.00567627,0.366211,0.000000,0.000000
7652739958,0.00204468,0.00268555,-1.00488281,0.305176,0.000000,0.000000
7657779625,0.00250244,0.00248718,-1.00541687,0.122070,0.000000,-0.061035
7662741375,0.00274658,0.00239563,-1.00619507,0.427246,0.000000,-0.061035
7667779041,0.00263977,0.00241089,-1.00617981,0.244141,0.000000,-0.061035
7672789208,0.00231934,0.00254822,-1.00538635,0.305176,0.061035,0.000000
7677794750,0.00186157,0.00279236,-1.00492859,0.122070,-0.061035,0.061035
7682775750,0.00157166,0.00277710,-1.00581360,0.305176,0.122070,0.000000
7687766458,0.00180054,0.00253296,-1.00662231,0.305176,0.061035,-0.061035
7692838250,0.00239563,0.00250244,-1.00604248,0.244141,0.183105,0.000000
7697773250,0.00291443,0.00273132,-1.00549316,0.427246,0.061035,-0.122070
7702790000,0.00320435,0.00274658,-1.00592041,0.305176,0.061035,-0.122070
7707785541,0.00321960,0.00270081,-1.00596619,0.366211,0.061035,0.000000
7712802666,0.00285339,0.00282288,-1.00547791,0.183105,0.122070,-0.244141
7717802708,0.00259399,0.00292969,-1.00543213,0.366211,0.061035,-0.061035
7722776291,0.00279236,0.00296021,-1.00550842,0.305176,0.061035,-0.122070
7727740750,0.00286865,0.00306702,-1.00531006,0.488281,-0.061035,-0.061035
7732797541,0.00253296,0.00332642,-1.00538635,0.305176,0.000000,0.061035
7737783916,0.00199890,0.00363159,-1.00564575,0.244141,0.183105,-0.061035
7742778083,0.00178528,0.00376892,-1.00595093,0.366211,0.000000,0.000000
7747769250,0.00236511,0.00341797,-1.00639343,0.305176,0.122070,-0.122070
7752772333,0.00297546,0.00282288,-1.00645447,0.305176,0.183105,0.000000
7757852541,0.00273132,0.00262451,-1.00572205,0.244141,-0.061035,0.000000
7762833916,0.00236511,0.00263977,-1.00511169,0.183105,0.000000,-0.122070
7767772166,0.00271606,0.00210571,-1.00518799,0.244141,0.000000,-0.061035
7772790791,0.00314331,0.00151062,-1.00544739,0.305176,0.000000,-0.061035
7777755791,0.00270081,0.00163269,-1.00578308,0.366211,0.061035,-0.061035
7782834333,0.00183105,0.00207520,-1.00631714,0.305176,-0.061035,-0.061035
7787792375,0.00148010,0.00222778,-1.00657654,0.305176,0.000000,-0.061035
7792791125,0.00158691,0.00241089,-1.00646973,0.122070,0.061035,0.061035
7797840750,0.00190735,0.00282288,-1.00613403,0.366211,0.000000,-0.061035
7802774500,0.00204468,0.00318909,-1.00543213,0.427246,0.122070,0.061035
7807768500,0.00183105,0.00308228,-1.00497437,0.366211,0.061035,-0.061035
7812769416,0.00170898,0.00265503,-1.00559998,0.427246,0.000000,-0.061035
7817830958,0.00215149,0.00238037,-1.00611877,0.244141,0.000000,-0.183105
7822774000,0.00248718,0.00239563,-1.00549316,0.366211,0.061035,0.061035
7827782583,0.00213623,0.00268555,-1.00488281,0.305176,0.061035,-0.061035
7832795166,0.00183105,0.00318909,-1.00526428,0.366211,0.183105,-0.061035
7837805625,0.00216675,0.00370789,-1.00604248,0.427246,0.183105,-0.183105
7842795500,0.00262451,0.00389099,-1.00662231,0.488281,0.000000,-0.061035
7847821708,0.00248718,0.00367737,-1.00662231,0.427246,0.061035,-0.122070
7852803625,0.00219727,0.00334167,-1.00619507,0.366211,0.244141,0.000000
7857810875,0.00221252,0.00317383,-1.00627136,0.427246,0.000000,-0.183105
7862812916,0.00221252,0.00325012,-1.00691223,0.366211,0.122070,0.000000
7867823500,0.00202942,0.00323486,-1.00700378,0.366211,0.183105,-0.061035
7872833666,0.00186157,0.00285339,-1.00656128,0.366211,0.122070,0.000000
7877776458,0.00199890,0.00239563,-1.00634766,0.366211,0.122070,-0.122070
7882805500,0.00228882,0.00199890,-1.00613403,0.305176,0.061035,-0.183105
7887768416,0.00227356,0.00163269,-1.00558472,0.427246,0.122070,-0.061035
7892807583,0.00204468,0.00169373,-1.00547791,0.366211,-0.061035,0.000000
7897808250,0.00184631,0.00201416,-1.00563049,0.305176,-0.061035,-0.122070
7902771416,0.00158691,0.00201416,-1.00564575,0.305176,-0.122070,-0.122070
7907801125,0.00135803,0.00169373,-1.00614929,0.488281,0.000000,-0.061035
7912813583,0.00152588,0.00167847,-1.00657654,0.427246,0.000000,0.000000
7917823625,0.00207520,0.00230408,-1.00599670,0.366211,0.061035,0.061035
7922885708,0.00263977,0.00318909,-1.00537109,0.183105,0.000000,0.000000
7927777875,0.00273132,0.00363159,-1.00556946,0.244141,-0.061035,-0.061035
7932825250,0.00267029,0.00355530,-1.00595093,0.305176,0.122070,-0.122070
7937829166,0.00280762,0.00340271,-1.00581360,0.244141,0.000000,-0.122070
7942817583,0.00274658,0.00335693,-1.00563049,0.305176,0.061035,-0.122070
7947814083,0.00236511,0.00335693,-1.00579834,0.305176,0.061035,-0.061035
7952853041,0.00236511,0.00344849,-1.00616455,0.427246,0.061035,-0.061035
7957834250,0.00306702,0.00343323,-1.00631714,0.244141,0.061035,-0.122070
7962798208,0.00357056,0.00314331,-1.00593567,0.305176,0.061035,0.061035
7967831083,0.00331116,0.00288391,-1.00556946,0.244141,-0.061035,-0.061035
7972844875,0.00282288,0.00267029,-1.00619507,0.305176,0.122070,-0.061035
7977792083,0.00244141,0.00227356,-1.00680542,0.427246,0.061035,-0.061035
7982819416,0.00192261,0.00207520,-1.00651550,0.366211,-0.122070,-0.061035
7987833166,0.00131226,0.00224304,-1.00634766,0.366211,0.122070,0.000000
7992821583,0.00094604,0.00222778,-1.00674438,0.244141,0.061035,-0.061035
7997810083,0.00094604,0.00163269,-1.00682068,0.244141,0.000000,-0.122070
8002787291,0.00131226,0.00120544,-1.00677490,0.366211,0.061035,-0.183105
8007810250,0.00186157,0.00158691,-1.00695801,0.305176,0.000000,-0.061035
8012806125,0.00218201,0.00230408,-1.00695801,0.305176,0.183105,0.000000
8017845250,0.00181580,0.00280762,-1.00689697,0.244141,0.000000,-0.061035
8022836375,0.00151062,0.00297546,-1.00682068,0.427246,0.183105,-0.061035
8027807916,0.00184631,0.00300598,-1.00637817,0.244141,0.061035,0.000000
8032806750,0.00196838,0.00311279,-1.00604248,0.305176,0.061035,-0.122070
8037836750,0.00184631,0.00289917,-1.00610352,0.244141,0.000000,-0.061035
8042856583,0.00221252,0.00254822,-1.00605774,0.305176,0.122070,-0.061035
8047799250,0.00297546,0.00297546,-1.00566101,0.366211,0.061035,0.061035
8052849083,0.00346375,0.00386047,-1.00535583,0.366211,0.000000,-0.183105
8057873791,0.00347900,0.00422668,-1.00544739,0.305176,-0.122070,-0.061035
8062819041,0.00320435,0.00402832,-1.00596619,0.305176,0.061035,0.000000
8067860125,0.00276184,0.00376892,-1.00659180,0.366211,0.122070,-0.061035
8072831375,0.00233459,0.00386047,-1.00672913,0.305176,0.122070,-0.122070
8077845875,0.00242615,0.00413513,-1.00640869,0.305176,0.000000,-0.061035
8082897583,0.00280762,0.00396729,-1.00598145,0.305176,0.000000,0.061035
8087848625,0.00292969,0.00331116,-1.00535583,0.366211,0.122070,0.000000
8092860166,0.00260925,0.00280762,-1.00497437,0.244141,0.000000,-0.061035
8097828333,0.00205994,0.00245667,-1.00555420,0.366211,0.061035,-0.122070
8102845166,0.00167847,0.00210571,-1.00674438,0.244141,-0.061035,0.000000
8107848541,0.00181580,0.00199890,-1.00709534,0.244141,0.244141,-0.122070
8112818416,0.00215149,0.00221252,-1.00643921,0.366211,0.183105,-0.122070
8117839416,0.00195312,0.00244141,-1.00579834,0.427246,-0.061035,-0.244141
8122825166,0.00161743,0.00248718,-1.00582886,0.366211,0.061035,-0.061035
8127824458,0.00190735,0.00250244,-1.00601196,0.183105,0.061035,-0.122070
8132866500,0.00260925,0.00254822,-1.00610352,0.244141,0.061035,0.000000
8137837791,0.00291443,0.00253296,-1.00599670,0.305176,0.122070,0.000000
8142845875,0.00270081,0.00274658,-1.00578308,0.122070,0.000000,-0.061035
8147852458,0.00256348,0.00334167,-1.00604248,0.183105,0.061035,-0.122070
8152841416,0.00276184,0.00367737,-1.00656128,0.183105,0.000000,-0.061035
8157827500,0.00291443,0.00350952,-1.00662231,0.305176,0.061035,-0.061035
8162828958,0.00267029,0.00334167,-1.00640869,0.244141,0.122070,-0.122070
8167817500,0.00195312,0.00335693,-1.00617981,0.244141,0.061035,-0.061035
8172837583,0.00134277,0.00338745,-1.00605774,0.244141,0.122070,0.061035
8177825166,0.00157166,0.00312805,-1.00630188,0.427246,0.061035,-0.061035
8182896625,0.00224304,0.00253296,-1.00662231,0.244141,0.061035,-0.122070
8187841958,0.00273132,0.00222778,-1.00653076,0.244141,0.122070,0.061035
