timestamp_ns,accel_x,accel_y,accel_z,gyro_x,gyro_y,gyro_z
82206250,0.00152588,0.00369263,-1.00540161,0.427246,0.061035,-0.061035
91695041,0.00071716,0.00349426,-1.00541687,0.427246,0.122070,0.000000
92207333,0.00006104,0.00338745,-1.00544739,0.427246,0.061035,-0.122070
97625166,-0.00041199,0.00337219,-1.00558472,0.305176,-0.061035,-0.244141
102219166,-0.00038147,0.00335693,-1.00582886,0.488281,0.122070,-0.122070
108603166,0.00000000,0.00309753,-1.00614929,0.427246,0.122070,-0.122070
113502458,-0.00012207,0.00265503,-1.00616455,0.427246,0.000000,0.000000
117555916,-0.00070190,0.00231934,-1.00569153,0.366211,-0.122070,-0.122070
122535666,-0.00102234,0.00251770,-1.00509644,0.427246,0.244141,-0.061035
127879916,-0.00065613,0.00300598,-1.00482178,0.366211,0.061035,0.000000
134768250,0.00050354,0.00325012,-1.00480652,0.427246,0.000000,-0.122070
144803208,0.00189209,0.00350952,-1.00476074,0.122070,0.122070,0.000000
145003000,0.00260925,0.00373840,-1.00488281,0.244141,0.061035,-0.122070
153468916,0.00285339,0.00363159,-1.00541687,0.244141,0.061035,-0.061035
155851875,0.00331116,0.00343323,-1.00575256,0.183105,-0.061035,-0.122070
203043833,0.00396729,0.00335693,-1.00561523,0.366211,-0.061035,0.000000
205782041,0.00419617,0.00343323,-1.00558472,0.366211,0.122070,-0.061035
205786958,0.00378418,0.00350952,-1.00595093,0.427246,0.122070,-0.122070
205790166,0.00331116,0.00328064,-1.00613403,0.244141,0.000000,-0.183105
205793041,0.00360107,0.00291443,-1.00582886,0.366211,0.061035,-0.061035
205795833,0.00416565,0.00280762,-1.00555420,0.244141,0.061035,-0.061035
205799708,0.00355530,0.00273132,-1.00575256,0.305176,0.000000,-0.061035
205801916,0.00209045,0.00245667,-1.00572205,0.366211,0.122070,0.000000
205803958,0.00088501,0.00228882,-1.00508118,0.366211,0.061035,0.000000
205805875,0.00022888,0.00234985,-1.00453186,0.305176,0.061035,-0.122070
207234958,-0.00019836,0.00244141,-1.00480652,0.305176,0.061035,-0.061035
212296250,-0.00054932,0.00250244,-1.00556946,0.427246,0.000000,0.000000
217224083,-0.00070190,0.00276184,-1.00556946,0.366211,0.000000,0.000000
222349041,-0.00042725,0.00332642,-1.00508118,0.488281,0.000000,-0.061035
227541250,-0.00013733,0.00427246,-1.00506592,0.427246,0.061035,-0.122070
233501583,-0.00033569,0.00531006,-1.00540161,0.305176,0.122070,-0.061035
237955958,-0.00077820,0.00601196,-1.00569153,0.366211,0.061035,-0.122070
242614958,-0.00076294,0.00621033,-1.00569153,0.366211,0.061035,0.000000
247225041,-0.00001526,0.00610352,-1.00547791,0.305176,0.061035,0.000000
252234291,0.00090027,0.00608826,-1.00535583,0.244141,0.061035,-0.122070
257232583,0.00170898,0.00587463,-1.00520325,0.305176,-0.122070,-0.122070
262224125,0.00256348,0.00503540,-1.00503540,0.366211,-0.061035,-0.122070
267230875,0.00341797,0.00379944,-1.00549316,0.305176,0.061035,-0.122070
272223791,0.00405884,0.00265503,-1.00634766,0.427246,0.000000,-0.061035
277273416,0.00431824,0.00170898,-1.00656128,0.427246,0.122070,-0.122070
282234833,0.00415039,0.00096130,-1.00613403,0.183105,0.000000,-0.122070
287227791,0.00369263,0.00032043,-1.00576782,0.244141,0.183105,-0.061035
292274291,0.00320435,-0.00033569,-1.00556946,0.427246,0.061035,-0.183105
297266250,0.00289917,-0.00056458,-1.00561523,0.183105,0.122070,-0.061035
302242833,0.00268555,0.00027466,-1.00598145,0.427246,0.000000,-0.122070
307311625,0.00222778,0.00173950,-1.00608826,0.366211,0.122070,-0.061035
312272583,0.00146484,0.00254822,-1.00569153,0.183105,0.000000,-0.122070
317271833,0.00048828,0.00248718,-1.00527954,0.366211,0.000000,-0.244141
322270916,-0.00030518,0.00262451,-1.00526428,0.305176,0.122070,-0.122070
327270041,-0.00047302,0.00384521,-1.00593567,0.366211,0.061035,-0.061035
332264083,-0.00047302,0.00581360,-1.00656128,0.305176,0.061035,-0.061035
337287333,-0.00064087,0.00743103,-1.00630188,0.244141,0.000000,-0.061035
342266208,-0.00056458,0.00827026,-1.00585938,0.366211,0.061035,-0.061035
347263250,-0.00016785,0.00860596,-1.00592041,0.305176,0.061035,-0.061035
352269625,0.00024414,0.00845337,-1.00570679,0.366211,0.061035,-0.122070
357262166,0.00048828,0.00752258,-1.00506592,0.427246,0.122070,0.000000
362269333,0.00064087,0.00588989,-1.00463867,0.305176,0.122070,-0.122070
367269791,0.00102234,0.00437927,-1.00471497,0.427246,0.061035,0.000000
372281833,0.00161743,0.00349426,-1.00549316,0.183105,0.122070,0.000000
377272125,0.00205994,0.00302124,-1.00628662,0.549316,0.061035,-0.061035
382283000,0.00231934,0.00244141,-1.00614929,0.488281,0.122070,-0.122070
387282875,0.00271606,0.00140381,-1.00549316,0.427246,0.000000,0.000000
392272791,0.00315857,0.00045776,-1.00468445,0.610352,0.061035,0.000000
397276583,0.00323486,0.00030518,-1.00382996,0.427246,0.000000,-0.122070
402263208,0.00323486,0.00048828,-1.00381470,0.366211,0.061035,0.000000
407273916,0.00369263,0.00082397,-1.00421143,0.488281,-0.061035,-0.122070
412355875,0.00431824,0.00178528,-1.00444031,0.183105,0.061035,-0.061035
417320916,0.00407410,0.00299072,-1.00486755,0.366211,0.183105,-0.183105
422313708,0.00250244,0.00360107,-1.00535583,0.427246,0.183105,-0.061035
427283041,0.00056458,0.00379944,-1.00575256,0.305176,0.061035,-0.122070
432286833,-0.00062561,0.00421143,-1.00630188,0.305176,0.183105,-0.061035
437283333,-0.00135803,0.00488281,-1.00631714,0.366211,0.122070,0.000000
442271791,-0.00218201,0.00556946,-1.00543213,0.549316,0.061035,0.061035
447277541,-0.00265503,0.00611877,-1.00465393,0.244141,0.122070,-0.061035
452264791,-0.00213623,0.00619507,-1.00448608,0.244141,0.122070,-0.061035
457261416,-0.00097656,0.00541687,-1.00463867,0.305176,0.122070,-0.061035
462267541,-0.00001526,0.00415039,-1.00514221,0.366211,0.061035,-0.244141
467341708,0.00048828,0.00317383,-1.00628662,0.305176,0.061035,-0.061035
472325208,0.00100708,0.00262451,-1.00686646,0.244141,-0.122070,-0.183105
477332291,0.00189209,0.00189209,-1.00598145,0.244141,-0.061035,-0.183105
482297750,0.00302124,0.00071716,-1.00529480,0.183105,0.000000,-0.122070
487310875,0.00395203,-0.00035095,-1.00497437,0.366211,0.061035,-0.061035
492294333,0.00439453,-0.00096130,-1.00469971,0.305176,0.061035,0.000000
497290000,0.00415039,-0.00126648,-1.00559998,0.183105,0.000000,-0.183105
502285041,0.00344849,-0.00163269,-1.00671387,0.366211,0.061035,-0.061035
507294291,0.00288391,-0.00177002,-1.00653076,0.305176,0.061035,-0.122070
512283833,0.00257874,-0.00119019,-1.00610352,0.244141,0.000000,0.000000
517290750,0.00198364,0.00016785,-1.00617981,0.305176,0.000000,-0.061035
522302208,0.00119019,0.00221252,-1.00611877,0.366211,0.061035,-0.122070
527303916,0.00061035,0.00482178,-1.00621033,0.488281,0.122070,-0.183105
532319833,0.00039673,0.00778198,-1.00610352,0.244141,0.000000,-0.061035
537331250,0.00032043,0.01042175,-1.00534058,0.244141,0.122070,-0.122070
542351500,0.00000000,0.01200867,-1.00477600,0.427246,0.061035,-0.061035
547295375,-0.00067139,0.01251221,-1.00500488,0.366211,0.061035,-0.183105
552297208,-0.00126648,0.01226807,-1.00538635,0.427246,0.122070,-0.061035
557286458,-0.00141907,0.01144409,-1.00540161,0.244141,0.061035,0.122070
562302875,-0.00091553,0.01019287,-1.00505066,0.305176,0.122070,-0.122070
567298833,0.00012207,0.00863647,-1.00463867,0.427246,0.000000,-0.183105
572313041,0.00093079,0.00650024,-1.00462341,0.427246,0.000000,-0.122070
577298250,0.00117493,0.00395203,-1.00503540,0.244141,0.000000,-0.122070
582305208,0.00158691,0.00172424,-1.00514221,0.366211,-0.122070,0.000000
587309875,0.00233459,0.00022888,-1.00483704,0.427246,0.061035,-0.061035
592333958,0.00306702,-0.00070190,-1.00495911,0.427246,0.000000,-0.061035
597281625,0.00375366,-0.00149536,-1.00534058,0.427246,0.122070,-0.122070
602322666,0.00427246,-0.00198364,-1.00527954,0.488281,0.122070,-0.061035
607309916,0.00433350,-0.00213623,-1.00491333,0.305176,0.122070,0.000000
612301708,0.00372314,-0.00201416,-1.00462341,0.305176,0.061035,-0.061035
617295333,0.00248718,-0.00138855,-1.00477600,0.305176,0.061035,0.000000
622314625,0.00117493,-0.00007629,-1.00546265,0.305176,0.061035,-0.122070
627301875,0.00039673,0.00117493,-1.00621033,0.244141,0.183105,-0.122070
632299916,0.00010681,0.00198364,-1.00663757,0.305176,0.122070,-0.061035
637311791,-0.00019836,0.00306702,-1.00683594,0.305176,0.122070,0.000000
642285458,-0.00085449,0.00474548,-1.00630188,0.366211,0.061035,-0.122070
647318750,-0.00132751,0.00656128,-1.00529480,0.366211,0.000000,-0.122070
652336083,-0.00068665,0.00820923,-1.00494385,0.427246,0.061035,-0.183105
657335041,0.00115967,0.00929260,-1.00535583,0.427246,0.000000,-0.061035
662337875,0.00305176,0.00949097,-1.00555420,0.305176,0.122070,-0.122070
667315541,0.00395203,0.00900269,-1.00547791,0.427246,0.122070,-0.061035
672314916,0.00395203,0.00813293,-1.00555420,0.366211,0.061035,-0.305176
677300875,0.00375366,0.00692749,-1.00541687,0.549316,0.000000,0.000000
682299250,0.00398254,0.00552368,-1.00514221,0.488281,0.000000,-0.061035
687325541,0.00476074,0.00395203,-1.00521851,0.427246,0.183105,-0.061035
692308666,0.00518799,0.00183105,-1.00569153,0.366211,0.061035,0.000000
697326916,0.00440979,-0.00086975,-1.00605774,0.427246,0.061035,-0.061035
702314375,0.00297546,-0.00289917,-1.00585938,0.427246,0.061035,-0.122070
707302333,0.00189209,-0.00291443,-1.00556946,0.244141,0.061035,-0.061035
712351541,0.00108337,-0.00157166,-1.00601196,0.366211,0.122070,-0.122070
717315541,0.00059509,0.00000000,-1.00669861,0.366211,0.000000,-0.061035
722343708,0.00042725,0.00160217,-1.00598145,0.305176,0.122070,-0.061035
727319750,0.00004578,0.00311279,-1.00448608,0.488281,0.122070,-0.061035
732585625,-0.00067139,0.00421143,-1.00433350,0.305176,0.122070,-0.061035
737349208,-0.00126648,0.00523376,-1.00537109,0.366211,0.122070,-0.061035
742321916,-0.00131226,0.00636292,-1.00587463,0.366211,0.122070,-0.122070
747328458,-0.00085449,0.00685120,-1.00563049,0.488281,0.061035,0.000000
752326208,-0.00028992,0.00613403,-1.00553894,0.427246,0.122070,0.000000
757304458,0.00012207,0.00489807,-1.00599670,0.427246,0.000000,-0.183105
762317750,0.00053406,0.00375366,-1.00648499,0.366211,0.122070,-0.061035
767334375,0.00091553,0.00280762,-1.00624084,0.305176,0.061035,-0.061035
772306791,0.00129700,0.00245667,-1.00480652,0.305176,0.000000,-0.061035
777300333,0.00201416,0.00289917,-1.00405884,0.366211,0.183105,-0.061035
782311875,0.00274658,0.00370789,-1.00498962,0.366211,0.122070,-0.183105
787329458,0.00314331,0.00436401,-1.00573730,0.305176,0.122070,0.000000
792320666,0.00332642,0.00474548,-1.00553894,0.244141,0.061035,-0.122070
797329458,0.00341797,0.00489807,-1.00544739,0.305176,-0.122070,0.000000
802340125,0.00343323,0.00491333,-1.00559998,0.488281,0.061035,0.000000
807309250,0.00335693,0.00488281,-1.00549316,0.488281,0.122070,0.000000
812294833,0.00302124,0.00486755,-1.00477600,0.549316,-0.122070,-0.061035
817297083,0.00230408,0.00483704,-1.00392151,0.305176,0.122070,-0.122070
822350958,0.00152588,0.00451660,-1.00442505,0.305176,-0.122070,-0.061035
827382041,0.00096130,0.00367737,-1.00518799,0.366211,0.061035,0.000000
832370833,0.00062561,0.00277710,-1.00607300,0.366211,0.000000,0.000000
837350708,0.00065613,0.00244141,-1.00828552,0.122070,0.061035,-0.244141
842323375,0.00108337,0.00285339,-1.00833130,0.183105,0.122070,-0.061035
847369458,0.00146484,0.00366211,-1.00624084,0.122070,0.061035,0.061035
852348750,0.00151062,0.00430298,-1.00610352,0.061035,0.000000,-0.122070
857320041,0.00129700,0.00448608,-1.00645447,0.305176,0.000000,0.000000
862309875,0.00120544,0.00439453,-1.00570679,0.122070,0.122070,-0.122070
867342583,0.00135803,0.00387573,-1.00549316,0.122070,0.000000,0.000000
872320500,0.00149536,0.00279236,-1.00489807,0.183105,0.061035,0.000000
877298083,0.00173950,0.00167847,-1.00431824,0.244141,0.061035,-0.061035
882316375,0.00205994,0.00100708,-1.00540161,0.244141,0.000000,-0.183105
887320208,0.00210571,0.00079346,-1.00585938,0.366211,-0.061035,0.000000
892326750,0.00198364,0.00057983,-1.00491333,0.366211,0.061035,0.000000
897335583,0.00212097,0.00036621,-1.00495911,0.305176,-0.061035,0.000000
902364375,0.00233459,0.00076294,-1.00553894,0.427246,0.000000,-0.061035
907348250,0.00242615,0.00195312,-1.00518799,0.305176,-0.061035,-0.183105
912333458,0.00225830,0.00335693,-1.00466919,0.305176,0.061035,-0.061035
917346208,0.00209045,0.00473022,-1.00488281,0.305176,0.122070,0.000000
922348791,0.00219727,0.00610352,-1.00595093,0.427246,0.122070,-0.122070
927357500,0.00212097,0.00700378,-1.00708008,0.427246,0.000000,-0.061035
932363291,0.00170898,0.00721741,-1.00683594,0.305176,0.000000,0.000000
937363166,0.00141907,0.00708008,-1.00544739,0.427246,0.000000,-0.061035
942372500,0.00132751,0.00660706,-1.00424194,0.244141,0.122070,-0.061035
947366250,0.00128174,0.00588989,-1.00427246,0.183105,0.061035,-0.122070
952336125,0.00134277,0.00537109,-1.00527954,0.366211,-0.061035,-0.122070
957349416,0.00161743,0.00506592,-1.00613403,0.305176,0.061035,0.000000
962340458,0.00177002,0.00468445,-1.00622559,0.427246,0.061035,0.061035
967380000,0.00166321,0.00433350,-1.00573730,0.366211,0.122070,-0.183105
972327333,0.00169373,0.00389099,-1.00550842,0.305176,0.122070,-0.183105
977321833,0.00173950,0.00296021,-1.00588989,0.244141,0.061035,-0.122070
982327208,0.00157166,0.00175476,-1.00617981,0.244141,0.061035,-0.061035
987356833,0.00125122,0.00076294,-1.00573730,0.427246,0.061035,-0.061035
992343083,0.00099182,0.00045776,-1.00523376,0.305176,0.000000,-0.183105
997348875,0.00097656,0.00077820,-1.00515747,0.244141,0.061035,-0.244141
1002369958,0.00106812,0.00093079,-1.00494385,0.305176,0.122070,-0.061035
1007343875,0.00103760,0.00062561,-1.00469971,0.305176,0.061035,-0.122070
1012343708,0.00097656,0.00074768,-1.00483704,0.427246,0.122070,0.000000
1017505500,0.00094604,0.00167847,-1.00498962,0.305176,-0.061035,0.061035
1022373750,0.00102234,0.00286865,-1.00505066,0.244141,0.000000,-0.061035
1027391583,0.00134277,0.00395203,-1.00512695,0.488281,0.061035,-0.122070
1032340291,0.00138855,0.00489807,-1.00512695,0.305176,-0.061035,-0.183105
1037398958,0.00065613,0.00570679,-1.00529480,0.305176,0.061035,-0.061035
1042388500,0.00004578,0.00666809,-1.00570679,0.427246,0.122070,-0.061035
1047380666,0.00001526,0.00761414,-1.00617981,0.366211,0.061035,-0.061035
1052369333,-0.00009155,0.00819397,-1.00668335,0.305176,0.061035,-0.061035
1057379708,-0.00032043,0.00823975,-1.00688171,0.305176,0.061035,-0.122070
1062381458,-0.00010681,0.00762939,-1.00642395,0.305176,0.122070,-0.122070
1067368083,0.00047302,0.00643921,-1.00564575,0.305176,0.000000,-0.183105
1072389041,0.00064087,0.00492859,-1.00502014,0.305176,0.000000,-0.183105
1077372166,0.00036621,0.00350952,-1.00485229,0.366211,0.061035,0.000000
1082369000,0.00073242,0.00213623,-1.00526428,0.366211,0.061035,0.000000
1087398000,0.00202942,0.00085449,-1.00572205,0.305176,0.000000,0.000000
1092351708,0.00321960,-0.00001526,-1.00535583,0.427246,0.122070,0.061035
1097535791,0.00326538,-0.00065613,-1.00506592,0.366211,0.183105,0.000000
1102400375,0.00247192,-0.00080872,-1.00553894,0.366211,-0.061035,-0.305176
1107362916,0.00222778,-0.00016785,-1.00572205,0.427246,0.000000,-0.122070
1112380375,0.00294495,0.00109863,-1.00497437,0.305176,0.061035,-0.061035
1117358125,0.00325012,0.00231934,-1.00431824,0.244141,0.122070,-0.244141
1122390500,0.00221252,0.00291443,-1.00479126,0.366211,0.122070,-0.122070
1127396916,0.00083923,0.00329590,-1.00563049,0.366211,0.122070,0.000000
1132365583,0.00025940,0.00402832,-1.00570679,0.366211,0.061035,-0.061035
1137417208,0.00039673,0.00509644,-1.00556946,0.427246,0.122070,0.000000
1142371250,0.00068665,0.00593567,-1.00593567,0.366211,-0.061035,0.000000
1147362500,0.00050354,0.00608826,-1.00616455,0.427246,0.122070,-0.061035
1152359958,0.00000000,0.00596619,-1.00567627,0.549316,0.183105,-0.061035
1157351833,-0.00019836,0.00604248,-1.00503540,0.549316,0.122070,-0.061035
1162381291,-0.00003052,0.00596619,-1.00497437,0.366211,0.000000,0.000000
1167392916,0.00050354,0.00529480,-1.00564575,0.366211,-0.061035,-0.122070
1172395833,0.00117493,0.00439453,-1.00630188,0.366211,0.183105,-0.183105
1177383750,0.00154114,0.00393677,-1.00616455,0.427246,0.122070,0.000000
1182367958,0.00154114,0.00355530,-1.00540161,0.305176,0.061035,-0.061035
1187373250,0.00152588,0.00251770,-1.00491333,0.305176,-0.061035,-0.122070
1192391625,0.00193787,0.00131226,-1.00524902,0.366211,0.183105,-0.061035
1197369333,0.00257874,0.00077820,-1.00585938,0.305176,0.000000,-0.183105
1202403666,0.00262451,0.00071716,-1.00596619,0.244141,-0.061035,-0.061035
1207413416,0.00204468,0.00044250,-1.00573730,0.366211,-0.061035,-0.122070
1212383583,0.00167847,0.00006104,-1.00531006,0.488281,0.061035,-0.122070
1217396333,0.00186157,0.00004578,-1.00500488,0.366211,0.122070,-0.122070
1222362916,0.00190735,0.00061035,-1.00527954,0.366211,0.061035,-0.061035
1227360916,0.00154114,0.00160217,-1.00581360,0.305176,0.000000,0.000000
1232399416,0.00109863,0.00282288,-1.00592041,0.183105,0.061035,-0.061035
1237390791,0.00103760,0.00411987,-1.00598145,0.366211,0.183105,-0.061035
1242411958,0.00109863,0.00491333,-1.00621033,0.427246,0.061035,-0.061035
1247379583,0.00067139,0.00503540,-1.00625610,0.610352,0.061035,-0.061035
1252384833,-0.00003052,0.00494385,-1.00585938,0.366211,0.000000,-0.122070
1257376291,-0.00021362,0.00509644,-1.00537109,0.366211,0.000000,-0.061035
1262382000,0.00030518,0.00552368,-1.00508118,0.366211,0.000000,-0.061035
1267384291,0.00070190,0.00556946,-1.00517273,0.305176,0.061035,-0.122070
1272411000,0.00083923,0.00500488,-1.00552368,0.366211,0.061035,-0.183105
1277363458,0.00135803,0.00424194,-1.00561523,0.366211,0.000000,-0.061035
1282410000,0.00219727,0.00347900,-1.00512695,0.366211,0.000000,0.061035
1287407041,0.00302124,0.00296021,-1.00495911,0.427246,0.061035,-0.122070
1292407541,0.00346375,0.00282288,-1.00543213,0.366211,0.000000,0.061035
1297377083,0.00352478,0.00276184,-1.00564575,0.366211,0.061035,0.000000
1302411291,0.00318909,0.00234985,-1.00543213,0.122070,0.061035,-0.061035
1307477583,0.00230408,0.00161743,-1.00559998,0.427246,-0.061035,-0.061035
1312406250,0.00160217,0.00093079,-1.00607300,0.549316,0.122070,-0.061035
1317483375,0.00158691,0.00085449,-1.00607300,0.427246,0.000000,0.000000
1322400500,0.00140381,0.00148010,-1.00593567,0.366211,0.061035,-0.122070
1327389583,0.00059509,0.00250244,-1.00625610,0.427246,0.000000,-0.122070
1332376416,0.00000000,0.00334167,-1.00617981,0.305176,0.000000,-0.061035
1337420833,0.00004578,0.00370789,-1.00526428,0.305176,0.061035,-0.061035
1342370208,0.00016785,0.00386047,-1.00460815,0.366211,0.061035,-0.061035
1347377500,0.00001526,0.00407410,-1.00491333,0.427246,0.061035,-0.122070
1352416708,-0.00032043,0.00442505,-1.00570679,0.305176,0.061035,0.000000
1357372791,-0.00068665,0.00439453,-1.00653076,0.427246,0.000000,0.000000
1362380125,-0.00044250,0.00396729,-1.00695801,0.244141,0.244141,-0.183105
1367404458,0.00054932,0.00384521,-1.00698853,0.366211,0.122070,-0.061035
1372420625,0.00141907,0.00413513,-1.00659180,0.366211,0.061035,-0.183105
1377427500,0.00164795,0.00418091,-1.00576782,0.305176,0.122070,-0.061035
1382402166,0.00175476,0.00355530,-1.00531006,0.305176,0.183105,0.000000
1387413250,0.00213623,0.00260925,-1.00569153,0.427246,-0.061035,-0.122070
1392421458,0.00231934,0.00169373,-1.00602722,0.427246,0.061035,-0.183105
1397381333,0.00221252,0.00131226,-1.00559998,0.427246,0.061035,0.122070
1402389125,0.00230408,0.00177002,-1.00523376,0.305176,0.122070,0.000000
1407394958,0.00263977,0.00280762,-1.00573730,0.366211,0.122070,-0.122070
1412399708,0.00274658,0.00372314,-1.00625610,0.244141,0.122070,-0.061035
1417420375,0.00265503,0.00392151,-1.00599670,0.305176,0.061035,-0.061035
1422420166,0.00288391,0.00378418,-1.00546265,0.244141,-0.061035,-0.061035
1427451041,0.00340271,0.00401306,-1.00509644,0.366211,0.061035,-0.061035
1432398541,0.00355530,0.00434875,-1.00479126,0.427246,0.061035,0.061035
1437453458,0.00296021,0.00440979,-1.00506592,0.366211,0.061035,-0.183105
1442399541,0.00199890,0.00424194,-1.00590515,0.427246,0.061035,0.000000
1447403000,0.00146484,0.00415039,-1.00634766,0.183105,0.000000,-0.183105
1452446125,0.00120544,0.00416565,-1.00607300,0.244141,-0.061035,-0.183105
1457426708,0.00048828,0.00425720,-1.00578308,0.488281,0.122070,-0.122070
1462388000,-0.00022888,0.00408936,-1.00579834,0.488281,0.122070,-0.061035
1467389250,-0.00012207,0.00344849,-1.00587463,0.183105,0.000000,-0.061035
1472334125,0.00059509,0.00254822,-1.00579834,0.183105,0.061035,-0.061035
1477451250,0.00129700,0.00167847,-1.00559998,0.305176,0.122070,-0.122070
1482398208,0.00186157,0.00146484,-1.00572205,0.366211,0.122070,-0.061035
1487431666,0.00230408,0.00210571,-1.00634766,0.244141,0.122070,-0.122070
1492434250,0.00238037,0.00283813,-1.00663757,0.244141,0.122070,-0.183105
1497396791,0.00236511,0.00297546,-1.00630188,0.427246,0.000000,-0.061035
1502446583,0.00244141,0.00268555,-1.00616455,0.427246,0.061035,-0.061035
1507433541,0.00233459,0.00260925,-1.00645447,0.366211,0.122070,-0.061035
1512424000,0.00227356,0.00280762,-1.00616455,0.183105,0.061035,0.000000
1517447750,0.00234985,0.00296021,-1.00517273,0.366211,0.061035,0.000000
1522431750,0.00218201,0.00299072,-1.00477600,0.244141,-0.061035,-0.061035
1527448666,0.00195312,0.00325012,-1.00527954,0.244141,0.000000,-0.183105
1532444458,0.00189209,0.00392151,-1.00581360,0.366211,0.000000,-0.183105
1537407541,0.00187683,0.00465393,-1.00613403,0.305176,0.244141,-0.061035
1542443958,0.00183105,0.00495911,-1.00659180,0.305176,0.122070,-0.122070
1547400416,0.00189209,0.00494385,-1.00630188,0.305176,0.061035,-0.122070
1552437166,0.00212097,0.00495911,-1.00534058,0.305176,0.122070,0.061035
1557442041,0.00219727,0.00512695,-1.00509644,0.305176,0.122070,-0.061035
1562440041,0.00183105,0.00497437,-1.00540161,0.366211,0.000000,-0.061035
1567410750,0.00135803,0.00430298,-1.00558472,0.183105,0.122070,0.000000
1572557916,0.00096130,0.00357056,-1.00599670,0.244141,0.061035,-0.122070
1577458208,0.00067139,0.00325012,-1.00646973,0.244141,0.061035,-0.061035
1582450083,0.00083923,0.00285339,-1.00607300,0.183105,0.061035,0.000000
1587438583,0.00119019,0.00183105,-1.00532532,0.244141,0.000000,-0.122070
1592452458,0.00112915,0.00076294,-1.00492859,0.305176,0.000000,-0.122070
1597407125,0.00119019,0.00062561,-1.00473022,0.244141,0.183105,-0.061035
1602427291,0.00209045,0.00148010,-1.00479126,0.305176,0.061035,-0.061035
1607446875,0.00311279,0.00244141,-1.00534058,0.244141,0.000000,-0.061035
1612421125,0.00332642,0.00296021,-1.00624084,0.427246,0.061035,-0.122070
1617432166,0.00306702,0.00329590,-1.00671387,0.366211,0.061035,-0.183105
1622407041,0.00297546,0.00407410,-1.00657654,0.305176,0.000000,0.000000
1627455666,0.00288391,0.00497437,-1.00605774,0.427246,0.000000,-0.061035
1632448541,0.00256348,0.00532532,-1.00546265,0.366211,0.122070,0.000000
1637415041,0.00192261,0.00534058,-1.00538635,0.366211,0.061035,-0.061035
1642447250,0.00103760,0.00514221,-1.00550842,0.305176,0.061035,-0.061035
1647414125,0.00044250,0.00456238,-1.00546265,0.305176,0.122070,-0.183105
1652461833,0.00048828,0.00387573,-1.00538635,0.244141,0.061035,-0.122070
1657452125,0.00065613,0.00366211,-1.00527954,0.366211,0.000000,0.061035
1662452208,0.00094604,0.00404358,-1.00514221,0.366211,0.061035,-0.183105
1667475333,0.00123596,0.00450134,-1.00549316,0.366211,0.000000,-0.183105
1672434833,0.00125122,0.00428772,-1.00611877,0.305176,0.061035,-0.244141
1677434708,0.00146484,0.00349426,-1.00587463,0.488281,0.061035,-0.061035
1682404041,0.00201416,0.00308228,-1.00494385,0.427246,0.122070,-0.122070
1687402083,0.00224304,0.00303650,-1.00459290,0.366211,0.000000,0.000000
1692404541,0.00189209,0.00280762,-1.00503540,0.305176,0.000000,-0.122070
1697406041,0.00144958,0.00205994,-1.00544739,0.366211,0.183105,-0.122070
1702408416,0.00151062,0.00097656,-1.00549316,0.305176,-0.061035,-0.061035
1707404416,0.00202942,0.00050354,-1.00549316,0.305176,0.000000,-0.061035
1712396166,0.00216675,0.00112915,-1.00572205,0.427246,0.000000,0.000000
1717420000,0.00173950,0.00198364,-1.00584412,0.305176,0.061035,-0.183105
1722434583,0.00122070,0.00257874,-1.00544739,0.366211,0.061035,-0.122070
1727430041,0.00108337,0.00288391,-1.00483704,0.427246,-0.061035,0.000000
1732431166,0.00149536,0.00300598,-1.00480652,0.305176,-0.061035,-0.061035
1737409500,0.00177002,0.00326538,-1.00559998,0.488281,0.061035,0.000000
1742424625,0.00143433,0.00387573,-1.00596619,0.549316,0.000000,-0.122070
1747422750,0.00088501,0.00428772,-1.00508118,0.488281,-0.061035,-0.122070
1752447208,0.00061035,0.00425720,-1.00399780,0.244141,0.122070,0.000000
1757417000,0.00073242,0.00419617,-1.00390625,0.366211,0.122070,-0.061035
1762437958,0.00062561,0.00398254,-1.00450134,0.305176,0.122070,-0.061035
1767439208,0.00050354,0.00343323,-1.00509644,0.366211,0.061035,-0.183105
1772430541,0.00129700,0.00294495,-1.00582886,0.244141,-0.061035,-0.122070
1777429708,0.00248718,0.00268555,-1.00654602,0.244141,0.122070,-0.122070
1782467750,0.00289917,0.00280762,-1.00651550,0.305176,0.183105,-0.122070
1787443708,0.00268555,0.00326538,-1.00582886,0.366211,0.061035,0.000000
1792429875,0.00270081,0.00386047,-1.00546265,0.427246,0.244141,-0.061035
1797429166,0.00302124,0.00431824,-1.00553894,0.366211,0.122070,0.000000
1802448416,0.00349426,0.00450134,-1.00527954,0.366211,0.061035,-0.061035
1807482000,0.00395203,0.00469971,-1.00465393,0.305176,0.061035,-0.122070
1812456666,0.00393677,0.00494385,-1.00450134,0.488281,0.000000,-0.061035
1817427958,0.00338745,0.00476074,-1.00546265,0.427246,0.000000,-0.061035
1822482250,0.00251770,0.00436401,-1.00637817,0.305176,-0.061035,-0.061035
1827435416,0.00186157,0.00395203,-1.00598145,0.488281,0.122070,0.000000
1832501458,0.00134277,0.00354004,-1.00526428,0.427246,0.122070,-0.122070
1837464791,0.00054932,0.00317383,-1.00547791,0.244141,0.122070,0.000000
1842452708,-0.00041199,0.00262451,-1.00625610,0.427246,0.122070,-0.122070
1847451875,-0.00111389,0.00196838,-1.00639343,0.305176,0.183105,-0.122070
1852424416,-0.00114441,0.00149536,-1.00579834,0.305176,0.000000,-0.061035
1857434375,-0.00036621,0.00128174,-1.00544739,0.366211,0.061035,-0.183105
1862443916,0.00044250,0.00146484,-1.00534058,0.427246,0.122070,0.000000
1867436500,0.00022888,0.00196838,-1.00524902,0.366211,0.122070,0.000000
1872466333,-0.00039673,0.00244141,-1.00523376,0.305176,-0.061035,-0.122070
1877439541,0.00003052,0.00277710,-1.00502014,0.366211,0.122070,-0.061035
1882441291,0.00144958,0.00294495,-1.00489807,0.427246,0.183105,-0.061035
1887438041,0.00250244,0.00296021,-1.00529480,0.305176,0.061035,-0.061035
1892461625,0.00285339,0.00292969,-1.00543213,0.427246,0.122070,-0.061035
1897444125,0.00311279,0.00297546,-1.00492859,0.427246,-0.061035,-0.061035
1902456500,0.00314331,0.00334167,-1.00447083,0.366211,0.122070,-0.122070
1907447083,0.00256348,0.00396729,-1.00469971,0.366211,0.122070,-0.122070
1912447291,0.00181580,0.00462341,-1.00556946,0.305176,0.000000,0.000000
1917430833,0.00178528,0.00492859,-1.00639343,0.305176,0.183105,0.061035
1922447166,0.00236511,0.00480652,-1.00616455,0.305176,0.000000,-0.183105
1927446625,0.00257874,0.00448608,-1.00546265,0.305176,0.122070,-0.061035
1932457500,0.00213623,0.00434875,-1.00566101,0.305176,0.061035,-0.061035
1937474750,0.00158691,0.00439453,-1.00636292,0.305176,0.122070,-0.122070
1942467708,0.00137329,0.00424194,-1.00627136,0.366211,0.061035,-0.122070
1947459916,0.00140381,0.00373840,-1.00561523,0.122070,0.000000,0.000000
1952449875,0.00129700,0.00311279,-1.00526428,0.122070,0.000000,-0.061035
1957437208,0.00073242,0.00238037,-1.00531006,0.366211,0.061035,-0.061035
1962445208,0.00009155,0.00172424,-1.00543213,0.366211,0.122070,-0.061035
1967482583,-0.00006104,0.00140381,-1.00538635,0.366211,-0.061035,0.000000
1972476833,0.00019836,0.00141907,-1.00527954,0.366211,0.183105,-0.061035
1977457125,0.00050354,0.00166321,-1.00550842,0.366211,0.000000,0.000000
1982520416,0.00076294,0.00204468,-1.00578308,0.366211,0.000000,0.061035
1987461041,0.00119019,0.00244141,-1.00559998,0.488281,0.122070,0.061035
1992452166,0.00181580,0.00294495,-1.00531006,0.488281,0.061035,-0.122070
1997459666,0.00209045,0.00363159,-1.00541687,0.244141,0.061035,-0.061035
2002494500,0.00207520,0.00415039,-1.00547791,0.305176,0.061035,-0.183105
2007482750,0.00263977,0.00405884,-1.00535583,0.305176,0.061035,0.000000
2012464416,0.00343323,0.00373840,-1.00540161,0.427246,0.000000,-0.122070
2017475041,0.00337219,0.00401306,-1.00578308,0.366211,0.122070,-0.061035
2022464833,0.00285339,0.00425720,-1.00604248,0.366211,0.061035,0.000000
2027484125,0.00265503,0.00366211,-1.00559998,0.427246,0.061035,-0.122070
2032464750,0.00256348,0.00288391,-1.00500488,0.366211,0.122070,0.000000
2037501375,0.00218201,0.00256348,-1.00500488,0.366211,-0.061035,0.000000
2042480958,0.00164795,0.00231934,-1.00527954,0.427246,0.183105,0.000000
2047468333,0.00137329,0.00202942,-1.00503540,0.366211,0.183105,-0.061035
2052469708,0.00134277,0.00205994,-1.00451660,0.488281,0.061035,-0.122070
2057465000,0.00125122,0.00251770,-1.00469971,0.305176,0.061035,-0.061035
2062453125,0.00111389,0.00302124,-1.00558472,0.305176,0.122070,-0.122070
2067487375,0.00099182,0.00335693,-1.00648499,0.305176,0.244141,-0.122070
2072471208,0.00094604,0.00367737,-1.00685120,0.305176,0.061035,0.061035
2077460125,0.00080872,0.00370789,-1.00645447,0.244141,0.061035,-0.122070
2082473625,0.00044250,0.00332642,-1.00567627,0.366211,0.122070,0.000000
2087459000,0.00056458,0.00311279,-1.00526428,0.366211,0.061035,-0.061035
2092460208,0.00155640,0.00329590,-1.00549316,0.244141,-0.061035,-0.122070
2097482541,0.00286865,0.00363159,-1.00598145,0.366211,0.061035,-0.183105
2102477875,0.00387573,0.00387573,-1.00585938,0.427246,0.122070,-0.061035
2107464625,0.00399780,0.00395203,-1.00508118,0.244141,0.122070,0.000000
2112466000,0.00349426,0.00401306,-1.00486755,0.427246,0.122070,0.000000
2117469000,0.00349426,0.00428772,-1.00555420,0.427246,0.061035,-0.122070
2122468500,0.00396729,0.00451660,-1.00616455,0.305176,0.061035,-0.183105
2127471666,0.00392151,0.00448608,-1.00617981,0.427246,0.122070,-0.122070
2132478291,0.00328064,0.00437927,-1.00555420,0.305176,0.000000,0.000000
2137507750,0.00274658,0.00416565,-1.00503540,0.244141,0.061035,-0.061035
2142463041,0.00222778,0.00363159,-1.00511169,0.244141,0.061035,0.061035
2147475083,0.00131226,0.00297546,-1.00498962,0.244141,0.122070,-0.061035
2152460416,0.00051880,0.00241089,-1.00451660,0.305176,0.122070,-0.061035
2157461541,0.00018311,0.00202942,-1.00474548,0.305176,0.122070,0.000000
2162455916,0.00003052,0.00192261,-1.00567627,0.244141,0.122070,0.000000
2167490500,-0.00015259,0.00210571,-1.00616455,0.427246,0.244141,0.000000
2172487208,-0.00044250,0.00241089,-1.00581360,0.244141,0.122070,-0.122070
2177470250,-0.00071716,0.00274658,-1.00538635,0.305176,0.061035,0.000000
2182488250,-0.00057983,0.00334167,-1.00538635,0.244141,0.122070,-0.061035
2187493375,-0.00015259,0.00393677,-1.00569153,0.305176,0.122070,0.000000
2192507625,0.00018311,0.00408936,-1.00590515,0.305176,0.122070,0.061035
2197476916,0.00067139,0.00404358,-1.00584412,0.366211,0.061035,0.061035
2202499916,0.00126648,0.00425720,-1.00570679,0.305176,0.122070,-0.061035
2207504916,0.00175476,0.00445557,-1.00575256,0.305176,0.183105,-0.061035
2212488958,0.00247192,0.00421143,-1.00581360,0.305176,0.122070,-0.122070
2217493166,0.00355530,0.00367737,-1.00555420,0.183105,0.122070,-0.061035
2222501458,0.00421143,0.00312805,-1.00521851,0.427246,0.000000,0.000000
2227490166,0.00390625,0.00302124,-1.00547791,0.305176,0.000000,0.000000
2232500583,0.00321960,0.00343323,-1.00610352,0.122070,0.061035,-0.061035
2237489541,0.00283813,0.00376892,-1.00656128,0.305176,0.122070,-0.061035
2242483208,0.00271606,0.00346375,-1.00653076,0.305176,0.122070,0.000000
2247537833,0.00238037,0.00279236,-1.00605774,0.488281,0.061035,-0.061035
2252520458,0.00199890,0.00250244,-1.00587463,0.488281,-0.061035,-0.061035
2257496083,0.00178528,0.00280762,-1.00610352,0.305176,0.061035,-0.061035
2262496875,0.00134277,0.00326538,-1.00607300,0.305176,0.122070,-0.061035
2267500375,0.00054932,0.00347900,-1.00561523,0.427246,0.061035,0.061035
2272496958,-0.00016785,0.00341797,-1.00544739,0.244141,0.061035,-0.122070
2277513125,-0.00027466,0.00328064,-1.00585938,0.366211,0.000000,-0.061035
2282490958,0.00036621,0.00329590,-1.00611877,0.427246,0.122070,-0.122070
2287482833,0.00111389,0.00317383,-1.00616455,0.305176,0.061035,-0.122070
2292480708,0.00111389,0.00257874,-1.00630188,0.305176,0.061035,-0.122070
2297487583,0.00030518,0.00210571,-1.00599670,0.305176,0.061035,-0.183105
2302491333,0.00003052,0.00242615,-1.00521851,0.427246,-0.061035,-0.122070
2307476208,0.00099182,0.00296021,-1.00497437,0.183105,0.061035,-0.061035
2312484250,0.00207520,0.00292969,-1.00540161,0.305176,0.000000,-0.061035
2317501708,0.00256348,0.00285339,-1.00611877,0.244141,0.000000,0.000000
2322504500,0.00308228,0.00315857,-1.00651550,0.244141,0.122070,-0.122070
2327501750,0.00382996,0.00346375,-1.00637817,0.244141,0.061035,0.000000
2332493708,0.00430298,0.00366211,-1.00625610,0.244141,0.000000,-0.061035
2337492708,0.00396729,0.00369263,-1.00631714,0.549316,0.000000,0.000000
2342485833,0.00314331,0.00346375,-1.00604248,0.244141,0.183105,0.000000
2347483916,0.00274658,0.00338745,-1.00566101,0.427246,0.000000,0.000000
2352486958,0.00242615,0.00384521,-1.00579834,0.366211,0.183105,-0.122070
2357493291,0.00173950,0.00433350,-1.00601196,0.305176,0.000000,0.000000
2362485541,0.00108337,0.00434875,-1.00575256,0.366211,0.122070,0.000000
2367564125,0.00082397,0.00404358,-1.00531006,0.427246,0.122070,0.000000
2372504833,0.00053406,0.00387573,-1.00532532,0.427246,0.061035,0.000000
2377501791,-0.00032043,0.00408936,-1.00588989,0.427246,0.122070,0.000000
2382546625,-0.00115967,0.00419617,-1.00610352,0.244141,0.000000,-0.061035
2387533458,-0.00109863,0.00346375,-1.00576782,0.305176,-0.061035,0.000000
2392542375,-0.00038147,0.00224304,-1.00567627,0.183105,0.061035,-0.061035
2397499041,0.00021362,0.00175476,-1.00573730,0.366211,0.000000,-0.061035
2402516916,0.00065613,0.00230408,-1.00524902,0.305176,-0.122070,-0.061035
2407536833,0.00123596,0.00277710,-1.00468445,0.366211,0.061035,-0.183105
2412520291,0.00204468,0.00236511,-1.00465393,0.427246,0.061035,-0.061035
2417547750,0.00259399,0.00148010,-1.00488281,0.244141,0.061035,-0.122070
2422494833,0.00277710,0.00077820,-1.00515747,0.305176,0.061035,-0.061035
2427546791,0.00303650,0.00076294,-1.00537109,0.305176,0.000000,-0.061035
2432520958,0.00335693,0.00154114,-1.00555420,0.305176,0.061035,0.000000
2437548583,0.00346375,0.00253296,-1.00549316,0.305176,0.000000,0.061035
2442525333,0.00341797,0.00315857,-1.00480652,0.366211,0.000000,-0.122070
2447523541,0.00318909,0.00381470,-1.00418091,0.366211,0.122070,-0.061035
2452535333,0.00279236,0.00473022,-1.00453186,0.244141,0.122070,-0.061035
2457547750,0.00198364,0.00527954,-1.00563049,0.366211,0.061035,-0.061035
2462498791,0.00106812,0.00561523,-1.00613403,0.366211,0.000000,-0.061035
2467522541,0.00064087,0.00605774,-1.00564575,0.244141,0.000000,-0.183105
2472535166,0.00035095,0.00625610,-1.00512695,0.366211,0.122070,0.000000
2477540750,-0.00030518,0.00582886,-1.00529480,0.305176,0.061035,-0.122070
2482504166,-0.00074768,0.00492859,-1.00575256,0.427246,0.122070,-0.183105
2487503500,-0.00051880,0.00401306,-1.00582886,0.305176,0.061035,-0.061035
2492548416,-0.00042725,0.00357056,-1.00552368,0.488281,0.000000,-0.061035
2497504250,-0.00062561,0.00343323,-1.00515747,0.488281,0.061035,-0.122070
2502532375,-0.00032043,0.00305176,-1.00498962,0.244141,-0.061035,-0.061035
2507558541,0.00062561,0.00224304,-1.00503540,0.305176,0.061035,-0.061035
2512544708,0.00128174,0.00140381,-1.00505066,0.122070,0.061035,-0.122070
2517533916,0.00172424,0.00111389,-1.00515747,0.244141,0.061035,-0.122070
2522555500,0.00253296,0.00111389,-1.00532532,0.366211,0.000000,-0.122070
2527523458,0.00320435,0.00122070,-1.00529480,0.366211,-0.061035,-0.061035
2532549916,0.00358582,0.00177002,-1.00505066,0.305176,0.000000,0.000000
2537515833,0.00389099,0.00253296,-1.00518799,0.366211,0.061035,-0.183105
2542520166,0.00357056,0.00300598,-1.00605774,0.305176,0.000000,-0.061035
2547525166,0.00277710,0.00328064,-1.00680542,0.305176,0.000000,0.000000
2552543291,0.00233459,0.00352478,-1.00639343,0.366211,0.061035,0.000000
2557512916,0.00245667,0.00379944,-1.00559998,0.488281,0.183105,-0.061035
2562509791,0.00270081,0.00418091,-1.00561523,0.366211,0.122070,-0.122070
2567519125,0.00244141,0.00448608,-1.00627136,0.427246,0.061035,-0.122070
2572512041,0.00157166,0.00479126,-1.00628662,0.122070,0.061035,-0.122070
2577569166,0.00030518,0.00508118,-1.00555420,0.244141,0.000000,0.000000
2582535916,-0.00067139,0.00485229,-1.00520325,0.366211,0.122070,-0.061035
2587531458,-0.00053406,0.00404358,-1.00579834,0.366211,0.061035,0.000000
2592511458,0.00041199,0.00343323,-1.00643921,0.305176,0.122070,0.061035
2597512875,0.00094604,0.00352478,-1.00616455,0.183105,0.183105,-0.244141
2602561791,0.00062561,0.00354004,-1.00549316,0.488281,0.244141,0.000000
2607516166,0.00044250,0.00294495,-1.00506592,0.366211,0.061035,0.000000
2612502000,0.00082397,0.00218201,-1.00498962,0.305176,0.061035,-0.061035
2617568458,0.00122070,0.00184631,-1.00521851,0.427246,0.061035,-0.122070
2622544083,0.00184631,0.00186157,-1.00569153,0.183105,0.122070,0.000000
2627511083,0.00280762,0.00193787,-1.00619507,0.244141,0.122070,0.000000
2632529500,0.00346375,0.00201416,-1.00643921,0.366211,0.000000,0.061035
2637524208,0.00355530,0.00231934,-1.00633240,0.305176,0.000000,-0.183105
2642536583,0.00346375,0.00294495,-1.00633240,0.366211,0.000000,-0.122070
2647536875,0.00360107,0.00361633,-1.00671387,0.305176,-0.122070,-0.061035
2652506041,0.00393677,0.00387573,-1.00694275,0.244141,0.061035,-0.061035
2657552500,0.00404358,0.00376892,-1.00672913,0.366211,0.122070,0.000000
2662563750,0.00381470,0.00404358,-1.00636292,0.305176,0.061035,-0.183105
2667550375,0.00314331,0.00471497,-1.00598145,0.366211,0.000000,-0.061035
2672570291,0.00213623,0.00494385,-1.00547791,0.183105,0.000000,0.000000
2677524500,0.00102234,0.00433350,-1.00489807,0.366211,0.000000,-0.183105
2682544250,0.00015259,0.00340271,-1.00488281,0.305176,0.061035,0.061035
2687550250,-0.00013733,0.00289917,-1.00529480,0.366211,0.000000,-0.183105
2692553750,-0.00016785,0.00303650,-1.00532532,0.366211,0.061035,-0.061035
2697523375,-0.00045776,0.00308228,-1.00517273,0.244141,0.061035,0.000000
2702558958,-0.00082397,0.00274658,-1.00511169,0.366211,0.000000,-0.122070
2707533250,-0.00071716,0.00268555,-1.00489807,0.366211,0.061035,-0.183105
2712584458,0.00006104,0.00334167,-1.00468445,0.366211,0.061035,-0.061035
2718592250,0.00134277,0.00398254,-1.00460815,0.305176,0.061035,-0.061035
2722736666,0.00279236,0.00387573,-1.00506592,0.488281,0.122070,-0.061035
2729667125,0.00373840,0.00344849,-1.00585938,0.488281,0.061035,-0.122070
2733148291,0.00381470,0.00311279,-1.00613403,0.244141,0.061035,0.000000
2737912625,0.00372314,0.00294495,-1.00595093,0.366211,0.000000,-0.061035
2743552708,0.00378418,0.00292969,-1.00576782,0.427246,0.061035,-0.061035
2748440458,0.00355530,0.00296021,-1.00602722,0.305176,0.122070,-0.061035
2753091250,0.00276184,0.00286865,-1.00645447,0.305176,0.122070,-0.061035
2757759916,0.00219727,0.00268555,-1.00608826,0.305176,0.244141,-0.061035
2762657083,0.00244141,0.00273132,-1.00497437,0.366211,0.122070,0.000000
2767817416,0.00271606,0.00280762,-1.00442505,0.366211,0.122070,-0.122070
2772688708,0.00228882,0.00289917,-1.00486755,0.305176,0.000000,-0.122070
2777748041,0.00158691,0.00329590,-1.00552368,0.244141,0.122070,-0.061035
2782666250,0.00131226,0.00378418,-1.00552368,0.244141,0.000000,-0.183105
2787649916,0.00105286,0.00404358,-1.00500488,0.305176,0.122070,-0.061035
2792543541,0.00015259,0.00387573,-1.00511169,0.366211,0.000000,0.000000
2797527250,-0.00070190,0.00331116,-1.00590515,0.305176,-0.183105,0.000000
2802531708,-0.00051880,0.00289917,-1.00611877,0.366211,0.061035,0.000000
2807529041,0.00039673,0.00296021,-1.00578308,0.366211,0.122070,-0.122070
2812532083,0.00097656,0.00323486,-1.00582886,0.305176,-0.061035,0.000000
2817529500,0.00083923,0.00320435,-1.00604248,0.183105,-0.122070,-0.061035
2822532625,0.00053406,0.00312805,-1.00559998,0.427246,0.061035,0.000000
2827522750,0.00057983,0.00346375,-1.00477600,0.366211,0.122070,-0.061035
2832546833,0.00103760,0.00375366,-1.00444031,0.427246,0.061035,-0.122070
2837560375,0.00144958,0.00346375,-1.00485229,0.244141,0.061035,0.000000
2842527708,0.00163269,0.00308228,-1.00553894,0.244141,0.061035,-0.061035
2847539291,0.00184631,0.00314331,-1.00613403,0.366211,0.000000,0.061035
2852584125,0.00227356,0.00328064,-1.00630188,0.244141,0.000000,-0.061035
2857581166,0.00306702,0.00303650,-1.00570679,0.366211,0.183105,-0.061035
2862574583,0.00399780,0.00262451,-1.00511169,0.244141,0.061035,-0.061035
2867567083,0.00422668,0.00263977,-1.00561523,0.488281,0.061035,-0.122070
2872591125,0.00305176,0.00321960,-1.00643921,0.244141,0.183105,0.000000
2877598416,0.00146484,0.00381470,-1.00611877,0.366211,0.122070,-0.061035
2882598125,0.00088501,0.00393677,-1.00517273,0.244141,0.061035,0.000000
2887570500,0.00091553,0.00347900,-1.00473022,0.305176,0.061035,0.061035
2892564916,0.00061035,0.00285339,-1.00488281,0.305176,0.000000,-0.122070
2897556000,0.00022888,0.00291443,-1.00526428,0.183105,0.000000,-0.122070
2902614500,0.00051880,0.00350952,-1.00563049,0.244141,0.122070,-0.061035
2907555208,0.00114441,0.00372314,-1.00573730,0.183105,0.061035,-0.183105
2912610666,0.00135803,0.00357056,-1.00566101,0.244141,0.000000,-0.061035
2917585083,0.00152588,0.00363159,-1.00576782,0.305176,0.122070,0.000000
2922602041,0.00187683,0.00384521,-1.00595093,0.244141,0.183105,-0.061035
2927587083,0.00187683,0.00396729,-1.00601196,0.366211,0.000000,-0.122070
2932578541,0.00157166,0.00408936,-1.00622559,0.427246,0.061035,0.000000
2937589625,0.00140381,0.00402832,-1.00662231,0.366211,0.122070,-0.183105
2942610708,0.00154114,0.00354004,-1.00651550,0.366211,0.000000,-0.122070
2947565041,0.00198364,0.00285339,-1.00585938,0.183105,0.122070,-0.061035
2952589416,0.00241089,0.00234985,-1.00531006,0.366211,0.061035,-0.061035
2957597250,0.00256348,0.00207520,-1.00494385,0.366211,0.000000,-0.061035
2962557166,0.00236511,0.00196838,-1.00474548,0.366211,-0.061035,-0.061035
2967577416,0.00204468,0.00210571,-1.00506592,0.366211,0.061035,-0.183105
2972593500,0.00198364,0.00230408,-1.00566101,0.244141,0.122070,-0.061035
2977604083,0.00213623,0.00242615,-1.00596619,0.427246,0.000000,-0.183105
2982597208,0.00205994,0.00280762,-1.00595093,0.427246,0.061035,-0.061035
2987618875,0.00161743,0.00343323,-1.00584412,0.488281,0.122070,-0.061035
2992607250,0.00099182,0.00389099,-1.00563049,0.305176,-0.061035,-0.183105
2997599500,0.00036621,0.00411987,-1.00526428,0.122070,0.000000,-0.122070
3002574708,0.00000000,0.00419617,-1.00511169,0.305176,0.122070,-0.061035
3007574250,0.00000000,0.00393677,-1.00531006,0.366211,0.122070,0.061035
3012621791,0.00018311,0.00354004,-1.00579834,0.305176,0.061035,-0.061035
3017575875,0.00059509,0.00346375,-1.00640869,0.427246,0.122070,-0.122070
3022606083,0.00109863,0.00357056,-1.00627136,0.427246,0.061035,0.000000
3027612000,0.00123596,0.00332642,-1.00543213,0.366211,0.122070,-0.122070
3032610000,0.00102234,0.00279236,-1.00515747,0.366211,0.061035,0.000000
3037567375,0.00097656,0.00257874,-1.00576782,0.366211,0.183105,0.000000
3042579333,0.00140381,0.00292969,-1.00633240,0.427246,0.122070,-0.122070
3047590583,0.00192261,0.00328064,-1.00625610,0.244141,0.000000,0.061035
3052590083,0.00224304,0.00317383,-1.00588989,0.427246,0.000000,-0.183105
3057618333,0.00270081,0.00303650,-1.00561523,0.366211,0.061035,-0.061035
3062581041,0.00297546,0.00328064,-1.00572205,0.366211,0.183105,-0.061035
3067598958,0.00260925,0.00367737,-1.00596619,0.305176,0.000000,-0.122070
3072599291,0.00210571,0.00364685,-1.00581360,0.488281,0.061035,-0.061035
3077605125,0.00209045,0.00321960,-1.00578308,0.183105,0.061035,-0.122070
3082585583,0.00221252,0.00297546,-1.00605774,0.305176,0.183105,0.000000
3087637041,0.00199890,0.00292969,-1.00585938,0.427246,0.122070,0.000000
3092605625,0.00152588,0.00294495,-1.00517273,0.305176,-0.061035,-0.183105
3097606750,0.00109863,0.00317383,-1.00465393,0.305176,0.122070,-0.061035
3102599625,0.00109863,0.00358582,-1.00447083,0.488281,0.122070,0.061035
3107612458,0.00129700,0.00410461,-1.00466919,0.183105,0.061035,-0.183105
3112576041,0.00114441,0.00436401,-1.00494385,0.183105,0.061035,-0.122070
3117621000,0.00082397,0.00408936,-1.00506592,0.244141,0.061035,-0.061035
3122593791,0.00108337,0.00344849,-1.00546265,0.305176,0.061035,-0.061035
3127598875,0.00152588,0.00296021,-1.00627136,0.305176,0.000000,-0.122070
3132588958,0.00128174,0.00302124,-1.00671387,0.366211,0.122070,-0.122070
3137608291,0.00082397,0.00347900,-1.00611877,0.366211,0.122070,-0.122070
3142596416,0.00105286,0.00350952,-1.00498962,0.183105,0.000000,-0.122070
3147568458,0.00189209,0.00289917,-1.00431824,0.305176,0.000000,-0.061035
3152612541,0.00262451,0.00225830,-1.00436401,0.305176,0.183105,-0.061035
3157577625,0.00259399,0.00215149,-1.00486755,0.244141,0.061035,-0.061035
3162622541,0.00207520,0.00234985,-1.00532532,0.244141,0.122070,-0.061035
3167583041,0.00186157,0.00248718,-1.00558472,0.366211,0.122070,-0.061035
3172599500,0.00216675,0.00260925,-1.00598145,0.366211,0.122070,-0.061035
3177606000,0.00267029,0.00288391,-1.00628662,0.427246,0.000000,-0.061035
3182636416,0.00262451,0.00340271,-1.00614929,0.244141,0.000000,-0.122070
3187643291,0.00199890,0.00408936,-1.00590515,0.244141,0.061035,-0.244141
3192581958,0.00166321,0.00459290,-1.00579834,0.305176,0.061035,-0.061035
3197595791,0.00184631,0.00491333,-1.00556946,0.305176,0.061035,0.061035
3202615083,0.00209045,0.00517273,-1.00512695,0.183105,0.183105,-0.061035
3207621291,0.00230408,0.00535583,-1.00494385,0.305176,0.061035,-0.122070
3212627833,0.00227356,0.00518799,-1.00514221,0.366211,0.061035,-0.122070
3217631875,0.00187683,0.00453186,-1.00529480,0.305176,0.000000,-0.061035
3222589625,0.00141907,0.00370789,-1.00514221,0.366211,0.061035,-0.061035
3227598958,0.00093079,0.00331116,-1.00506592,0.366211,0.061035,-0.122070
3232596291,0.00061035,0.00344849,-1.00503540,0.305176,0.122070,-0.061035
3237633500,0.00111389,0.00360107,-1.00483704,0.488281,0.061035,-0.122070
3242595250,0.00202942,0.00306702,-1.00483704,0.183105,0.061035,-0.122070
3247607666,0.00231934,0.00230408,-1.00492859,0.366211,0.061035,-0.061035
3252606541,0.00180054,0.00231934,-1.00491333,0.488281,0.061035,-0.122070
3257589125,0.00094604,0.00305176,-1.00500488,0.305176,0.061035,-0.122070
3262616291,0.00048828,0.00367737,-1.00547791,0.427246,0.122070,-0.061035
3267619583,0.00071716,0.00357056,-1.00592041,0.244141,0.122070,-0.061035
3272587875,0.00125122,0.00297546,-1.00579834,0.366211,0.061035,-0.122070
3277606750,0.00152588,0.00271606,-1.00550842,0.366211,0.000000,-0.122070
3282627541,0.00152588,0.00317383,-1.00547791,0.305176,0.122070,-0.183105
3287621333,0.00144958,0.00372314,-1.00553894,0.305176,0.183105,-0.183105
3292605541,0.00132751,0.00364685,-1.00538635,0.488281,0.000000,0.000000
3297600208,0.00143433,0.00300598,-1.00512695,0.366211,0.183105,-0.061035
3302611166,0.00210571,0.00254822,-1.00534058,0.305176,0.061035,0.000000
3307617625,0.00276184,0.00283813,-1.00621033,0.122070,0.061035,-0.122070
3312584500,0.00276184,0.00347900,-1.00709534,0.366211,0.122070,0.061035
3317652708,0.00244141,0.00366211,-1.00701904,0.244141,0.061035,0.000000
3322582208,0.00234985,0.00358582,-1.00613403,0.305176,0.061035,-0.061035
3327636166,0.00254822,0.00369263,-1.00559998,0.427246,0.122070,0.000000
3332645250,0.00270081,0.00369263,-1.00561523,0.427246,0.061035,0.061035
3337710458,0.00233459,0.00329590,-1.00569153,0.244141,0.000000,0.000000
3342605750,0.00167847,0.00294495,-1.00604248,0.366211,0.122070,0.061035
3347619250,0.00131226,0.00309753,-1.00663757,0.305176,-0.061035,-0.061035
3352606000,0.00131226,0.00358582,-1.00682068,0.305176,0.061035,-0.183105
3357618500,0.00143433,0.00376892,-1.00624084,0.244141,0.061035,0.000000
3362623291,0.00148010,0.00338745,-1.00567627,0.305176,0.000000,0.061035
3367656500,0.00146484,0.00292969,-1.00587463,0.244141,0.122070,-0.122070
3372626958,0.00140381,0.00276184,-1.00614929,0.366211,0.122070,0.000000
3377609791,0.00120544,0.00291443,-1.00601196,0.183105,0.000000,0.000000
3382632875,0.00115967,0.00334167,-1.00613403,0.366211,0.061035,-0.061035
3387605208,0.00172424,0.00379944,-1.00643921,0.366211,0.061035,-0.061035
3392622083,0.00267029,0.00401306,-1.00621033,0.244141,0.000000,-0.061035
3397608250,0.00314331,0.00424194,-1.00561523,0.549316,0.122070,0.000000
3402631958,0.00271606,0.00459290,-1.00506592,0.244141,-0.061035,-0.122070
3407612208,0.00216675,0.00463867,-1.00497437,0.427246,0.183105,-0.061035
3412607875,0.00228882,0.00416565,-1.00527954,0.366211,0.061035,0.000000
3417613041,0.00276184,0.00337219,-1.00559998,0.427246,0.122070,-0.061035
3422625083,0.00283813,0.00289917,-1.00559998,0.427246,0.122070,-0.122070
3427618333,0.00231934,0.00267029,-1.00567627,0.366211,0.122070,-0.122070
3432637791,0.00155640,0.00199890,-1.00608826,0.244141,0.000000,0.061035
3437631458,0.00114441,0.00137329,-1.00616455,0.244141,0.000000,-0.122070
3442622125,0.00146484,0.00166321,-1.00570679,0.366211,-0.061035,0.061035
3447620833,0.00201416,0.00230408,-1.00537109,0.244141,0.061035,0.000000
3452626208,0.00215149,0.00259399,-1.00550842,0.183105,0.061035,-0.061035
3457622625,0.00166321,0.00270081,-1.00587463,0.244141,0.000000,0.000000
3462619958,0.00109863,0.00299072,-1.00616455,0.183105,0.061035,-0.061035
3467643125,0.00108337,0.00320435,-1.00610352,0.427246,0.122070,-0.061035
3472649875,0.00144958,0.00296021,-1.00575256,0.305176,0.000000,-0.122070
3477617166,0.00149536,0.00280762,-1.00570679,0.244141,0.122070,-0.183105
3482621833,0.00134277,0.00347900,-1.00596619,0.366211,0.000000,0.000000
3487637000,0.00132751,0.00430298,-1.00598145,0.366211,0.061035,-0.061035
3492633583,0.00129700,0.00445557,-1.00558472,0.366211,0.000000,0.000000
3497612541,0.00135803,0.00444031,-1.00514221,0.366211,0.000000,-0.183105
3502632416,0.00164795,0.00468445,-1.00509644,0.427246,0.061035,0.061035
3507620125,0.00175476,0.00486755,-1.00508118,0.366211,0.000000,-0.061035
3512629833,0.00166321,0.00468445,-1.00477600,0.183105,0.061035,-0.061035
3517626458,0.00167847,0.00411987,-1.00465393,0.244141,0.183105,-0.244141
3522632625,0.00180054,0.00337219,-1.00469971,0.305176,0.122070,-0.061035
3527646583,0.00207520,0.00297546,-1.00474548,0.305176,0.000000,-0.061035
3532647708,0.00222778,0.00297546,-1.00483704,0.366211,0.061035,0.000000
3537641833,0.00231934,0.00280762,-1.00494385,0.427246,0.122070,-0.061035
3542621833,0.00225830,0.00250244,-1.00521851,0.305176,0.061035,-0.122070
3547624666,0.00181580,0.00231934,-1.00572205,0.366211,0.061035,-0.122070
3552651208,0.00144958,0.00213623,-1.00595093,0.183105,0.000000,-0.061035
3557633291,0.00149536,0.00199890,-1.00549316,0.427246,0.122070,0.000000
3562635375,0.00207520,0.00227356,-1.00514221,0.183105,0.061035,-0.061035
3567663416,0.00257874,0.00314331,-1.00555420,0.366211,0.122070,0.000000
3572663291,0.00245667,0.00410461,-1.00630188,0.244141,0.000000,-0.061035
3577564750,0.00193787,0.00454712,-1.00639343,0.366211,0.183105,-0.061035
3582641875,0.00167847,0.00466919,-1.00572205,0.183105,-0.061035,-0.061035
3587667541,0.00186157,0.00466919,-1.00514221,0.366211,0.061035,-0.061035
3592642541,0.00166321,0.00442505,-1.00546265,0.305176,0.061035,-0.122070
3597633875,0.00115967,0.00381470,-1.00621033,0.183105,0.000000,0.000000
3602658666,0.00119019,0.00317383,-1.00614929,0.244141,0.061035,-0.122070
3607654833,0.00170898,0.00306702,-1.00547791,0.366211,0.122070,-0.061035
3612646708,0.00204468,0.00331116,-1.00543213,0.366211,0.061035,-0.122070
3617638791,0.00187683,0.00340271,-1.00598145,0.305176,0.000000,-0.122070
3622661625,0.00132751,0.00312805,-1.00602722,0.366211,0.000000,0.000000
3627663291,0.00102234,0.00268555,-1.00527954,0.427246,0.061035,-0.061035
3632661000,0.00120544,0.00256348,-1.00473022,0.305176,0.061035,-0.122070
3637672916,0.00144958,0.00283813,-1.00506592,0.305176,-0.122070,-0.061035
3642669833,0.00151062,0.00280762,-1.00566101,0.183105,0.183105,0.000000
3647650083,0.00148010,0.00259399,-1.00573730,0.305176,0.122070,0.000000
3652645833,0.00151062,0.00276184,-1.00556946,0.305176,-0.122070,-0.061035
3657655791,0.00157166,0.00291443,-1.00547791,0.183105,0.000000,0.000000
3662639875,0.00160217,0.00265503,-1.00553894,0.366211,0.183105,-0.122070
3667666333,0.00189209,0.00253296,-1.00563049,0.244141,0.061035,-0.061035
3672667666,0.00207520,0.00299072,-1.00537109,0.183105,0.122070,0.000000
3677636583,0.00195312,0.00366211,-1.00498962,0.366211,0.122070,0.000000
3682661166,0.00186157,0.00421143,-1.00500488,0.427246,0.061035,-0.061035
3687676125,0.00177002,0.00471497,-1.00529480,0.305176,0.061035,-0.183105
3692642250,0.00161743,0.00531006,-1.00544739,0.305176,0.061035,0.122070
3697654750,0.00175476,0.00555420,-1.00549316,0.427246,0.122070,0.000000
3702669333,0.00230408,0.00518799,-1.00563049,0.305176,0.061035,-0.244141
3707647666,0.00277710,0.00463867,-1.00555420,0.366211,0.000000,-0.061035
3712658791,0.00248718,0.00444031,-1.00503540,0.183105,0.244141,-0.061035
3717653625,0.00160217,0.00428772,-1.00466919,0.427246,0.122070,-0.061035
3722657375,0.00123596,0.00396729,-1.00474548,0.305176,0.061035,-0.122070
3727677458,0.00209045,0.00352478,-1.00502014,0.244141,0.000000,0.000000
3732664166,0.00312805,0.00289917,-1.00558472,0.427246,0.061035,-0.122070
3737686125,0.00308228,0.00242615,-1.00625610,0.427246,0.061035,-0.061035
3742693875,0.00210571,0.00233459,-1.00627136,0.427246,0.061035,0.000000
3747658583,0.00140381,0.00239563,-1.00531006,0.244141,0.122070,-0.061035
3752669541,0.00167847,0.00227356,-1.00431824,0.427246,0.122070,-0.061035
3757654541,0.00244141,0.00187683,-1.00428772,0.305176,0.000000,-0.244141
3762650125,0.00271606,0.00167847,-1.00495911,0.305176,0.183105,-0.122070
3767661458,0.00227356,0.00181580,-1.00532532,0.305176,0.000000,0.000000
3772673125,0.00172424,0.00210571,-1.00509644,0.366211,0.000000,0.061035
3777649166,0.00164795,0.00238037,-1.00508118,0.305176,0.061035,-0.122070
3782660375,0.00186157,0.00260925,-1.00526428,0.183105,0.183105,-0.061035
3787649000,0.00193787,0.00283813,-1.00479126,0.488281,0.183105,0.000000
3792672916,0.00164795,0.00297546,-1.00428772,0.305176,0.061035,-0.061035
3797657416,0.00108337,0.00321960,-1.00459290,0.244141,0.000000,0.061035
3802677833,0.00077820,0.00375366,-1.00549316,0.427246,0.061035,-0.122070
3807697958,0.00079346,0.00427246,-1.00627136,0.488281,0.183105,-0.122070
3812672125,0.00076294,0.00424194,-1.00642395,0.305176,0.061035,0.000000
3817664375,0.00102234,0.00387573,-1.00588989,0.366211,0.122070,-0.122070
3822677750,0.00126648,0.00375366,-1.00532532,0.366211,0.122070,-0.183105
3827684666,0.00097656,0.00384521,-1.00544739,0.366211,0.122070,-0.122070
3832675083,0.00070190,0.00386047,-1.00582886,0.427246,0.061035,0.000000
3837692333,0.00085449,0.00364685,-1.00599670,0.305176,0.183105,0.000000
3842677958,0.00115967,0.00341797,-1.00621033,0.305176,0.000000,-0.061035
3847648916,0.00141907,0.00335693,-1.00650024,0.305176,0.061035,-0.122070
3852676208,0.00172424,0.00334167,-1.00631714,0.488281,0.061035,-0.183105
3857660583,0.00199890,0.00308228,-1.00572205,0.427246,0.061035,-0.122070
3862668958,0.00227356,0.00253296,-1.00520325,0.366211,0.061035,-0.061035
3867674000,0.00254822,0.00213623,-1.00468445,0.366211,0.183105,0.061035
3872685791,0.00265503,0.00247192,-1.00431824,0.366211,0.122070,-0.061035
3877604958,0.00254822,0.00320435,-1.00473022,0.366211,0.061035,-0.061035
3882695625,0.00256348,0.00358582,-1.00555420,0.244141,0.122070,0.000000
3887667375,0.00288391,0.00366211,-1.00593567,0.366211,-0.061035,0.000000
3892678583,0.00360107,0.00392151,-1.00596619,0.305176,0.061035,-0.061035
3897682916,0.00431824,0.00425720,-1.00611877,0.488281,0.061035,-0.122070
3902702541,0.00387573,0.00415039,-1.00607300,0.183105,0.122070,-0.061035
3907693833,0.00242615,0.00366211,-1.00576782,0.366211,-0.061035,-0.183105
3912662166,0.00155640,0.00337219,-1.00588989,0.183105,0.000000,-0.122070
3917688000,0.00158691,0.00363159,-1.00599670,0.305176,0.000000,-0.061035
3922698875,0.00144958,0.00419617,-1.00520325,0.183105,0.061035,0.000000
3927709791,0.00065613,0.00445557,-1.00434875,0.183105,0.000000,-0.061035
3932694291,0.00000000,0.00419617,-1.00482178,0.183105,0.122070,-0.061035
3937679250,0.00025940,0.00367737,-1.00605774,0.366211,0.061035,-0.061035
3942683958,0.00093079,0.00306702,-1.00614929,0.366211,0.122070,-0.061035
3947687833,0.00129700,0.00241089,-1.00518799,0.366211,0.061035,-0.061035
3952692750,0.00181580,0.00212097,-1.00500488,0.488281,0.122070,-0.061035
3957675875,0.00251770,0.00227356,-1.00561523,0.305176,0.061035,-0.061035
3962703166,0.00256348,0.00239563,-1.00540161,0.305176,0.122070,-0.122070
3967689375,0.00202942,0.00222778,-1.00427246,0.305176,0.122070,-0.122070
3972696708,0.00207520,0.00219727,-1.00387573,0.366211,0.061035,-0.183105
3977694458,0.00286865,0.00257874,-1.00483704,0.305176,0.061035,-0.061035
3982711375,0.00335693,0.00315857,-1.00584412,0.183105,-0.061035,0.000000
3987695291,0.00296021,0.00346375,-1.00579834,0.244141,-0.061035,-0.061035
3992693375,0.00228882,0.00347900,-1.00572205,0.244141,0.061035,-0.122070
3997682416,0.00222778,0.00347900,-1.00631714,0.244141,0.061035,0.000000
4002680208,0.00280762,0.00372314,-1.00669861,0.305176,0.122070,0.000000
4007686125,0.00291443,0.00402832,-1.00605774,0.305176,0.122070,-0.061035
4012700083,0.00221252,0.00424194,-1.00531006,0.366211,0.000000,0.000000
4017720875,0.00173950,0.00466919,-1.00559998,0.305176,-0.061035,-0.061035
4022687125,0.00180054,0.00531006,-1.00633240,0.366211,-0.061035,-0.061035
4027706083,0.00192261,0.00546265,-1.00613403,0.366211,0.061035,0.061035
4032699208,0.00172424,0.00476074,-1.00538635,0.305176,0.122070,-0.061035
4037703250,0.00123596,0.00376892,-1.00515747,0.305176,0.122070,-0.122070
4042702625,0.00073242,0.00341797,-1.00546265,0.366211,-0.244141,-0.183105
4047697791,0.00010681,0.00350952,-1.00581360,0.305176,0.000000,0.000000
4052705708,-0.00038147,0.00318909,-1.00588989,0.366211,0.122070,-0.061035
4057694041,-0.00032043,0.00260925,-1.00570679,0.366211,0.122070,-0.061035
4062680541,0.00015259,0.00242615,-1.00578308,0.244141,0.061035,-0.061035
4067720458,0.00050354,0.00236511,-1.00608826,0.244141,0.061035,-0.122070
4072714791,0.00051880,0.00199890,-1.00610352,0.305176,0.061035,-0.061035
4077677708,0.00064087,0.00163269,-1.00564575,0.305176,0.000000,-0.122070
4082702708,0.00123596,0.00199890,-1.00508118,0.244141,0.122070,-0.061035
4087710833,0.00196838,0.00305176,-1.00485229,0.427246,0.061035,-0.122070
4092707041,0.00259399,0.00372314,-1.00512695,0.305176,0.122070,-0.061035
4097691375,0.00314331,0.00334167,-1.00535583,0.244141,0.122070,0.061035
4102710583,0.00344849,0.00279236,-1.00505066,0.305176,0.122070,-0.061035
4107703541,0.00338745,0.00303650,-1.00466919,0.366211,0.061035,-0.122070
4112706875,0.00309753,0.00376892,-1.00498962,0.366211,0.000000,-0.061035
4117704041,0.00291443,0.00454712,-1.00549316,0.122070,0.061035,-0.061035
4122708541,0.00300598,0.00497437,-1.00535583,0.244141,0.061035,-0.061035
4127723750,0.00288391,0.00440979,-1.00494385,0.305176,0.000000,-0.061035
4132706125,0.00224304,0.00344849,-1.00505066,0.366211,0.183105,-0.122070
4137726958,0.00146484,0.00315857,-1.00559998,0.366211,0.061035,-0.061035
4142702166,0.00082397,0.00335693,-1.00579834,0.366211,0.183105,-0.061035
4147688750,0.00059509,0.00360107,-1.00546265,0.244141,0.061035,-0.061035
4152709291,0.00070190,0.00372314,-1.00524902,0.061035,0.061035,-0.061035
4157685166,0.00035095,0.00360107,-1.00585938,0.427246,0.000000,-0.061035
4162705291,-0.00036621,0.00341797,-1.00657654,0.244141,0.000000,-0.061035
4167720500,-0.00056458,0.00337219,-1.00634766,0.366211,0.122070,-0.122070
4172728125,-0.00021362,0.00338745,-1.00561523,0.488281,0.061035,0.061035
4177715625,0.00006104,0.00340271,-1.00526428,0.305176,0.122070,0.000000
4182730375,0.00025940,0.00326538,-1.00534058,0.366211,0.061035,0.061035
4187730666,0.00082397,0.00302124,-1.00553894,0.366211,0.122070,-0.122070
4192726166,0.00169373,0.00283813,-1.00561523,0.427246,0.061035,-0.122070
4197705208,0.00267029,0.00262451,-1.00567627,0.305176,0.061035,-0.061035
4202741500,0.00326538,0.00234985,-1.00582886,0.366211,0.061035,0.000000
4207727041,0.00315857,0.00207520,-1.00569153,0.244141,0.122070,-0.061035
4212705916,0.00271606,0.00205994,-1.00508118,0.244141,0.061035,-0.122070
4217727250,0.00268555,0.00224304,-1.00466919,0.305176,0.000000,-0.061035
4222721833,0.00305176,0.00230408,-1.00506592,0.366211,0.000000,0.000000
4227715500,0.00292969,0.00248718,-1.00544739,0.366211,0.122070,-0.122070
4232704958,0.00204468,0.00299072,-1.00508118,0.305176,0.000000,-0.061035
4237717916,0.00115967,0.00334167,-1.00479126,0.305176,0.122070,-0.183105
4242731375,0.00083923,0.00314331,-1.00520325,0.244141,0.061035,-0.061035
4247714666,0.00083923,0.00268555,-1.00543213,0.366211,-0.061035,-0.061035
4252710916,0.00073242,0.00262451,-1.00515747,0.305176,0.183105,-0.122070
4257743833,0.00068665,0.00285339,-1.00508118,0.244141,0.122070,-0.061035
4262710541,0.00064087,0.00308228,-1.00552368,0.305176,0.061035,0.061035
4267713000,0.00033569,0.00312805,-1.00616455,0.366211,0.061035,0.000000
4272727208,-0.00003052,0.00303650,-1.00663757,0.366211,0.061035,-0.183105
4277710041,0.00007629,0.00305176,-1.00669861,0.305176,0.122070,0.061035
4282766375,0.00064087,0.00306702,-1.00607300,0.366211,0.122070,0.000000
4287732875,0.00102234,0.00302124,-1.00518799,0.244141,0.122070,-0.122070
4292749458,0.00106812,0.00317383,-1.00488281,0.305176,0.122070,0.061035
4297746958,0.00119019,0.00337219,-1.00532532,0.366211,0.061035,0.000000
4302751041,0.00175476,0.00344849,-1.00616455,0.488281,0.000000,0.000000
4307730250,0.00251770,0.00347900,-1.00648499,0.122070,0.000000,-0.061035
4312736666,0.00312805,0.00363159,-1.00569153,0.366211,0.000000,-0.061035
4317762333,0.00334167,0.00367737,-1.00506592,0.427246,0.061035,-0.061035
4322740833,0.00315857,0.00350952,-1.00587463,0.244141,0.122070,-0.061035
4327749708,0.00309753,0.00332642,-1.00672913,0.366211,0.000000,-0.061035
4332728541,0.00349426,0.00317383,-1.00636292,0.366211,0.061035,-0.122070
4337764333,0.00381470,0.00334167,-1.00563049,0.427246,0.061035,0.061035
4342759083,0.00350952,0.00372314,-1.00495911,0.183105,0.122070,-0.122070
4347719708,0.00280762,0.00381470,-1.00434875,0.305176,0.000000,-0.183105
4352716083,0.00227356,0.00354004,-1.00445557,0.305176,0.061035,-0.122070
4357728291,0.00195312,0.00317383,-1.00497437,0.427246,0.061035,-0.122070
4362731625,0.00128174,0.00292969,-1.00514221,0.427246,0.061035,0.000000
4367738833,0.00010681,0.00286865,-1.00521851,0.427246,-0.061035,-0.061035
4372730500,-0.00064087,0.00289917,-1.00524902,0.427246,0.122070,-0.061035
4377722875,-0.00047302,0.00292969,-1.00477600,0.244141,0.061035,-0.061035
4382737083,-0.00003052,0.00306702,-1.00474548,0.366211,0.000000,-0.183105
4387791291,0.00010681,0.00321960,-1.00566101,0.305176,0.122070,-0.061035
4392753125,0.00035095,0.00328064,-1.00633240,0.366211,0.061035,-0.183105
4397724833,0.00134277,0.00352478,-1.00608826,0.305176,0.000000,-0.122070
4402746333,0.00244141,0.00382996,-1.00549316,0.427246,0.122070,-0.183105
4407748791,0.00257874,0.00375366,-1.00521851,0.366211,0.000000,0.000000
4412723458,0.00228882,0.00308228,-1.00529480,0.366211,0.061035,-0.122070
4417727916,0.00250244,0.00231934,-1.00544739,0.366211,0.183105,-0.061035
4422721708,0.00309753,0.00221252,-1.00566101,0.366211,0.000000,-0.061035
4427740083,0.00347900,0.00241089,-1.00582886,0.305176,-0.061035,-0.061035
4432729000,0.00357056,0.00228882,-1.00613403,0.305176,0.122070,0.000000
4437785416,0.00344849,0.00231934,-1.00619507,0.183105,0.061035,0.000000
4442759791,0.00317383,0.00285339,-1.00592041,0.305176,0.122070,-0.061035
4447748541,0.00321960,0.00361633,-1.00575256,0.244141,0.183105,-0.122070
4452759041,0.00312805,0.00433350,-1.00566101,0.366211,0.183105,0.000000
4457773041,0.00212097,0.00469971,-1.00572205,0.366211,0.000000,-0.122070
4462751875,0.00076294,0.00457764,-1.00610352,0.366211,0.122070,-0.061035
4467754625,0.00012207,0.00428772,-1.00605774,0.244141,0.122070,-0.122070
4472779500,0.00042725,0.00399780,-1.00541687,0.305176,0.122070,-0.183105
4477758708,0.00085449,0.00360107,-1.00505066,0.244141,0.061035,-0.061035
4482760166,0.00070190,0.00300598,-1.00512695,0.366211,0.061035,-0.061035
4487779333,0.00021362,0.00282288,-1.00506592,0.244141,0.061035,0.000000
4492774875,-0.00010681,0.00332642,-1.00498962,0.305176,0.122070,-0.122070
4497778875,-0.00019836,0.00386047,-1.00503540,0.427246,0.061035,0.061035
4502781791,0.00013733,0.00398254,-1.00518799,0.305176,0.122070,0.000000
4507767541,0.00076294,0.00373840,-1.00555420,0.305176,0.061035,0.122070
4512758166,0.00143433,0.00344849,-1.00578308,0.427246,0.061035,-0.122070
4517777250,0.00227356,0.00332642,-1.00570679,0.305176,-0.061035,-0.061035
4522768375,0.00291443,0.00317383,-1.00549316,0.366211,0.061035,-0.122070
4527778416,0.00305176,0.00297546,-1.00523376,0.244141,0.061035,0.000000
4532754333,0.00302124,0.00283813,-1.00544739,0.183105,0.061035,0.000000
4537820333,0.00329590,0.00288391,-1.00637817,0.366211,0.000000,0.000000
4542778208,0.00357056,0.00309753,-1.00674438,0.183105,0.061035,-0.061035
4547747625,0.00332642,0.00314331,-1.00576782,0.305176,-0.061035,-0.061035
4552789625,0.00292969,0.00299072,-1.00494385,0.305176,0.122070,-0.061035
4557741250,0.00263977,0.00303650,-1.00511169,0.244141,-0.061035,-0.061035
4562794958,0.00250244,0.00318909,-1.00546265,0.244141,0.122070,-0.061035
4567759250,0.00245667,0.00311279,-1.00559998,0.122070,0.000000,-0.122070
4572780125,0.00209045,0.00305176,-1.00581360,0.305176,0.061035,-0.122070
4577782416,0.00144958,0.00337219,-1.00569153,0.183105,-0.061035,0.061035
4582781250,0.00099182,0.00398254,-1.00518799,0.244141,0.000000,-0.122070
4587801208,0.00097656,0.00425720,-1.00491333,0.488281,0.000000,-0.122070
4592788000,0.00120544,0.00390625,-1.00529480,0.427246,0.000000,-0.061035
4597747375,0.00126648,0.00344849,-1.00608826,0.427246,-0.061035,0.000000
4602781125,0.00123596,0.00363159,-1.00627136,0.305176,0.122070,-0.244141
4607789583,0.00100708,0.00399780,-1.00556946,0.366211,0.122070,0.000000
4612786500,0.00071716,0.00369263,-1.00506592,0.244141,0.000000,-0.183105
4617801875,0.00077820,0.00308228,-1.00527954,0.305176,0.122070,-0.061035
4622794416,0.00115967,0.00300598,-1.00585938,0.244141,0.183105,-0.061035
4627791208,0.00170898,0.00364685,-1.00621033,0.366211,0.000000,-0.122070
4632770541,0.00236511,0.00424194,-1.00598145,0.549316,0.061035,-0.061035
4637811333,0.00286865,0.00411987,-1.00553894,0.244141,0.061035,-0.122070
4642790458,0.00305176,0.00376892,-1.00544739,0.366211,0.061035,0.000000
4647794541,0.00325012,0.00389099,-1.00552368,0.244141,-0.061035,-0.061035
4652782916,0.00357056,0.00384521,-1.00564575,0.305176,0.183105,-0.061035
4657776041,0.00332642,0.00328064,-1.00581360,0.305176,-0.061035,-0.183105
4662773500,0.00270081,0.00285339,-1.00582886,0.366211,0.122070,0.000000
4667785625,0.00251770,0.00277710,-1.00544739,0.305176,0.061035,-0.122070
4672798458,0.00277710,0.00250244,-1.00482178,0.366211,0.061035,0.000000
4677783458,0.00296021,0.00173950,-1.00448608,0.305176,0.000000,0.061035
4682771625,0.00294495,0.00132751,-1.00466919,0.244141,-0.061035,-0.061035
4687801625,0.00273132,0.00173950,-1.00515747,0.427246,-0.061035,0.061035
4692777375,0.00218201,0.00239563,-1.00579834,0.427246,0.061035,0.000000
4697797208,0.00160217,0.00280762,-1.00633240,0.244141,0.061035,-0.183105
4702799291,0.00164795,0.00299072,-1.00668335,0.366211,0.122070,-0.061035
4707798333,0.00209045,0.00320435,-1.00698853,0.183105,0.122070,-0.183105
4712763000,0.00192261,0.00358582,-1.00712585,0.427246,0.000000,-0.061035
4717766083,0.00090027,0.00372314,-1.00650024,0.427246,0.122070,-0.122070
4722820000,0.00035095,0.00367737,-1.00531006,0.427246,0.244141,-0.183105
4727771291,0.00073242,0.00373840,-1.00469971,0.427246,0.122070,-0.122070
4732766458,0.00122070,0.00370789,-1.00512695,0.366211,0.122070,-0.183105
4737770916,0.00172424,0.00363159,-1.00556946,0.427246,0.061035,0.000000
4742770875,0.00230408,0.00381470,-1.00573730,0.427246,0.122070,0.000000
4747816166,0.00230408,0.00396729,-1.00587463,0.305176,0.000000,-0.061035
4752806416,0.00161743,0.00373840,-1.00556946,0.488281,0.183105,-0.061035
4757765750,0.00091553,0.00340271,-1.00514221,0.305176,0.122070,-0.061035
4762778291,0.00082397,0.00314331,-1.00538635,0.305176,0.183105,-0.122070
4767789291,0.00120544,0.00294495,-1.00617981,0.244141,0.122070,-0.122070
4772764291,0.00143433,0.00291443,-1.00671387,0.305176,0.000000,-0.122070
4777801666,0.00140381,0.00318909,-1.00648499,0.427246,-0.061035,-0.122070
4782775875,0.00161743,0.00361633,-1.00581360,0.427246,0.061035,0.000000
4787809083,0.00228882,0.00360107,-1.00535583,0.305176,-0.061035,-0.061035
4792813916,0.00280762,0.00315857,-1.00515747,0.305176,0.061035,-0.061035
4797780833,0.00271606,0.00289917,-1.00488281,0.305176,0.061035,-0.122070
4802811916,0.00231934,0.00305176,-1.00509644,0.183105,0.061035,-0.061035
4807813541,0.00198364,0.00334167,-1.00607300,0.366211,0.122070,0.122070
4812810666,0.00186157,0.00349426,-1.00689697,0.305176,0.061035,0.061035
4817813416,0.00170898,0.00363159,-1.00656128,0.427246,0.122070,0.000000
4822806208,0.00151062,0.00367737,-1.00566101,0.244141,0.000000,-0.122070
4827829541,0.00151062,0.00340271,-1.00540161,0.305176,0.061035,-0.122070
4832786708,0.00175476,0.00311279,-1.00584412,0.427246,0.061035,-0.061035
4837829125,0.00187683,0.00317383,-1.00616455,0.244141,0.061035,-0.122070
4842820625,0.00180054,0.00350952,-1.00604248,0.366211,0.122070,0.000000
4847795833,0.00183105,0.00407410,-1.00587463,0.366211,0.000000,0.000000
4852813166,0.00192261,0.00453186,-1.00584412,0.305176,0.000000,-0.061035
4857801166,0.00196838,0.00408936,-1.00584412,0.488281,0.000000,0.000000
4862802791,0.00190735,0.00292969,-1.00566101,0.305176,0.061035,0.000000
4867797625,0.00181580,0.00210571,-1.00524902,0.366211,0.000000,-0.122070
4872796375,0.00184631,0.00221252,-1.00482178,0.366211,0.000000,-0.122070
4877797208,0.00193787,0.00268555,-1.00463867,0.183105,0.061035,-0.122070
4882829375,0.00196838,0.00274658,-1.00509644,0.366211,0.061035,-0.061035
4887790791,0.00196838,0.00260925,-1.00590515,0.427246,0.000000,0.000000
4892779833,0.00213623,0.00270081,-1.00611877,0.366211,0.122070,-0.183105
4897783791,0.00254822,0.00276184,-1.00575256,0.427246,-0.061035,0.061035
4902845666,0.00242615,0.00257874,-1.00561523,0.183105,0.000000,-0.122070
4907835625,0.00138855,0.00241089,-1.00581360,0.366211,0.061035,-0.122070
4912788208,0.00050354,0.00245667,-1.00611877,0.305176,0.122070,0.000000
4917789875,0.00053406,0.00288391,-1.00642395,0.366211,0.122070,0.000000
4922800041,0.00112915,0.00352478,-1.00656128,0.305176,0.122070,-0.122070
4927834125,0.00167847,0.00373840,-1.00619507,0.305176,0.122070,-0.061035
4932786291,0.00213623,0.00338745,-1.00559998,0.244141,0.000000,0.061035
4937800166,0.00242615,0.00317383,-1.00534058,0.305176,0.122070,-0.061035
4942836041,0.00254822,0.00355530,-1.00552368,0.305176,0.061035,-0.122070
4947780375,0.00268555,0.00398254,-1.00581360,0.183105,0.000000,-0.122070
4952836083,0.00257874,0.00382996,-1.00579834,0.244141,-0.122070,0.000000
4957790916,0.00199890,0.00346375,-1.00531006,0.305176,0.122070,-0.122070
4962812916,0.00160217,0.00332642,-1.00508118,0.427246,0.061035,-0.061035
4967800000,0.00209045,0.00343323,-1.00534058,0.305176,-0.061035,-0.122070
4972840500,0.00302124,0.00376892,-1.00549316,0.427246,0.061035,-0.061035
4977814958,0.00308228,0.00411987,-1.00544739,0.305176,0.000000,-0.061035
4982797666,0.00241089,0.00399780,-1.00552368,0.244141,0.061035,-0.122070
4987818458,0.00187683,0.00341797,-1.00578308,0.366211,-0.061035,-0.122070
4992819541,0.00141907,0.00299072,-1.00601196,0.183105,-0.061035,-0.061035
4997834041,0.00115967,0.00288391,-1.00564575,0.305176,0.183105,-0.061035
5002821125,0.00126648,0.00271606,-1.00500488,0.183105,0.000000,0.000000
5007847333,0.00143433,0.00271606,-1.00502014,0.366211,0.061035,-0.061035
5012837708,0.00119019,0.00299072,-1.00553894,0.244141,0.000000,0.000000
5017850416,0.00044250,0.00308228,-1.00572205,0.305176,0.000000,-0.061035
5022797458,0.00022888,0.00297546,-1.00538635,0.244141,0.000000,0.000000
5027833625,0.00080872,0.00288391,-1.00517273,0.305176,0.122070,0.000000
5032792041,0.00123596,0.00270081,-1.00561523,0.305176,0.122070,-0.061035
5037852458,0.00146484,0.00239563,-1.00614929,0.366211,0.061035,-0.061035
5042798791,0.00189209,0.00257874,-1.00611877,0.305176,0.000000,-0.122070
5047839333,0.00234985,0.00326538,-1.00572205,0.244141,0.000000,-0.183105
5052807125,0.00239563,0.00350952,-1.00540161,0.305176,0.122070,0.000000
5057826125,0.00195312,0.00317383,-1.00546265,0.488281,0.122070,0.000000
5062828625,0.00160217,0.00296021,-1.00566101,0.244141,0.000000,-0.122070
5067841583,0.00189209,0.00323486,-1.00559998,0.305176,0.183105,0.000000
5072824500,0.00241089,0.00366211,-1.00541687,0.427246,0.061035,0.000000
5077835916,0.00285339,0.00379944,-1.00541687,0.305176,0.000000,-0.061035
5082824208,0.00306702,0.00382996,-1.00578308,0.366211,0.000000,-0.061035
5087805291,0.00302124,0.00425720,-1.00614929,0.427246,0.061035,0.000000
5092817458,0.00289917,0.00440979,-1.00584412,0.427246,-0.061035,-0.061035
5097794291,0.00267029,0.00386047,-1.00527954,0.488281,0.122070,-0.061035
5102866958,0.00227356,0.00341797,-1.00552368,0.366211,0.183105,0.000000
5107818166,0.00195312,0.00354004,-1.00640869,0.366211,0.061035,0.000000
5112832500,0.00184631,0.00363159,-1.00683594,0.183105,0.183105,-0.061035
5117840750,0.00175476,0.00347900,-1.00631714,0.305176,0.061035,-0.183105
5122845083,0.00181580,0.00332642,-1.00559998,0.366211,-0.061035,-0.183105
5127875333,0.00210571,0.00311279,-1.00552368,0.427246,0.000000,-0.122070
5132823791,0.00199890,0.00288391,-1.00587463,0.305176,0.000000,-0.183105
5137863208,0.00137329,0.00262451,-1.00611877,0.305176,0.061035,0.000000
5142848375,0.00090027,0.00259399,-1.00602722,0.305176,0.000000,-0.122070
5147804208,0.00071716,0.00312805,-1.00585938,0.366211,0.000000,-0.122070
5152838166,0.00053406,0.00390625,-1.00595093,0.549316,0.061035,-0.183105
5157821416,0.00053406,0.00421143,-1.00595093,0.366211,0.122070,-0.061035
5162851375,0.00068665,0.00382996,-1.00566101,0.305176,0.061035,-0.061035
5167825625,0.00076294,0.00340271,-1.00556946,0.427246,0.061035,-0.061035
5172847875,0.00086975,0.00317383,-1.00567627,0.305176,0.000000,-0.061035
5177848333,0.00097656,0.00289917,-1.00566101,0.244141,0.000000,-0.061035
5182824416,0.00097656,0.00262451,-1.00566101,0.244141,0.000000,0.061035
5187850000,0.00083923,0.00265503,-1.00563049,0.305176,0.122070,-0.061035
5192862458,0.00079346,0.00289917,-1.00538635,0.305176,0.122070,-0.061035
5197814916,0.00125122,0.00329590,-1.00512695,0.427246,0.061035,-0.061035
5202864083,0.00196838,0.00404358,-1.00514221,0.305176,0.122070,-0.061035
5207858000,0.00244141,0.00476074,-1.00523376,0.366211,0.000000,-0.244141
5212821625,0.00250244,0.00495911,-1.00547791,0.427246,0.183105,-0.122070
5217863166,0.00268555,0.00488281,-1.00559998,0.305176,0.061035,-0.122070
5222855250,0.00331116,0.00482178,-1.00520325,0.244141,0.122070,0.000000
5227856166,0.00354004,0.00465393,-1.00503540,0.183105,0.061035,-0.061035
5232827416,0.00302124,0.00407410,-1.00584412,0.366211,0.061035,-0.122070
5237850208,0.00245667,0.00334167,-1.00671387,0.366211,0.122070,0.061035
5242875041,0.00231934,0.00279236,-1.00660706,0.244141,0.183105,0.000000
5247813666,0.00241089,0.00263977,-1.00569153,0.366211,0.183105,-0.061035
5252870833,0.00241089,0.00268555,-1.00509644,0.305176,0.183105,0.000000
5257860750,0.00205994,0.00260925,-1.00518799,0.427246,0.122070,0.000000
5262870041,0.00160217,0.00241089,-1.00540161,0.305176,-0.061035,0.000000
5267838916,0.00149536,0.00253296,-1.00553894,0.244141,0.000000,-0.061035
5272852166,0.00186157,0.00306702,-1.00573730,0.305176,0.061035,-0.122070
5277851916,0.00207520,0.00332642,-1.00567627,0.305176,0.061035,-0.061035
5282879666,0.00144958,0.00311279,-1.00518799,0.244141,0.061035,-0.122070
5287919000,0.00039673,0.00289917,-1.00485229,0.305176,0.061035,-0.061035
5292865166,0.00001526,0.00286865,-1.00529480,0.366211,0.122070,-0.061035
5297829291,0.00054932,0.00291443,-1.00610352,0.305176,0.000000,-0.183105
5302892458,0.00144958,0.00296021,-1.00650024,0.366211,0.122070,-0.244141
5307860041,0.00207520,0.00325012,-1.00646973,0.305176,0.061035,-0.061035
5312816041,0.00190735,0.00387573,-1.00633240,0.366211,0.000000,-0.061035
5317886541,0.00126648,0.00428772,-1.00611877,0.305176,-0.061035,-0.061035
5322870708,0.00106812,0.00416565,-1.00573730,0.244141,0.000000,-0.061035
5327838000,0.00137329,0.00393677,-1.00549316,0.122070,0.061035,-0.122070
5332840833,0.00175476,0.00404358,-1.00563049,0.366211,0.000000,0.061035
5337883583,0.00196838,0.00419617,-1.00585938,0.305176,-0.061035,-0.061035
5342867041,0.00187683,0.00393677,-1.00584412,0.366211,0.061035,-0.061035
5347881625,0.00143433,0.00367737,-1.00559998,0.244141,0.061035,-0.122070
5352877458,0.00109863,0.00372314,-1.00559998,0.244141,0.061035,-0.122070
5357852958,0.00132751,0.00372314,-1.00592041,0.427246,0.000000,-0.061035
5362857708,0.00187683,0.00367737,-1.00610352,0.244141,0.000000,-0.122070
5367857041,0.00212097,0.00360107,-1.00579834,0.244141,0.122070,-0.122070
5372871583,0.00205994,0.00314331,-1.00555420,0.427246,0.061035,-0.183105
5377858416,0.00222778,0.00274658,-1.00556946,0.366211,0.061035,-0.122070
5382890750,0.00268555,0.00270081,-1.00541687,0.244141,-0.061035,-0.122070
5387857333,0.00296021,0.00263977,-1.00544739,0.305176,0.122070,-0.122070
5392858041,0.00285339,0.00248718,-1.00588989,0.183105,0.122070,0.000000
5397877875,0.00254822,0.00257874,-1.00598145,0.305176,0.122070,-0.122070
5402873333,0.00238037,0.00308228,-1.00558472,0.305176,-0.061035,-0.183105
5407889208,0.00239563,0.00370789,-1.00514221,0.244141,0.061035,0.000000
5412841833,0.00242615,0.00378418,-1.00489807,0.244141,0.000000,-0.122070
5417845041,0.00244141,0.00326538,-1.00492859,0.244141,0.000000,-0.122070
5422887958,0.00239563,0.00279236,-1.00526428,0.305176,0.000000,-0.122070
5427847541,0.00209045,0.00254822,-1.00572205,0.366211,0.061035,-0.061035
5432852708,0.00160217,0.00245667,-1.00642395,0.244141,0.061035,-0.061035
5437853250,0.00117493,0.00267029,-1.00726318,0.366211,0.000000,-0.061035
5442918916,0.00074768,0.00312805,-1.00708008,0.244141,-0.061035,-0.122070
5447877750,0.00045776,0.00343323,-1.00573730,0.244141,0.061035,-0.061035
5452894333,0.00039673,0.00341797,-1.00491333,0.305176,0.000000,-0.061035
5457855625,0.00036621,0.00315857,-1.00512695,0.366211,0.244141,-0.183105
5462839583,0.00053406,0.00291443,-1.00558472,0.244141,0.183105,-0.061035
5467861833,0.00099182,0.00276184,-1.00569153,0.244141,0.122070,0.000000
5472930166,0.00140381,0.00251770,-1.00552368,0.366211,0.122070,-0.061035
5477897166,0.00143433,0.00222778,-1.00563049,0.305176,0.122070,0.000000
5482852291,0.00115967,0.00204468,-1.00607300,0.305176,-0.061035,-0.061035
5487863458,0.00097656,0.00225830,-1.00639343,0.244141,0.000000,-0.122070
5492896291,0.00129700,0.00271606,-1.00639343,0.305176,0.000000,-0.122070
5497906250,0.00221252,0.00299072,-1.00611877,0.305176,0.122070,-0.122070
5502895583,0.00311279,0.00311279,-1.00587463,0.427246,0.183105,0.061035
5507881833,0.00344849,0.00364685,-1.00582886,0.366211,0.061035,-0.122070
5512843875,0.00320435,0.00448608,-1.00576782,0.366211,0.000000,0.000000
5517888208,0.00273132,0.00495911,-1.00559998,0.366211,0.061035,-0.122070
5522877208,0.00242615,0.00482178,-1.00564575,0.244141,0.122070,0.061035
5527898500,0.00234985,0.00439453,-1.00582886,0.305176,0.122070,-0.183105
5532857791,0.00221252,0.00416565,-1.00592041,0.427246,0.000000,-0.061035
5537858583,0.00169373,0.00395203,-1.00599670,0.366211,0.061035,-0.061035
5542906791,0.00111389,0.00364685,-1.00619507,0.244141,0.061035,-0.122070
5547858958,0.00086975,0.00361633,-1.00619507,0.366211,0.061035,-0.122070
5552900375,0.00083923,0.00367737,-1.00581360,0.183105,-0.061035,-0.122070
5557892791,0.00057983,0.00343323,-1.00541687,0.427246,0.000000,-0.061035
5562888125,0.00041199,0.00321960,-1.00531006,0.488281,0.061035,0.061035
5567883208,0.00073242,0.00321960,-1.00541687,0.305176,0.122070,-0.122070
5572874291,0.00070190,0.00305176,-1.00566101,0.366211,0.061035,0.000000
5577902750,0.00024414,0.00263977,-1.00585938,0.366211,0.000000,0.000000
5582878083,0.00016785,0.00238037,-1.00576782,0.244141,-0.061035,0.000000
5587897958,0.00061035,0.00236511,-1.00534058,0.305176,0.061035,-0.122070
5592890916,0.00102234,0.00234985,-1.00532532,0.366211,0.122070,0.000000
5597865666,0.00138855,0.00228882,-1.00617981,0.366211,0.000000,0.000000
5602914708,0.00209045,0.00251770,-1.00683594,0.244141,0.122070,-0.061035
5607899166,0.00263977,0.00285339,-1.00605774,0.427246,0.061035,-0.061035
5612900375,0.00233459,0.00309753,-1.00456238,0.244141,0.061035,0.000000
5617865916,0.00181580,0.00341797,-1.00405884,0.244141,0.000000,0.000000
5622864916,0.00184631,0.00389099,-1.00502014,0.305176,0.122070,-0.061035
5627904958,0.00184631,0.00422668,-1.00605774,0.366211,0.061035,-0.183105
5632874708,0.00152588,0.00398254,-1.00628662,0.366211,0.000000,-0.122070
5637871708,0.00115967,0.00347900,-1.00605774,0.366211,0.000000,0.000000
5642914958,0.00111389,0.00358582,-1.00573730,0.244141,0.000000,-0.061035
5647865208,0.00151062,0.00413513,-1.00546265,0.366211,0.000000,0.000000
5652908666,0.00189209,0.00427246,-1.00535583,0.427246,0.061035,-0.061035
5657903791,0.00177002,0.00389099,-1.00549316,0.305176,0.122070,-0.061035
5662923041,0.00137329,0.00343323,-1.00584412,0.183105,0.000000,-0.183105
5667903291,0.00122070,0.00303650,-1.00593567,0.366211,0.183105,0.000000
5672906333,0.00102234,0.00251770,-1.00579834,0.366211,-0.061035,-0.061035
5677909208,0.00048828,0.00205994,-1.00582886,0.366211,0.000000,-0.122070
5682877541,0.00013733,0.00192261,-1.00598145,0.305176,0.061035,-0.061035
5687914250,0.00018311,0.00227356,-1.00587463,0.366211,0.000000,0.000000
5692918583,0.00067139,0.00288391,-1.00540161,0.366211,0.000000,-0.122070
5697911416,0.00144958,0.00337219,-1.00517273,0.427246,0.000000,-0.183105
5702905291,0.00183105,0.00349426,-1.00553894,0.366211,0.061035,-0.061035
5707884250,0.00152588,0.00344849,-1.00595093,0.305176,0.061035,-0.122070
5712927375,0.00138855,0.00350952,-1.00581360,0.305176,0.122070,0.000000
5717875291,0.00207520,0.00349426,-1.00537109,0.366211,0.183105,-0.122070
5722945458,0.00285339,0.00331116,-1.00515747,0.183105,0.000000,-0.122070
5727942208,0.00286865,0.00337219,-1.00502014,0.305176,0.000000,-0.183105
5732876375,0.00262451,0.00393677,-1.00500488,0.427246,0.122070,-0.061035
5737912875,0.00280762,0.00450134,-1.00526428,0.427246,0.000000,-0.061035
5742911666,0.00299072,0.00422668,-1.00566101,0.244141,0.183105,0.000000
5747902625,0.00256348,0.00340271,-1.00590515,0.366211,0.122070,-0.061035
5752890750,0.00213623,0.00291443,-1.00587463,0.366211,0.061035,0.000000
5757888416,0.00196838,0.00289917,-1.00561523,0.183105,0.000000,-0.122070
5762876375,0.00195312,0.00311279,-1.00538635,0.244141,0.061035,0.000000
5767898875,0.00201416,0.00314331,-1.00523376,0.549316,0.183105,-0.122070
5772912583,0.00183105,0.00303650,-1.00489807,0.366211,0.000000,-0.122070
5777919125,0.00106812,0.00305176,-1.00460815,0.244141,0.122070,-0.061035
5782888208,0.00033569,0.00294495,-1.00476074,0.366211,0.122070,0.000000
5787911750,0.00048828,0.00267029,-1.00520325,0.305176,0.061035,-0.061035
5792919875,0.00134277,0.00282288,-1.00532532,0.305176,0.000000,-0.061035
5797913166,0.00198364,0.00364685,-1.00505066,0.244141,0.000000,-0.122070
5802911708,0.00195312,0.00411987,-1.00509644,0.366211,0.122070,0.000000
5807889958,0.00135803,0.00363159,-1.00558472,0.305176,0.061035,-0.122070
5812902166,0.00067139,0.00297546,-1.00590515,0.366211,0.061035,0.000000
5817909250,0.00053406,0.00292969,-1.00575256,0.427246,0.061035,-0.122070
5822882333,0.00085449,0.00325012,-1.00540161,0.427246,0.061035,-0.122070
5827929583,0.00123596,0.00346375,-1.00506592,0.305176,0.244141,-0.061035
5832888458,0.00152588,0.00354004,-1.00495911,0.366211,0.122070,-0.122070
5837914208,0.00157166,0.00350952,-1.00535583,0.244141,0.122070,-0.122070
5842924708,0.00154114,0.00331116,-1.00585938,0.244141,0.061035,-0.061035
5847881250,0.00161743,0.00309753,-1.00564575,0.305176,0.183105,-0.061035
5852924291,0.00173950,0.00318909,-1.00514221,0.305176,0.061035,-0.122070
5857896125,0.00186157,0.00317383,-1.00491333,0.305176,-0.061035,-0.122070
5862926333,0.00180054,0.00256348,-1.00505066,0.305176,-0.061035,-0.122070
5867917041,0.00152588,0.00177002,-1.00515747,0.366211,-0.061035,-0.122070
5872937291,0.00128174,0.00160217,-1.00483704,0.305176,0.000000,-0.183105
5877932583,0.00117493,0.00196838,-1.00466919,0.305176,0.122070,0.000000
5882873958,0.00137329,0.00238037,-1.00517273,0.488281,0.061035,0.000000
5887932958,0.00151062,0.00250244,-1.00558472,0.366211,0.061035,-0.061035
5892937291,0.00128174,0.00245667,-1.00555420,0.366211,0.061035,-0.061035
5897902458,0.00103760,0.00244141,-1.00541687,0.183105,0.122070,-0.061035
5902927583,0.00126648,0.00256348,-1.00552368,0.427246,0.061035,0.061035
5907953708,0.00183105,0.00276184,-1.00578308,0.366211,0.000000,0.000000
5912930958,0.00201416,0.00276184,-1.00581360,0.427246,0.061035,-0.061035
5917961416,0.00158691,0.00294495,-1.00540161,0.305176,0.183105,0.061035
5922949333,0.00135803,0.00354004,-1.00509644,0.366211,0.000000,-0.061035
5927922583,0.00166321,0.00411987,-1.00532532,0.305176,0.183105,0.000000
5932917583,0.00196838,0.00422668,-1.00592041,0.305176,0.000000,-0.061035
5937951958,0.00195312,0.00381470,-1.00642395,0.427246,0.061035,-0.183105
5942926833,0.00172424,0.00357056,-1.00659180,0.244141,0.061035,-0.061035
5947910125,0.00164795,0.00402832,-1.00624084,0.305176,0.061035,-0.183105
5952931875,0.00169373,0.00450134,-1.00563049,0.305176,0.061035,-0.122070
5957941416,0.00167847,0.00415039,-1.00532532,0.427246,0.000000,-0.122070
5962942125,0.00181580,0.00349426,-1.00549316,0.366211,0.061035,-0.061035
5967918250,0.00189209,0.00315857,-1.00598145,0.305176,0.000000,-0.061035
5972931208,0.00154114,0.00315857,-1.00624084,0.366211,0.061035,-0.183105
5977909208,0.00115967,0.00323486,-1.00582886,0.366211,0.122070,-0.061035
5982901333,0.00119019,0.00305176,-1.00518799,0.427246,0.000000,0.000000
5987893083,0.00128174,0.00286865,-1.00512695,0.244141,0.061035,-0.122070
5992883208,0.00111389,0.00276184,-1.00535583,0.305176,0.122070,-0.061035
5997893750,0.00103760,0.00259399,-1.00524902,0.366211,-0.061035,-0.122070
6002929791,0.00135803,0.00245667,-1.00509644,0.366211,0.061035,-0.183105
6007934750,0.00158691,0.00259399,-1.00523376,0.305176,0.061035,-0.122070
6012923916,0.00144958,0.00283813,-1.00540161,0.427246,0.061035,-0.061035
6017952833,0.00151062,0.00286865,-1.00543213,0.427246,0.061035,0.000000
6022919708,0.00166321,0.00292969,-1.00535583,0.305176,0.000000,-0.122070
6027955166,0.00177002,0.00315857,-1.00518799,0.366211,0.061035,-0.061035
6032910083,0.00204468,0.00317383,-1.00524902,0.427246,0.061035,0.000000
6037975166,0.00213623,0.00305176,-1.00564575,0.427246,0.000000,-0.122070
6042945958,0.00183105,0.00334167,-1.00595093,0.549316,0.061035,-0.061035
6047951541,0.00154114,0.00395203,-1.00563049,0.427246,0.122070,-0.122070
6052967375,0.00173950,0.00404358,-1.00506592,0.244141,0.000000,0.000000
6057922416,0.00221252,0.00366211,-1.00495911,0.305176,0.061035,0.000000
6062964750,0.00230408,0.00337219,-1.00541687,0.305176,0.061035,-0.122070
6067945041,0.00186157,0.00317383,-1.00575256,0.305176,0.122070,-0.122070
6072956000,0.00161743,0.00296021,-1.00549316,0.366211,0.122070,-0.122070
6077947000,0.00209045,0.00274658,-1.00517273,0.305176,0.122070,-0.061035
6082941666,0.00296021,0.00259399,-1.00555420,0.244141,0.061035,-0.122070
6087959916,0.00326538,0.00296021,-1.00621033,0.305176,0.122070,-0.061035
6092967083,0.00251770,0.00358582,-1.00634766,0.366211,0.061035,0.000000
6097957541,0.00126648,0.00367737,-1.00610352,0.427246,0.061035,-0.061035
6102920291,0.00053406,0.00325012,-1.00607300,0.427246,0.122070,0.000000
6107916750,0.00094604,0.00288391,-1.00601196,0.366211,0.061035,-0.122070
6112934291,0.00177002,0.00283813,-1.00561523,0.305176,0.000000,-0.122070
6117929666,0.00190735,0.00291443,-1.00532532,0.244141,0.061035,0.000000
6122958208,0.00155640,0.00309753,-1.00569153,0.366211,0.000000,-0.183105
6127969458,0.00155640,0.00350952,-1.00613403,0.366211,0.183105,-0.122070
6132927166,0.00218201,0.00376892,-1.00593567,0.305176,0.183105,-0.061035
6137978000,0.00262451,0.00355530,-1.00537109,0.305176,0.122070,-0.061035
6142925750,0.00218201,0.00309753,-1.00520325,0.244141,0.061035,-0.122070
6147951875,0.00151062,0.00283813,-1.00564575,0.244141,0.244141,-0.122070
6152946500,0.00190735,0.00271606,-1.00621033,0.183105,0.061035,-0.122070
6157954250,0.00291443,0.00245667,-1.00645447,0.244141,0.000000,-0.244141
6162941416,0.00297546,0.00238037,-1.00617981,0.305176,0.000000,-0.122070
6167939208,0.00196838,0.00300598,-1.00563049,0.427246,0.000000,0.061035
6172980333,0.00114441,0.00363159,-1.00556946,0.366211,0.000000,-0.183105
6177990500,0.00135803,0.00366211,-1.00602722,0.305176,0.061035,-0.122070
6182938625,0.00210571,0.00350952,-1.00604248,0.244141,0.000000,-0.183105
6187975875,0.00251770,0.00376892,-1.00529480,0.427246,0.122070,0.000000
6192982458,0.00251770,0.00411987,-1.00485229,0.244141,-0.061035,-0.122070
6197972750,0.00224304,0.00393677,-1.00505066,0.244141,0.000000,0.000000
6202986291,0.00181580,0.00349426,-1.00506592,0.183105,0.061035,-0.061035
6207975375,0.00166321,0.00335693,-1.00468445,0.366211,0.122070,0.000000
6212970500,0.00164795,0.00367737,-1.00457764,0.427246,-0.061035,0.000000
6217973333,0.00154114,0.00415039,-1.00514221,0.244141,0.061035,0.000000
6222978750,0.00134277,0.00392151,-1.00567627,0.366211,0.244141,-0.122070
6227951166,0.00111389,0.00320435,-1.00549316,0.488281,0.000000,-0.244141
6232933291,0.00100708,0.00326538,-1.00512695,0.244141,0.122070,0.061035
6237961791,0.00128174,0.00396729,-1.00534058,0.244141,0.000000,-0.122070
6242980541,0.00172424,0.00413513,-1.00582886,0.366211,0.061035,-0.061035
6247941916,0.00170898,0.00360107,-1.00592041,0.427246,0.000000,-0.122070
6252929750,0.00125122,0.00329590,-1.00535583,0.305176,0.122070,-0.244141
6257945916,0.00097656,0.00369263,-1.00457764,0.427246,0.061035,-0.122070
6262972750,0.00125122,0.00424194,-1.00457764,0.366211,0.000000,-0.061035
6267950291,0.00172424,0.00439453,-1.00531006,0.366211,0.000000,-0.061035
6272972708,0.00172424,0.00419617,-1.00573730,0.244141,0.000000,-0.122070
6277971375,0.00131226,0.00393677,-1.00538635,0.427246,0.122070,-0.061035
6282973958,0.00137329,0.00372314,-1.00498962,0.244141,0.000000,-0.061035
6287973958,0.00192261,0.00340271,-1.00515747,0.366211,0.000000,-0.122070
6292966708,0.00213623,0.00337219,-1.00567627,0.427246,0.122070,-0.061035
6297946250,0.00184631,0.00360107,-1.00573730,0.244141,-0.061035,0.000000
6302980541,0.00158691,0.00349426,-1.00529480,0.366211,0.122070,-0.122070
6307986875,0.00180054,0.00326538,-1.00517273,0.549316,0.000000,0.000000
6312965291,0.00225830,0.00328064,-1.00547791,0.305176,0.122070,-0.061035
6317946791,0.00244141,0.00340271,-1.00559998,0.427246,0.000000,0.000000
6322981666,0.00231934,0.00346375,-1.00540161,0.427246,0.122070,-0.061035
6327986958,0.00222778,0.00363159,-1.00509644,0.305176,0.061035,0.000000
6332958833,0.00212097,0.00389099,-1.00489807,0.244141,-0.061035,-0.122070
6337951333,0.00192261,0.00398254,-1.00500488,0.366211,0.183105,-0.061035
6342988458,0.00175476,0.00392151,-1.00531006,0.366211,0.061035,-0.183105
6347961666,0.00192261,0.00369263,-1.00534058,0.183105,0.061035,-0.061035
6352991583,0.00231934,0.00326538,-1.00506592,0.366211,0.000000,-0.061035
6357983875,0.00236511,0.00315857,-1.00506592,0.305176,0.061035,0.000000
6362963083,0.00198364,0.00354004,-1.00550842,0.183105,0.000000,0.000000
6367976916,0.00204468,0.00384521,-1.00581360,0.488281,0.000000,-0.183105
6372998666,0.00250244,0.00361633,-1.00602722,0.366211,-0.122070,-0.061035
6377992708,0.00242615,0.00311279,-1.00672913,0.427246,0.000000,0.000000
6382997000,0.00195312,0.00285339,-1.00708008,0.427246,0.000000,0.000000
6388001208,0.00178528,0.00282288,-1.00608826,0.183105,-0.061035,0.061035
6393003708,0.00195312,0.00259399,-1.00483704,0.244141,-0.061035,-0.183105
6397989125,0.00202942,0.00202942,-1.00460815,0.427246,0.183105,-0.122070
6403000958,0.00172424,0.00166321,-1.00515747,0.305176,0.061035,0.061035
6408008333,0.00134277,0.00181580,-1.00561523,0.305176,0.122070,-0.122070
6412971125,0.00129700,0.00247192,-1.00546265,0.427246,0.000000,-0.061035
6417962375,0.00141907,0.00318909,-1.00512695,0.122070,-0.061035,-0.122070
6422974208,0.00148010,0.00364685,-1.00509644,0.305176,0.061035,-0.061035
6428064333,0.00146484,0.00392151,-1.00495911,0.305176,0.061035,-0.061035
6432995250,0.00149536,0.00416565,-1.00460815,0.366211,0.000000,0.000000
6437978625,0.00163269,0.00419617,-1.00463867,0.366211,0.061035,0.000000
6442939375,0.00192261,0.00413513,-1.00498962,0.244141,0.061035,-0.061035
6448016375,0.00242615,0.00431824,-1.00526428,0.305176,0.061035,0.000000
6452956541,0.00250244,0.00451660,-1.00567627,0.244141,0.122070,0.000000
6457984666,0.00198364,0.00442505,-1.00588989,0.366211,0.061035,-0.061035
6462977166,0.00169373,0.00392151,-1.00570679,0.366211,0.122070,-0.122070
6467992916,0.00178528,0.00325012,-1.00573730,0.366211,0.183105,0.000000
6473001291,0.00177002,0.00299072,-1.00604248,0.183105,0.061035,0.061035
6477973958,0.00170898,0.00314331,-1.00617981,0.244141,0.183105,-0.122070
6483002541,0.00215149,0.00303650,-1.00621033,0.366211,0.061035,-0.061035
6488000416,0.00276184,0.00277710,-1.00601196,0.366211,0.000000,-0.061035
6492985833,0.00282288,0.00294495,-1.00541687,0.244141,0.000000,-0.061035
6498002458,0.00231934,0.00326538,-1.00469971,0.366211,0.122070,-0.061035
6502992541,0.00154114,0.00314331,-1.00462341,0.122070,0.000000,-0.061035
6507994291,0.00109863,0.00279236,-1.00540161,0.305176,0.122070,-0.061035
6512984458,0.00122070,0.00283813,-1.00622559,0.305176,0.122070,0.061035
6517989958,0.00126648,0.00343323,-1.00595093,0.366211,-0.061035,-0.061035
6523003750,0.00097656,0.00396729,-1.00506592,0.305176,0.122070,0.000000
6528012416,0.00100708,0.00369263,-1.00483704,0.305176,0.122070,0.000000
6532969833,0.00132751,0.00303650,-1.00541687,0.244141,0.122070,-0.061035
6538022125,0.00152588,0.00294495,-1.00596619,0.488281,-0.061035,-0.122070
6543018750,0.00164795,0.00349426,-1.00561523,0.183105,0.061035,-0.122070
6547978250,0.00169373,0.00393677,-1.00469971,0.244141,0.061035,0.000000
6553027000,0.00138855,0.00392151,-1.00450134,0.244141,0.061035,-0.122070
6558014041,0.00125122,0.00349426,-1.00524902,0.305176,0.122070,-0.122070
6562989458,0.00172424,0.00292969,-1.00624084,0.366211,0.122070,0.061035
6567983291,0.00218201,0.00268555,-1.00671387,0.366211,0.183105,0.000000
6573001333,0.00199890,0.00262451,-1.00679016,0.244141,0.122070,0.000000
6577981416,0.00172424,0.00263977,-1.00674438,0.366211,0.122070,-0.061035
6582980541,0.00180054,0.00308228,-1.00630188,0.305176,0.183105,-0.122070
6587985375,0.00193787,0.00361633,-1.00546265,0.305176,0.000000,-0.122070
6593016791,0.00186157,0.00350952,-1.00529480,0.366211,0.061035,-0.122070
6597980625,0.00154114,0.00326538,-1.00617981,0.427246,0.122070,-0.122070
6603028041,0.00163269,0.00346375,-1.00689697,0.366211,0.183105,-0.061035
6608004166,0.00218201,0.00379944,-1.00642395,0.244141,0.061035,0.000000
6612990041,0.00239563,0.00376892,-1.00564575,0.366211,0.061035,0.000000
6618026083,0.00201416,0.00346375,-1.00546265,0.305176,0.122070,0.000000
6622970583,0.00170898,0.00309753,-1.00534058,0.366211,0.122070,0.000000
6627994583,0.00209045,0.00277710,-1.00486755,0.183105,0.000000,-0.061035
6632985333,0.00286865,0.00277710,-1.00474548,0.183105,0.061035,-0.244141
6637985916,0.00273132,0.00305176,-1.00547791,0.305176,0.061035,-0.122070
6642977333,0.00157166,0.00329590,-1.00634766,0.488281,0.061035,-0.061035
6647982083,0.00074768,0.00331116,-1.00669861,0.305176,0.000000,0.000000
6652977541,0.00115967,0.00325012,-1.00675964,0.427246,0.061035,-0.061035
6657981083,0.00198364,0.00335693,-1.00639343,0.244141,-0.122070,-0.122070
6663002166,0.00190735,0.00361633,-1.00544739,0.183105,0.122070,-0.244141
6668026708,0.00128174,0.00384521,-1.00448608,0.366211,0.122070,-0.122070
6672995916,0.00111389,0.00386047,-1.00437927,0.244141,0.122070,0.000000
6678013541,0.00134277,0.00384521,-1.00503540,0.244141,0.183105,-0.122070
6683017500,0.00140381,0.00407410,-1.00541687,0.488281,0.061035,-0.122070
6688020625,0.00111389,0.00411987,-1.00515747,0.366211,0.000000,0.000000
6692994458,0.00080872,0.00373840,-1.00488281,0.183105,0.061035,-0.061035
6698009875,0.00097656,0.00340271,-1.00488281,0.305176,0.061035,-0.122070
6703036708,0.00148010,0.00341797,-1.00502014,0.244141,0.000000,0.000000
6708033833,0.00199890,0.00341797,-1.00503540,0.244141,0.061035,0.000000
6712997375,0.00204468,0.00314331,-1.00521851,0.244141,0.061035,0.000000
6718052250,0.00144958,0.00291443,-1.00564575,0.427246,0.061035,0.000000
6723014416,0.00071716,0.00297546,-1.00592041,0.427246,-0.061035,-0.061035
6728030833,0.00032043,0.00303650,-1.00598145,0.244141,0.061035,-0.183105
6733014250,0.00012207,0.00274658,-1.00614929,0.183105,0.000000,-0.122070
6738017375,0.00035095,0.00247192,-1.00645447,0.366211,0.061035,-0.183105
6743046000,0.00102234,0.00253296,-1.00595093,0.366211,0.061035,-0.061035
6748012166,0.00151062,0.00263977,-1.00454712,0.244141,0.000000,-0.061035
6753004958,0.00158691,0.00253296,-1.00411987,0.366211,0.122070,-0.061035
6758008250,0.00161743,0.00242615,-1.00526428,0.366211,0.061035,0.000000
6763038250,0.00183105,0.00241089,-1.00657654,0.305176,0.183105,0.000000
6768034791,0.00205994,0.00253296,-1.00674438,0.244141,0.122070,-0.061035
6773015000,0.00227356,0.00289917,-1.00573730,0.366211,-0.061035,-0.183105
6778017208,0.00224304,0.00317383,-1.00488281,0.183105,0.061035,-0.183105
6783046708,0.00187683,0.00317383,-1.00491333,0.488281,0.183105,0.000000
6788020416,0.00138855,0.00343323,-1.00497437,0.488281,0.000000,0.061035
6793009083,0.00109863,0.00401306,-1.00453186,0.427246,0.000000,-0.061035
6798011458,0.00122070,0.00419617,-1.00405884,0.305176,0.061035,-0.061035
6803098750,0.00144958,0.00390625,-1.00416565,0.427246,0.122070,-0.061035
6808023125,0.00161743,0.00354004,-1.00473022,0.305176,0.244141,-0.061035
6813026500,0.00152588,0.00335693,-1.00537109,0.244141,0.061035,-0.061035
6818019041,0.00088501,0.00335693,-1.00579834,0.305176,0.183105,0.061035
6823004291,0.00035095,0.00326538,-1.00582886,0.305176,0.183105,-0.122070
6828015000,0.00085449,0.00302124,-1.00558472,0.366211,0.122070,0.000000
6833037208,0.00178528,0.00279236,-1.00535583,0.366211,0.000000,0.000000
6838038041,0.00196838,0.00276184,-1.00514221,0.366211,0.061035,0.000000
6843028333,0.00161743,0.00286865,-1.00495911,0.305176,0.000000,0.061035
6848014416,0.00181580,0.00305176,-1.00495911,0.305176,0.061035,-0.061035
6853021958,0.00248718,0.00343323,-1.00521851,0.305176,0.122070,-0.061035
6858000458,0.00259399,0.00364685,-1.00549316,0.427246,0.122070,0.061035
6863014666,0.00241089,0.00340271,-1.00575256,0.305176,0.122070,-0.061035
6868031208,0.00250244,0.00302124,-1.00588989,0.305176,0.061035,-0.122070
6873032666,0.00233459,0.00289917,-1.00590515,0.488281,0.122070,0.061035
6878022333,0.00178528,0.00317383,-1.00587463,0.305176,0.000000,-0.061035
6883046125,0.00151062,0.00358582,-1.00576782,0.366211,0.183105,-0.061035
6887999250,0.00192261,0.00369263,-1.00556946,0.305176,0.122070,0.000000
6893021250,0.00279236,0.00332642,-1.00556946,0.305176,0.061035,0.000000
6898022875,0.00329590,0.00306702,-1.00569153,0.305176,0.000000,-0.061035
6903077750,0.00283813,0.00325012,-1.00561523,0.427246,0.122070,0.000000
6908035208,0.00186157,0.00347900,-1.00564575,0.244141,0.122070,-0.061035
6913028250,0.00108337,0.00347900,-1.00590515,0.305176,-0.061035,-0.122070
6918034416,0.00059509,0.00343323,-1.00598145,0.244141,0.000000,-0.122070
6923028458,0.00009155,0.00344849,-1.00595093,0.183105,0.122070,-0.061035
6928034291,-0.00004578,0.00343323,-1.00605774,0.366211,0.122070,-0.061035
6933034041,0.00054932,0.00326538,-1.00607300,0.427246,0.122070,0.000000
6938037833,0.00112915,0.00286865,-1.00559998,0.366211,0.061035,-0.122070
6943027625,0.00109863,0.00236511,-1.00518799,0.305176,0.000000,-0.061035
6948050916,0.00117493,0.00207520,-1.00521851,0.183105,-0.061035,0.000000
6953040833,0.00166321,0.00224304,-1.00524902,0.244141,0.122070,-0.061035
6958253791,0.00201416,0.00245667,-1.00527954,0.305176,0.061035,0.000000
6963026625,0.00216675,0.00242615,-1.00582886,0.244141,0.000000,0.000000
6968051083,0.00233459,0.00263977,-1.00643921,0.427246,0.122070,0.000000
6973035583,0.00247192,0.00328064,-1.00610352,0.427246,0.122070,-0.061035
6978058291,0.00271606,0.00369263,-1.00529480,0.366211,0.000000,-0.122070
6983077916,0.00334167,0.00350952,-1.00521851,0.183105,0.061035,-0.061035
6988036875,0.00366211,0.00328064,-1.00567627,0.427246,0.061035,-0.061035
6993032666,0.00306702,0.00323486,-1.00578308,0.427246,0.183105,-0.061035
6998049833,0.00219727,0.00344849,-1.00550842,0.366211,0.061035,0.000000
7003044500,0.00193787,0.00375366,-1.00520325,0.305176,0.244141,-0.122070
7008025333,0.00195312,0.00367737,-1.00508118,0.366211,0.061035,-0.122070
7013041791,0.00151062,0.00309753,-1.00534058,0.244141,0.122070,0.000000
7018074458,0.00082397,0.00268555,-1.00556946,0.427246,0.000000,-0.061035
7023039041,0.00077820,0.00308228,-1.00549316,0.244141,0.122070,0.061035
7028046833,0.00114441,0.00358582,-1.00543213,0.305176,0.061035,-0.061035
7033092625,0.00114441,0.00366211,-1.00563049,0.366211,0.000000,-0.061035
7038064750,0.00061035,0.00376892,-1.00582886,0.427246,0.183105,-0.061035
7043042583,0.00012207,0.00373840,-1.00572205,0.305176,0.000000,0.000000
7048055708,0.00025940,0.00312805,-1.00547791,0.244141,0.061035,0.000000
7053037125,0.00085449,0.00247192,-1.00555420,0.305176,0.061035,-0.122070
7058042083,0.00163269,0.00219727,-1.00567627,0.305176,0.000000,-0.061035
7063052708,0.00242615,0.00205994,-1.00553894,0.183105,0.122070,0.000000
7068051041,0.00276184,0.00199890,-1.00544739,0.122070,0.061035,-0.061035
7073081250,0.00265503,0.00230408,-1.00532532,0.183105,0.061035,0.000000
7078085416,0.00267029,0.00292969,-1.00473022,0.244141,0.061035,0.000000
7083085791,0.00277710,0.00321960,-1.00413513,0.305176,0.061035,-0.061035
7088075333,0.00268555,0.00296021,-1.00416565,0.427246,-0.061035,-0.183105
7093072333,0.00270081,0.00285339,-1.00462341,0.305176,0.122070,0.000000
7098082416,0.00283813,0.00340271,-1.00492859,0.366211,0.122070,-0.061035
7103095041,0.00265503,0.00413513,-1.00492859,0.183105,0.061035,-0.122070
7108071666,0.00218201,0.00436401,-1.00471497,0.366211,-0.061035,-0.122070
7113031166,0.00187683,0.00440979,-1.00437927,0.305176,0.000000,0.000000
7118079333,0.00178528,0.00469971,-1.00418091,0.366211,0.000000,-0.122070
7123044541,0.00163269,0.00482178,-1.00462341,0.366211,0.000000,-0.183105
7128050000,0.00155640,0.00444031,-1.00547791,0.244141,0.000000,-0.183105
7133043333,0.00119019,0.00413513,-1.00588989,0.427246,0.183105,-0.122070
7138083083,0.00048828,0.00422668,-1.00564575,0.305176,0.000000,-0.122070
7143068208,0.00032043,0.00436401,-1.00514221,0.305176,0.122070,-0.061035
7148073583,0.00070190,0.00408936,-1.00485229,0.366211,0.122070,-0.122070
7153068208,0.00083923,0.00332642,-1.00520325,0.366211,0.122070,-0.122070
7158078666,0.00071716,0.00239563,-1.00608826,0.366211,0.122070,-0.122070
7163054500,0.00090027,0.00175476,-1.00695801,0.366211,0.061035,0.000000
7168064666,0.00117493,0.00173950,-1.00700378,0.305176,0.183105,-0.061035
7173089250,0.00093079,0.00195312,-1.00607300,0.366211,0.122070,-0.183105
7178077125,0.00022888,0.00212097,-1.00505066,0.427246,0.122070,-0.122070
7183048000,-0.00013733,0.00248718,-1.00497437,0.183105,0.061035,0.000000
7188100041,0.00057983,0.00286865,-1.00553894,0.427246,0.061035,-0.061035
7193089458,0.00201416,0.00309753,-1.00567627,0.427246,0.122070,0.000000
7198080375,0.00297546,0.00334167,-1.00527954,0.305176,-0.061035,0.000000
7203066125,0.00309753,0.00378418,-1.00521851,0.366211,0.122070,-0.061035
7208079833,0.00279236,0.00427246,-1.00555420,0.183105,0.122070,-0.122070
7213082833,0.00273132,0.00436401,-1.00552368,0.305176,0.000000,-0.061035
7218094666,0.00296021,0.00407410,-1.00511169,0.305176,0.000000,-0.122070
7223092750,0.00274658,0.00386047,-1.00485229,0.427246,0.122070,-0.122070
7228098000,0.00212097,0.00393677,-1.00497437,0.366211,0.000000,-0.061035
7233062208,0.00189209,0.00408936,-1.00527954,0.305176,0.122070,0.000000
7238101291,0.00227356,0.00382996,-1.00553894,0.244141,0.183105,-0.061035
7243101416,0.00238037,0.00332642,-1.00579834,0.183105,-0.061035,-0.122070
7248067250,0.00175476,0.00323486,-1.00604248,0.305176,0.122070,-0.061035
7253090041,0.00111389,0.00357056,-1.00578308,0.427246,0.061035,-0.122070
7258090708,0.00112915,0.00367737,-1.00498962,0.244141,0.000000,-0.061035
7263078583,0.00132751,0.00332642,-1.00479126,0.183105,0.122070,-0.122070
7268067125,0.00102234,0.00294495,-1.00549316,0.244141,-0.061035,-0.183105
7273054208,0.00056458,0.00280762,-1.00578308,0.305176,0.183105,-0.061035
7278093125,0.00048828,0.00274658,-1.00494385,0.305176,0.061035,-0.122070
7283106875,0.00064087,0.00265503,-1.00439453,0.427246,-0.061035,-0.122070
7288079000,0.00091553,0.00274658,-1.00515747,0.427246,0.061035,0.000000
7293093458,0.00140381,0.00292969,-1.00602722,0.366211,0.122070,-0.122070
7298067375,0.00202942,0.00303650,-1.00564575,0.305176,0.122070,0.061035
7303118500,0.00260925,0.00323486,-1.00477600,0.122070,0.061035,-0.244141
7308093083,0.00286865,0.00366211,-1.00469971,0.305176,0.061035,-0.061035
7313095750,0.00315857,0.00416565,-1.00524902,0.305176,0.061035,-0.061035
7318127833,0.00376892,0.00434875,-1.00567627,0.366211,0.061035,-0.122070
7323063708,0.00364685,0.00411987,-1.00544739,0.244141,-0.061035,-0.244141
7328108708,0.00254822,0.00379944,-1.00500488,0.305176,0.122070,-0.061035
7333077708,0.00178528,0.00352478,-1.00531006,0.366211,0.000000,0.000000
7338069500,0.00198364,0.00352478,-1.00593567,0.305176,0.000000,0.061035
7343117416,0.00234985,0.00366211,-1.00590515,0.244141,0.122070,0.000000
7348112291,0.00219727,0.00360107,-1.00529480,0.244141,0.061035,-0.061035
7353071083,0.00172424,0.00343323,-1.00485229,0.366211,0.183105,0.000000
7358072791,0.00144958,0.00337219,-1.00491333,0.244141,0.122070,-0.061035
7363067625,0.00148010,0.00338745,-1.00520325,0.305176,-0.061035,-0.183105
7368098500,0.00135803,0.00340271,-1.00526428,0.183105,0.061035,0.061035
7373113291,0.00122070,0.00326538,-1.00512695,0.244141,0.000000,-0.061035
7378099875,0.00105286,0.00311279,-1.00541687,0.244141,0.061035,0.000000
7383072458,0.00079346,0.00323486,-1.00608826,0.549316,0.000000,-0.122070
7388112666,0.00100708,0.00357056,-1.00646973,0.305176,-0.061035,-0.061035
7393118208,0.00152588,0.00373840,-1.00631714,0.183105,-0.061035,-0.183105
7398101208,0.00154114,0.00357056,-1.00578308,0.305176,0.061035,-0.061035
7403123833,0.00131226,0.00326538,-1.00543213,0.305176,0.061035,0.061035
7408081708,0.00149536,0.00260925,-1.00556946,0.305176,0.122070,-0.122070
7413107666,0.00212097,0.00181580,-1.00595093,0.488281,0.183105,-0.061035
7418127083,0.00265503,0.00172424,-1.00639343,0.305176,0.061035,0.000000
7423124791,0.00254822,0.00209045,-1.00663757,0.366211,0.061035,0.061035
7428122041,0.00210571,0.00233459,-1.00651550,0.305176,0.000000,-0.244141
7433083250,0.00195312,0.00256348,-1.00611877,0.244141,0.122070,-0.122070
7438117000,0.00219727,0.00302124,-1.00552368,0.183105,0.000000,-0.183105
7443107375,0.00224304,0.00360107,-1.00476074,0.305176,0.000000,-0.061035
7448110375,0.00169373,0.00389099,-1.00444031,0.305176,0.000000,-0.183105
7453123375,0.00117493,0.00372314,-1.00503540,0.305176,0.000000,0.000000
7458091458,0.00134277,0.00357056,-1.00578308,0.427246,0.000000,-0.061035
7463085708,0.00199890,0.00363159,-1.00585938,0.244141,0.061035,-0.122070
7468093416,0.00254822,0.00349426,-1.00564575,0.244141,0.061035,-0.061035
7473085541,0.00273132,0.00315857,-1.00566101,0.366211,0.122070,-0.061035
7478113041,0.00225830,0.00312805,-1.00561523,0.427246,0.061035,0.000000
7483088833,0.00144958,0.00312805,-1.00558472,0.366211,0.000000,-0.122070
7488130458,0.00125122,0.00268555,-1.00569153,0.305176,0.183105,-0.122070
7493124541,0.00187683,0.00239563,-1.00575256,0.183105,-0.061035,-0.183105
7498127041,0.00239563,0.00299072,-1.00598145,0.305176,0.183105,-0.061035
7503083166,0.00210571,0.00395203,-1.00610352,0.488281,0.183105,-0.122070
7508121666,0.00134277,0.00419617,-1.00576782,0.366211,0.183105,-0.183105
7513112041,0.00088501,0.00367737,-1.00547791,0.366211,0.061035,-0.122070
7518087416,0.00086975,0.00317383,-1.00540161,0.183105,0.061035,-0.183105
7523115125,0.00096130,0.00343323,-1.00526428,0.305176,0.122070,0.000000
7528123291,0.00090027,0.00407410,-1.00488281,0.244141,0.000000,-0.061035
7533093291,0.00067139,0.00416565,-1.00469971,0.305176,0.061035,0.000000
7538091666,0.00071716,0.00373840,-1.00517273,0.244141,0.061035,0.000000
7543111583,0.00122070,0.00337219,-1.00596619,0.366211,0.061035,-0.122070
7548091958,0.00170898,0.00332642,-1.00617981,0.366211,0.061035,0.000000
7553095000,0.00170898,0.00338745,-1.00581360,0.305176,0.000000,-0.122070
7558084291,0.00151062,0.00341797,-1.00555420,0.244141,0.061035,0.000000
7563097958,0.00161743,0.00340271,-1.00527954,0.427246,0.122070,-0.183105
7568112791,0.00227356,0.00329590,-1.00500488,0.305176,0.061035,-0.122070
7573094208,0.00297546,0.00325012,-1.00495911,0.305176,0.061035,0.000000
7578096333,0.00296021,0.00357056,-1.00506592,0.183105,0.122070,-0.183105
7583094083,0.00231934,0.00399780,-1.00541687,0.244141,0.061035,-0.122070
7588090875,0.00152588,0.00386047,-1.00595093,0.366211,0.122070,-0.061035
7593087333,0.00083923,0.00328064,-1.00596619,0.427246,0.122070,0.000000
7598099708,0.00082397,0.00305176,-1.00549316,0.366211,-0.061035,-0.122070
7603129833,0.00141907,0.00317383,-1.00549316,0.305176,0.000000,-0.122070
7608105333,0.00172424,0.00305176,-1.00598145,0.305176,0.061035,-0.061035
7613125125,0.00134277,0.00268555,-1.00628662,0.244141,0.061035,-0.061035
7618101708,0.00088501,0.00247192,-1.00616455,0.427246,0.122070,-0.061035
7623099875,0.00102234,0.00276184,-1.00602722,0.244141,0.000000,-0.061035
7628100458,0.00140381,0.00314331,-1.00566101,0.244141,0.183105,-0.061035
7633126500,0.00158691,0.00337219,-1.00495911,0.183105,-0.061035,-0.061035
7638113666,0.00166321,0.00396729,-1.00463867,0.427246,0.061035,-0.061035
7643101625,0.00158691,0.00483704,-1.00512695,0.366211,-0.061035,-0.122070
7648118708,0.00148010,0.00512695,-1.00576782,0.244141,0.061035,-0.061035
7653112750,0.00144958,0.00473022,-1.00592041,0.366211,0.000000,-0.122070
7658098250,0.00164795,0.00439453,-1.00561523,0.366211,0.183105,0.000000
7663099958,0.00209045,0.00453186,-1.00544739,0.427246,0.061035,0.061035
7668113958,0.00225830,0.00460815,-1.00579834,0.183105,0.000000,0.000000
7673106666,0.00189209,0.00422668,-1.00634766,0.305176,0.061035,-0.061035
7678095250,0.00164795,0.00346375,-1.00614929,0.305176,0.061035,-0.061035
7683116083,0.00178528,0.00270081,-1.00537109,0.366211,0.061035,0.000000
7688105833,0.00190735,0.00236511,-1.00512695,0.366211,0.061035,-0.183105
7693107791,0.00196838,0.00256348,-1.00567627,0.244141,-0.061035,-0.183105
7698111208,0.00218201,0.00297546,-1.00617981,0.244141,-0.122070,-0.122070
7703115541,0.00244141,0.00314331,-1.00587463,0.244141,0.000000,-0.183105
7708153958,0.00251770,0.00332642,-1.00515747,0.244141,-0.122070,-0.122070
7713104583,0.00254822,0.00357056,-1.00492859,0.305176,0.061035,-0.122070
7718175541,0.00233459,0.00341797,-1.00518799,0.305176,-0.061035,-0.061035
7723146916,0.00163269,0.00311279,-1.00540161,0.244141,0.000000,-0.122070
7728112333,0.00134277,0.00317383,-1.00526428,0.305176,0.122070,0.000000
7733113041,0.00187683,0.00338745,-1.00515747,0.427246,0.061035,0.061035
7738117166,0.00260925,0.00355530,-1.00524902,0.427246,0.000000,0.061035
7743127750,0.00280762,0.00344849,-1.00495911,0.305176,-0.061035,-0.061035
7748147458,0.00228882,0.00297546,-1.00411987,0.244141,0.061035,-0.122070
7753153041,0.00128174,0.00263977,-1.00372314,0.305176,0.061035,0.000000
7758146875,0.00047302,0.00286865,-1.00436401,0.427246,0.122070,-0.061035
7763115125,0.00035095,0.00328064,-1.00550842,0.305176,0.061035,-0.061035
7768131666,0.00077820,0.00335693,-1.00613403,0.244141,0.061035,-0.122070
7773147333,0.00120544,0.00320435,-1.00590515,0.366211,0.061035,-0.061035
7778140833,0.00120544,0.00317383,-1.00559998,0.305176,0.061035,-0.061035
7783131791,0.00103760,0.00311279,-1.00581360,0.427246,0.061035,0.000000
7788113875,0.00120544,0.00305176,-1.00575256,0.244141,0.000000,0.061035
7793165416,0.00184631,0.00300598,-1.00505066,0.305176,0.061035,-0.061035
7798159375,0.00241089,0.00320435,-1.00463867,0.427246,0.061035,-0.061035
7803167333,0.00267029,0.00346375,-1.00535583,0.366211,0.061035,-0.061035
7808174791,0.00296021,0.00315857,-1.00631714,0.366211,0.061035,-0.061035
7813119833,0.00300598,0.00270081,-1.00613403,0.427246,0.061035,0.000000
7818151166,0.00247192,0.00288391,-1.00549316,0.305176,0.061035,-0.061035
7823110333,0.00207520,0.00350952,-1.00552368,0.549316,0.122070,-0.122070
7828123583,0.00222778,0.00402832,-1.00563049,0.488281,0.061035,-0.122070
7833139041,0.00257874,0.00430298,-1.00526428,0.305176,0.122070,-0.061035
7838156333,0.00273132,0.00431824,-1.00503540,0.305176,0.061035,-0.061035
7843130666,0.00228882,0.00408936,-1.00540161,0.427246,0.061035,0.000000
7848128375,0.00161743,0.00393677,-1.00593567,0.427246,0.244141,0.061035
7853142333,0.00114441,0.00408936,-1.00619507,0.244141,0.000000,0.000000
7858125166,0.00082397,0.00415039,-1.00593567,0.305176,0.183105,-0.061035
7863120208,0.00077820,0.00384521,-1.00540161,0.305176,0.061035,-0.061035
7868145166,0.00077820,0.00341797,-1.00480652,0.427246,0.122070,-0.122070
7873186708,0.00064087,0.00314331,-1.00466919,0.305176,0.061035,0.000000
7878167291,0.00076294,0.00302124,-1.00518799,0.366211,-0.061035,-0.061035
7883156583,0.00120544,0.00305176,-1.00573730,0.305176,0.183105,-0.122070
7888133041,0.00138855,0.00286865,-1.00563049,0.427246,0.122070,-0.183105
7893161791,0.00094604,0.00236511,-1.00512695,0.305176,0.061035,-0.122070
7898132708,0.00056458,0.00195312,-1.00489807,0.305176,0.000000,-0.061035
7903180458,0.00109863,0.00199890,-1.00479126,0.366211,0.061035,-0.061035
7908158208,0.00196838,0.00236511,-1.00431824,0.427246,0.000000,-0.061035
7913122000,0.00228882,0.00282288,-1.00416565,0.244141,0.000000,-0.183105
7918162541,0.00221252,0.00321960,-1.00488281,0.427246,0.122070,-0.061035
7923165291,0.00210571,0.00354004,-1.00590515,0.305176,0.000000,-0.061035
7928167041,0.00227356,0.00395203,-1.00631714,0.244141,0.122070,0.000000
7933132875,0.00277710,0.00413513,-1.00605774,0.305176,0.061035,-0.122070
7938150000,0.00312805,0.00389099,-1.00563049,0.305176,0.061035,-0.122070
7943172000,0.00303650,0.00364685,-1.00553894,0.305176,0.061035,-0.122070
7948137041,0.00259399,0.00378418,-1.00558472,0.183105,0.061035,-0.061035
7953166333,0.00195312,0.00415039,-1.00552368,0.366211,0.122070,0.000000
7958131958,0.00152588,0.00433350,-1.00564575,0.305176,0.000000,-0.122070
7963126708,0.00117493,0.00398254,-1.00593567,0.366211,0.122070,0.000000
7968136125,0.00090027,0.00334167,-1.00595093,0.305176,0.000000,-0.061035
7973175166,0.00105286,0.00331116,-1.00566101,0.183105,0.000000,0.000000
7978167166,0.00109863,0.00393677,-1.00541687,0.305176,0.000000,-0.061035
7983182625,0.00044250,0.00421143,-1.00553894,0.427246,0.061035,0.000000
7988140208,-0.00012207,0.00349426,-1.00588989,0.366211,0.061035,-0.183105
7993183208,0.00004578,0.00224304,-1.00595093,0.366211,0.061035,0.000000
7998162625,0.00050354,0.00144958,-1.00552368,0.305176,-0.061035,-0.061035
8003165458,0.00067139,0.00151062,-1.00518799,0.488281,0.122070,0.061035
8008156500,0.00050354,0.00210571,-1.00538635,0.305176,0.061035,-0.183105
8013140791,0.00070190,0.00270081,-1.00578308,0.427246,0.000000,0.000000
8018192541,0.00132751,0.00283813,-1.00593567,0.427246,0.061035,0.000000
8023195208,0.00148010,0.00265503,-1.00563049,0.427246,0.122070,-0.061035
8028181083,0.00138855,0.00271606,-1.00511169,0.244141,0.122070,-0.122070
8033133041,0.00170898,0.00312805,-1.00485229,0.244141,0.183105,-0.183105
8038185416,0.00187683,0.00346375,-1.00503540,0.244141,-0.122070,-0.122070
8043186041,0.00152588,0.00373840,-1.00563049,0.427246,0.061035,-0.061035
8048145250,0.00146484,0.00416565,-1.00619507,0.305176,0.061035,-0.061035
8053187666,0.00207520,0.00453186,-1.00625610,0.305176,0.061035,0.000000
8058175583,0.00270081,0.00416565,-1.00604248,0.305176,0.061035,-0.122070
8063151250,0.00271606,0.00340271,-1.00593567,0.427246,0.061035,-0.061035
8068181916,0.00230408,0.00326538,-1.00569153,0.305176,0.000000,-0.061035
8073179375,0.00151062,0.00347900,-1.00508118,0.305176,-0.061035,0.000000
8078150000,0.00100708,0.00349426,-1.00463867,0.366211,0.122070,-0.183105
8083178958,0.00170898,0.00341797,-1.00488281,0.366211,0.183105,-0.122070
8088104625,0.00292969,0.00335693,-1.00534058,0.305176,0.061035,0.000000
8093178333,0.00306702,0.00320435,-1.00553894,0.488281,0.061035,-0.061035
8098181291,0.00181580,0.00297546,-1.00572205,0.305176,0.000000,-0.061035
8103155666,0.00067139,0.00286865,-1.00605774,0.244141,0.122070,-0.122070
8108171125,0.00070190,0.00279236,-1.00631714,0.183105,0.061035,-0.061035
8113154875,0.00125122,0.00245667,-1.00617981,0.244141,0.000000,0.000000
8118185500,0.00135803,0.00213623,-1.00584412,0.305176,-0.061035,-0.061035
8123176666,0.00108337,0.00222778,-1.00535583,0.305176,-0.122070,0.000000
8128199125,0.00091553,0.00260925,-1.00474548,0.366211,0.000000,0.061035
8133162875,0.00096130,0.00296021,-1.00466919,0.305176,0.183105,-0.183105
8138208541,0.00119019,0.00325012,-1.00543213,0.427246,0.244141,-0.061035
8143141666,0.00161743,0.00341797,-1.00642395,0.305176,0.122070,-0.183105
8148170875,0.00193787,0.00355530,-1.00669861,0.366211,0.061035,-0.061035
8153154125,0.00202942,0.00390625,-1.00624084,0.366211,0.122070,-0.061035
8158170500,0.00215149,0.00447083,-1.00592041,0.366211,0.000000,-0.183105
8163161250,0.00247192,0.00465393,-1.00590515,0.305176,0.000000,-0.183105
8168180375,0.00241089,0.00401306,-1.00573730,0.244141,0.122070,-0.122070
8173193125,0.00195312,0.00323486,-1.00520325,0.244141,0.122070,-0.122070
8178194208,0.00187683,0.00309753,-1.00474548,0.305176,0.061035,0.061035
8183181375,0.00210571,0.00323486,-1.00503540,0.427246,0.000000,-0.061035
8188158000,0.00209045,0.00311279,-1.00581360,0.244141,0.061035,-0.122070
8193191833,0.00180054,0.00282288,-1.00636292,0.366211,0.122070,-0.122070
8198195291,0.00135803,0.00268555,-1.00611877,0.366211,-0.061035,-0.061035
8203203458,0.00123596,0.00282288,-1.00555420,0.305176,-0.061035,-0.122070
