timestamp_ns,accel_x,accel_y,accel_z,gyro_x,gyro_y,gyro_z
76950083,0.00175476,0.00115967,-1.00703430,0.305176,0.183105,-0.183105
82432875,0.00163269,0.00137329,-1.00837708,0.366211,0.061035,0.122070
87713791,0.00187683,0.00163269,-1.00682068,0.305176,0.000000,-0.061035
91937916,0.00178528,0.00216675,-1.00561523,0.061035,0.061035,-0.061035
98090458,0.00163269,0.00286865,-1.00675964,0.244141,0.000000,0.000000
101980750,0.00186157,0.00350952,-1.00712585,0.427246,0.061035,-0.122070
116653708,0.00195312,0.00430298,-1.00651550,0.366211,0.122070,-0.061035
116674333,0.00149536,0.00549316,-1.00601196,0.305176,0.000000,0.000000
118007208,0.00125122,0.00660706,-1.00543213,0.427246,0.061035,-0.122070
122325333,0.00155640,0.00697327,-1.00582886,0.122070,0.061035,-0.183105
126973166,0.00154114,0.00651550,-1.00720215,0.366211,0.061035,-0.061035
133040833,0.00106812,0.00569153,-1.00764465,0.366211,0.122070,0.061035
144018250,0.00090027,0.00492859,-1.00714111,0.427246,0.122070,0.000000
144088333,0.00134277,0.00413513,-1.00622559,0.366211,0.122070,-0.061035
152773083,0.00173950,0.00296021,-1.00512695,0.549316,0.183105,0.000000
153478041,0.00137329,0.00172424,-1.00505066,0.366211,0.122070,-0.061035
158782375,0.00048828,0.00062561,-1.00598145,0.427246,0.000000,0.122070
167971000,0.00027466,-0.00019836,-1.00650024,0.305176,0.000000,-0.061035
168023000,0.00114441,-0.00018311,-1.00674438,0.244141,0.000000,-0.061035
176950833,0.00195312,0.00038147,-1.00706482,0.305176,0.000000,-0.061035
177004000,0.00186157,0.00070190,-1.00680542,0.366211,0.000000,-0.244141
185516666,0.00146484,0.00100708,-1.00624084,0.366211,0.061035,-0.061035
188171375,0.00131226,0.00205994,-1.00665283,0.183105,0.061035,-0.122070
193329333,0.00157166,0.00334167,-1.00744629,0.183105,0.061035,0.000000
197362208,0.00238037,0.00407410,-1.00717163,0.427246,0.183105,-0.061035
207054708,0.00300598,0.00453186,-1.00657654,0.305176,0.122070,-0.061035
207920916,0.00263977,0.00509644,-1.00660706,0.244141,0.061035,-0.061035
217813500,0.00181580,0.00544739,-1.00668335,0.305176,0.000000,-0.122070
217829083,0.00120544,0.00569153,-1.00680542,0.305176,-0.061035,-0.061035
225170125,0.00070190,0.00616455,-1.00677490,0.488281,0.122070,-0.061035
226965291,0.00047302,0.00646973,-1.00598145,0.244141,-0.061035,0.000000
232473958,0.00105286,0.00639343,-1.00532532,0.244141,-0.061035,0.000000
236975333,0.00181580,0.00614929,-1.00581360,0.549316,0.000000,-0.061035
243924625,0.00178528,0.00550842,-1.00653076,0.305176,0.000000,-0.061035
247467666,0.00129700,0.00448608,-1.00657654,0.366211,0.061035,-0.244141
251980125,0.00132751,0.00382996,-1.00631714,0.305176,0.122070,-0.061035
256966541,0.00192261,0.00369263,-1.00598145,0.244141,0.061035,-0.122070
262840791,0.00222778,0.00346375,-1.00593567,0.366211,0.000000,-0.122070
266964083,0.00190735,0.00263977,-1.00675964,0.427246,0.122070,0.000000
271965041,0.00149536,0.00126648,-1.00721741,0.366211,0.122070,0.000000
276964375,0.00140381,-0.00001526,-1.00679016,0.366211,0.061035,0.000000
281991041,0.00163269,-0.00050354,-1.00662231,0.183105,0.061035,-0.061035
287008500,0.00189209,0.00000000,-1.00663757,0.244141,0.061035,-0.061035
291987458,0.00201416,0.00082397,-1.00621033,0.183105,0.000000,0.000000
297002083,0.00213623,0.00155640,-1.00627136,0.244141,0.000000,0.000000
301986000,0.00254822,0.00233459,-1.00729370,0.122070,-0.061035,-0.122070
306981541,0.00283813,0.00337219,-1.00784302,0.305176,0.122070,-0.061035
311977250,0.00250244,0.00448608,-1.00738525,0.427246,0.000000,-0.183105
316990250,0.00192261,0.00532532,-1.00706482,0.366211,0.061035,-0.122070
321979375,0.00160217,0.00596619,-1.00721741,0.244141,0.244141,0.061035
326987541,0.00172424,0.00634766,-1.00711060,0.305176,0.000000,-0.061035
332018333,0.00192261,0.00631714,-1.00642395,0.244141,0.000000,-0.122070
337010750,0.00184631,0.00590515,-1.00592041,0.366211,0.061035,0.000000
342008791,0.00166321,0.00529480,-1.00621033,0.427246,0.061035,0.061035
347011333,0.00161743,0.00485229,-1.00695801,0.305176,0.000000,-0.061035
351998625,0.00140381,0.00465393,-1.00721741,0.244141,-0.061035,-0.122070
357013500,0.00125122,0.00421143,-1.00688171,0.366211,0.061035,-0.183105
362001875,0.00154114,0.00352478,-1.00659180,0.427246,0.183105,-0.061035
367003791,0.00193787,0.00315857,-1.00698853,0.305176,0.061035,-0.061035
372009958,0.00219727,0.00282288,-1.00735474,0.183105,-0.061035,-0.122070
377010500,0.00254822,0.00207520,-1.00685120,0.305176,0.061035,-0.061035
382007458,0.00273132,0.00157166,-1.00610352,0.305176,0.061035,-0.183105
387018541,0.00245667,0.00184631,-1.00608826,0.244141,0.061035,-0.122070
392019416,0.00204468,0.00236511,-1.00665283,0.305176,0.122070,0.000000
397027000,0.00187683,0.00262451,-1.00714111,0.366211,0.061035,-0.183105
402019416,0.00195312,0.00280762,-1.00709534,0.305176,0.000000,-0.122070
407009791,0.00218201,0.00306702,-1.00666809,0.244141,0.122070,-0.183105
412011250,0.00213623,0.00334167,-1.00651550,0.427246,0.061035,-0.183105
417036083,0.00146484,0.00355530,-1.00650024,0.366211,0.122070,0.000000
422020416,0.00048828,0.00392151,-1.00627136,0.244141,0.061035,-0.061035
427018375,0.00004578,0.00445557,-1.00602722,0.488281,0.061035,0.000000
432043583,0.00053406,0.00494385,-1.00559998,0.549316,0.122070,0.000000
437022833,0.00129700,0.00492859,-1.00549316,0.427246,0.000000,-0.061035
442018250,0.00164795,0.00439453,-1.00596619,0.549316,0.000000,-0.122070
447030083,0.00180054,0.00390625,-1.00601196,0.488281,0.183105,-0.061035
452132500,0.00192261,0.00378418,-1.00564575,0.366211,0.061035,0.061035
457059291,0.00196838,0.00379944,-1.00582886,0.427246,0.061035,-0.183105
462028750,0.00195312,0.00344849,-1.00640869,0.366211,0.122070,-0.183105
467097041,0.00180054,0.00279236,-1.00674438,0.244141,0.061035,0.061035
472073458,0.00149536,0.00241089,-1.00663757,0.305176,0.061035,0.000000
477051625,0.00102234,0.00239563,-1.00659180,0.305176,0.061035,-0.122070
482109208,0.00068665,0.00210571,-1.00674438,0.427246,0.061035,-0.183105
487072375,0.00106812,0.00172424,-1.00688171,0.305176,0.061035,0.000000
492044583,0.00195312,0.00202942,-1.00688171,0.427246,0.000000,0.061035
497105416,0.00242615,0.00303650,-1.00697327,0.366211,0.061035,-0.061035
502088250,0.00224304,0.00404358,-1.00732422,0.305176,0.183105,-0.061035
507040083,0.00209045,0.00457764,-1.00730896,0.305176,0.000000,-0.061035
512025875,0.00221252,0.00497437,-1.00651550,0.427246,0.183105,0.000000
517079833,0.00218201,0.00534058,-1.00590515,0.427246,0.061035,-0.183105
522118250,0.00193787,0.00531006,-1.00613403,0.427246,0.000000,-0.061035
527106291,0.00173950,0.00488281,-1.00665283,0.305176,0.000000,-0.061035
532072125,0.00172424,0.00463867,-1.00669861,0.366211,0.122070,0.000000
537035333,0.00186157,0.00498962,-1.00645447,0.427246,0.000000,0.000000
542032625,0.00199890,0.00518799,-1.00645447,0.488281,0.000000,0.000000
547050375,0.00227356,0.00460815,-1.00674438,0.427246,0.000000,-0.061035
552039083,0.00282288,0.00366211,-1.00714111,0.488281,0.122070,-0.183105
557024416,0.00315857,0.00331116,-1.00715637,0.366211,0.244141,-0.244141
562023916,0.00323486,0.00354004,-1.00637817,0.488281,0.183105,-0.061035
567057916,0.00349426,0.00358582,-1.00550842,0.366211,0.000000,-0.183105
572036875,0.00366211,0.00325012,-1.00460815,0.305176,0.122070,-0.061035
577027458,0.00326538,0.00277710,-1.00399780,0.427246,0.061035,-0.122070
582043666,0.00250244,0.00227356,-1.00517273,0.488281,0.122070,-0.061035
587042250,0.00216675,0.00193787,-1.00772095,0.427246,-0.061035,-0.061035
592038208,0.00227356,0.00193787,-1.00897217,0.427246,-0.061035,-0.061035
597056208,0.00222778,0.00238037,-1.00840759,0.366211,0.122070,-0.061035
602036708,0.00183105,0.00309753,-1.00759888,0.244141,0.000000,-0.122070
607038750,0.00144958,0.00369263,-1.00749207,0.305176,-0.061035,0.000000
612047875,0.00117493,0.00410461,-1.00765991,0.244141,0.122070,-0.122070
617053166,0.00097656,0.00456238,-1.00712585,0.244141,0.061035,-0.061035
622040916,0.00073242,0.00495911,-1.00596619,0.244141,0.000000,0.000000
627022708,0.00064087,0.00492859,-1.00526428,0.244141,0.000000,0.000000
632050250,0.00096130,0.00427246,-1.00534058,0.366211,0.061035,0.000000
637046541,0.00125122,0.00328064,-1.00590515,0.366211,0.122070,-0.061035
642035541,0.00119019,0.00241089,-1.00619507,0.244141,0.183105,-0.122070
647047833,0.00129700,0.00177002,-1.00576782,0.427246,0.122070,-0.061035
652073208,0.00187683,0.00140381,-1.00541687,0.488281,0.061035,0.000000
657043250,0.00228882,0.00108337,-1.00567627,0.427246,0.061035,-0.122070
662053750,0.00230408,0.00062561,-1.00578308,0.244141,0.122070,-0.061035
667042958,0.00230408,0.00016785,-1.00581360,0.427246,0.000000,0.000000
672044958,0.00212097,0.00007629,-1.00648499,0.244141,0.000000,-0.061035
677054458,0.00172424,0.00061035,-1.00755310,0.427246,0.061035,-0.122070
682055541,0.00160217,0.00169373,-1.00840759,0.305176,0.061035,-0.122070
687092666,0.00181580,0.00292969,-1.00827026,0.244141,0.061035,0.061035
692069416,0.00198364,0.00401306,-1.00706482,0.061035,0.000000,-0.061035
697107083,0.00198364,0.00462341,-1.00671387,0.183105,0.000000,-0.183105
702076125,0.00198364,0.00463867,-1.00772095,0.366211,-0.061035,-0.061035
707063458,0.00181580,0.00469971,-1.00790405,0.183105,-0.061035,-0.061035
712075916,0.00103760,0.00509644,-1.00675964,0.366211,0.183105,0.000000
717093041,0.00003052,0.00540161,-1.00605774,0.305176,0.061035,-0.183105
722059583,-0.00015259,0.00531006,-1.00677490,0.305176,0.122070,-0.061035
727069041,0.00028992,0.00483704,-1.00805664,0.183105,0.000000,-0.061035
732059916,0.00076294,0.00434875,-1.00831604,0.183105,0.061035,-0.122070
737052666,0.00140381,0.00393677,-1.00708008,0.183105,0.061035,-0.183105
742045833,0.00225830,0.00352478,-1.00566101,0.244141,0.061035,-0.061035
747108291,0.00277710,0.00309753,-1.00555420,0.366211,0.122070,-0.122070
752088125,0.00251770,0.00251770,-1.00628662,0.244141,0.000000,-0.061035
757053666,0.00209045,0.00201416,-1.00643921,0.305176,0.061035,-0.122070
762042916,0.00224304,0.00193787,-1.00639343,0.366211,0.061035,-0.183105
767078416,0.00254822,0.00221252,-1.00660706,0.244141,0.061035,0.000000
772060875,0.00205994,0.00230408,-1.00631714,0.305176,0.061035,-0.122070
777058875,0.00100708,0.00198364,-1.00579834,0.244141,0.122070,-0.061035
782069916,0.00065613,0.00138855,-1.00604248,0.366211,0.000000,-0.122070
787089208,0.00119019,0.00099182,-1.00695801,0.366211,0.122070,-0.122070
792063291,0.00190735,0.00120544,-1.00769043,0.366211,0.183105,-0.061035
797075166,0.00253296,0.00190735,-1.00820923,0.427246,0.061035,-0.061035
802095916,0.00273132,0.00250244,-1.00836182,0.122070,0.061035,0.000000
807067916,0.00216675,0.00286865,-1.00737000,0.366211,0.122070,0.000000
812064958,0.00146484,0.00325012,-1.00640869,0.427246,0.183105,0.000000
817106833,0.00144958,0.00376892,-1.00686646,0.305176,0.000000,0.000000
822088208,0.00184631,0.00439453,-1.00729370,0.366211,0.000000,-0.122070
827071875,0.00230408,0.00480652,-1.00666809,0.427246,0.122070,-0.061035
832072333,0.00257874,0.00469971,-1.00650024,0.305176,-0.061035,-0.061035
837085166,0.00247192,0.00433350,-1.00706482,0.244141,0.061035,-0.122070
842068208,0.00216675,0.00402832,-1.00724792,0.366211,0.061035,-0.122070
847081416,0.00166321,0.00410461,-1.00703430,0.305176,0.061035,-0.061035
852088458,0.00094604,0.00450134,-1.00648499,0.305176,0.000000,-0.061035
857080625,0.00050354,0.00462341,-1.00625610,0.366211,0.122070,-0.061035
862061916,0.00042725,0.00437927,-1.00697327,0.366211,0.061035,-0.122070
867264291,0.00013733,0.00393677,-1.00726318,0.427246,0.000000,-0.061035
872092458,-0.00021362,0.00354004,-1.00630188,0.183105,0.122070,0.000000
877061000,0.00007629,0.00352478,-1.00599670,0.305176,0.122070,0.000000
882081000,0.00105286,0.00392151,-1.00688171,0.305176,-0.061035,-0.061035
887099333,0.00180054,0.00405884,-1.00759888,0.488281,0.061035,-0.122070
892080041,0.00190735,0.00357056,-1.00755310,0.305176,0.061035,-0.061035
897076333,0.00209045,0.00299072,-1.00689697,0.244141,-0.061035,-0.183105
902082750,0.00245667,0.00271606,-1.00636292,0.305176,0.122070,-0.122070
907073500,0.00257874,0.00248718,-1.00643921,0.244141,0.061035,0.000000
912064833,0.00268555,0.00219727,-1.00631714,0.366211,0.061035,-0.122070
917082416,0.00299072,0.00213623,-1.00567627,0.305176,0.122070,0.061035
922088166,0.00328064,0.00231934,-1.00541687,0.244141,0.000000,0.000000
927098500,0.00308228,0.00236511,-1.00602722,0.305176,0.061035,0.000000
932101666,0.00241089,0.00205994,-1.00663757,0.305176,0.061035,0.000000
937108291,0.00207520,0.00183105,-1.00640869,0.366211,0.000000,0.000000
942085875,0.00221252,0.00233459,-1.00616455,0.244141,0.061035,-0.122070
947091875,0.00207520,0.00314331,-1.00680542,0.244141,0.122070,-0.122070
952122375,0.00144958,0.00346375,-1.00723267,0.305176,0.061035,-0.061035
957087250,0.00054932,0.00337219,-1.00668335,0.305176,0.061035,-0.061035
962102708,-0.00018311,0.00358582,-1.00611877,0.366211,0.000000,0.061035
967088916,-0.00032043,0.00411987,-1.00585938,0.488281,0.061035,0.000000
972100458,-0.00009155,0.00445557,-1.00569153,0.366211,0.000000,0.000000
977093875,0.00004578,0.00445557,-1.00593567,0.366211,0.000000,-0.122070
982105791,0.00015259,0.00439453,-1.00634766,0.366211,0.061035,0.000000
987126375,0.00057983,0.00434875,-1.00640869,0.366211,0.122070,0.000000
992086708,0.00125122,0.00415039,-1.00674438,0.244141,0.000000,-0.061035
997116166,0.00195312,0.00354004,-1.00753784,0.549316,0.061035,-0.061035
1002109083,0.00253296,0.00292969,-1.00758362,0.366211,0.061035,-0.122070
1007083500,0.00268555,0.00254822,-1.00669861,0.305176,0.122070,-0.061035
1012075083,0.00248718,0.00221252,-1.00624084,0.244141,0.122070,0.000000
1017105875,0.00213623,0.00236511,-1.00656128,0.305176,0.061035,-0.061035
1022103041,0.00189209,0.00329590,-1.00689697,0.305176,0.000000,-0.061035
1027104541,0.00199890,0.00437927,-1.00683594,0.427246,-0.061035,0.000000
1032093500,0.00213623,0.00466919,-1.00659180,0.305176,0.061035,0.000000
1037085791,0.00228882,0.00404358,-1.00660706,0.183105,0.061035,0.000000
1042079166,0.00233459,0.00338745,-1.00672913,0.244141,0.000000,-0.122070
1047088250,0.00187683,0.00305176,-1.00650024,0.366211,0.183105,-0.061035
1052119791,0.00128174,0.00276184,-1.00617981,0.244141,0.122070,0.000000
1057096541,0.00117493,0.00265503,-1.00619507,0.427246,0.122070,-0.061035
1062126833,0.00122070,0.00263977,-1.00639343,0.366211,0.061035,-0.122070
1067094833,0.00094604,0.00236511,-1.00630188,0.427246,0.061035,-0.122070
1072091041,0.00083923,0.00213623,-1.00547791,0.366211,0.000000,-0.061035
1077080583,0.00135803,0.00225830,-1.00485229,0.549316,0.122070,0.000000
1082103000,0.00213623,0.00256348,-1.00518799,0.427246,0.061035,-0.122070
1087114125,0.00260925,0.00315857,-1.00579834,0.366211,0.122070,0.000000
1092092250,0.00253296,0.00369263,-1.00605774,0.488281,-0.061035,0.000000
1097107958,0.00201416,0.00337219,-1.00631714,0.305176,0.061035,0.000000
1102108083,0.00151062,0.00276184,-1.00683594,0.305176,0.122070,0.000000
1107107125,0.00135803,0.00291443,-1.00700378,0.305176,0.000000,-0.061035
1112087583,0.00149536,0.00357056,-1.00648499,0.122070,0.061035,0.000000
1117108375,0.00161743,0.00364685,-1.00610352,0.366211,0.000000,-0.061035
1122118041,0.00138855,0.00296021,-1.00650024,0.244141,-0.061035,-0.183105
1127122583,0.00103760,0.00239563,-1.00683594,0.366211,0.000000,0.000000
1132110750,0.00093079,0.00245667,-1.00639343,0.366211,-0.061035,-0.122070
1137104416,0.00132751,0.00292969,-1.00569153,0.366211,0.000000,-0.061035
1142111333,0.00205994,0.00326538,-1.00550842,0.244141,0.061035,-0.061035
1147110083,0.00253296,0.00320435,-1.00595093,0.366211,0.122070,-0.061035
1152117375,0.00259399,0.00337219,-1.00665283,0.305176,0.000000,-0.061035
1157106375,0.00253296,0.00395203,-1.00689697,0.366211,0.122070,0.061035
1162124375,0.00250244,0.00405884,-1.00674438,0.366211,0.183105,0.000000
1167114375,0.00231934,0.00372314,-1.00686646,0.366211,0.122070,0.000000
1172124250,0.00221252,0.00366211,-1.00689697,0.366211,0.000000,0.000000
1177098291,0.00250244,0.00382996,-1.00639343,0.305176,0.061035,-0.122070
1182125958,0.00257874,0.00381470,-1.00588989,0.244141,0.000000,0.000000
1187126916,0.00207520,0.00335693,-1.00625610,0.366211,0.244141,-0.061035
1192134000,0.00167847,0.00274658,-1.00712585,0.244141,0.000000,0.000000
1197108375,0.00167847,0.00234985,-1.00732422,0.366211,0.000000,-0.183105
1202100500,0.00163269,0.00205994,-1.00648499,0.427246,0.122070,-0.061035
1207100541,0.00157166,0.00175476,-1.00576782,0.366211,-0.061035,-0.183105
1212101500,0.00175476,0.00170898,-1.00599670,0.183105,0.061035,-0.061035
1217136625,0.00193787,0.00224304,-1.00679016,0.305176,0.061035,-0.122070
1222110291,0.00204468,0.00268555,-1.00718689,0.305176,0.061035,-0.122070
1227120000,0.00216675,0.00241089,-1.00703430,0.488281,0.122070,0.000000
1232124083,0.00215149,0.00181580,-1.00683594,0.305176,-0.061035,-0.122070
1237112416,0.00199890,0.00196838,-1.00680542,0.488281,0.122070,-0.061035
1242099000,0.00189209,0.00318909,-1.00680542,0.305176,0.061035,-0.122070
1247143250,0.00175476,0.00437927,-1.00679016,0.427246,0.183105,0.061035
1252128041,0.00170898,0.00457764,-1.00656128,0.427246,0.000000,0.183105
1257122458,0.00175476,0.00451660,-1.00578308,0.366211,0.122070,-0.061035
1262126083,0.00163269,0.00492859,-1.00494385,0.305176,0.000000,-0.122070
1267135958,0.00137329,0.00541687,-1.00505066,0.427246,0.061035,-0.122070
1272190291,0.00108337,0.00572205,-1.00614929,0.366211,0.061035,-0.061035
1277161541,0.00083923,0.00587463,-1.00677490,0.427246,-0.061035,-0.061035
1282145750,0.00062561,0.00599670,-1.00637817,0.183105,0.061035,-0.122070
1287187083,0.00071716,0.00590515,-1.00643921,0.427246,0.000000,0.000000
1292145375,0.00138855,0.00497437,-1.00730896,0.122070,0.061035,-0.122070
1297145333,0.00219727,0.00357056,-1.00749207,0.183105,0.061035,0.000000
1302137208,0.00285339,0.00242615,-1.00671387,0.244141,0.061035,-0.061035
1307157458,0.00334167,0.00169373,-1.00625610,0.366211,0.061035,-0.122070
1312180125,0.00344849,0.00119019,-1.00631714,0.366211,0.000000,-0.061035
1317170166,0.00328064,0.00093079,-1.00642395,0.244141,0.122070,0.061035
1322171333,0.00302124,0.00090027,-1.00657654,0.366211,0.122070,-0.122070
1327159791,0.00247192,0.00097656,-1.00686646,0.366211,0.122070,-0.122070
1332169208,0.00202942,0.00125122,-1.00694275,0.366211,0.122070,-0.183105
1337171000,0.00209045,0.00219727,-1.00660706,0.305176,0.061035,-0.122070
1342136458,0.00222778,0.00363159,-1.00614929,0.305176,0.061035,-0.061035
1347145041,0.00175476,0.00451660,-1.00617981,0.244141,0.061035,-0.061035
1352180750,0.00103760,0.00448608,-1.00660706,0.366211,0.000000,-0.061035
1357129291,0.00057983,0.00445557,-1.00677490,0.305176,0.000000,0.000000
1362132750,0.00045776,0.00498962,-1.00669861,0.366211,0.061035,-0.061035
1367162375,0.00067139,0.00570679,-1.00674438,0.366211,-0.061035,-0.122070
1372129083,0.00099182,0.00605774,-1.00669861,0.305176,0.000000,-0.122070
1377112750,0.00093079,0.00579834,-1.00657654,0.366211,0.061035,-0.122070
1382114708,0.00074768,0.00479126,-1.00677490,0.427246,0.000000,-0.122070
1387134083,0.00112915,0.00349426,-1.00660706,0.549316,0.061035,0.000000
1392112500,0.00160217,0.00276184,-1.00570679,0.244141,0.000000,0.000000
1397144458,0.00178528,0.00254822,-1.00524902,0.183105,0.122070,-0.122070
1402173125,0.00216675,0.00241089,-1.00590515,0.366211,0.061035,-0.061035
1407147041,0.00314331,0.00215149,-1.00672913,0.305176,-0.061035,-0.183105
1412117916,0.00384521,0.00196838,-1.00682068,0.305176,0.000000,-0.183105
1417148458,0.00329590,0.00210571,-1.00656128,0.244141,0.061035,0.000000
1422132291,0.00238037,0.00239563,-1.00671387,0.244141,0.061035,-0.122070
1427135416,0.00247192,0.00279236,-1.00700378,0.244141,0.122070,-0.183105
1432161000,0.00297546,0.00338745,-1.00691223,0.366211,0.183105,0.000000
1437126833,0.00273132,0.00398254,-1.00694275,0.366211,-0.061035,-0.122070
1442136791,0.00196838,0.00389099,-1.00723267,0.244141,0.000000,-0.122070
1447172125,0.00134277,0.00320435,-1.00740051,0.366211,0.122070,-0.061035
1452183250,0.00102234,0.00292969,-1.00732422,0.244141,0.061035,-0.183105
1457150041,0.00093079,0.00321960,-1.00694275,0.427246,0.122070,-0.122070
1462151666,0.00090027,0.00350952,-1.00668335,0.366211,0.122070,-0.122070
1467201416,0.00053406,0.00375366,-1.00706482,0.305176,0.122070,-0.061035
1472136416,-0.00019836,0.00416565,-1.00750732,0.366211,0.183105,-0.183105
1477146541,-0.00059509,0.00448608,-1.00729370,0.427246,0.122070,-0.061035
1482211541,0.00010681,0.00415039,-1.00692749,0.244141,0.061035,-0.183105
1487192125,0.00169373,0.00367737,-1.00697327,0.366211,0.122070,-0.061035
1492177291,0.00277710,0.00384521,-1.00726318,0.305176,0.122070,-0.061035
1497178833,0.00276184,0.00444031,-1.00740051,0.366211,0.122070,0.000000
1502141041,0.00221252,0.00453186,-1.00746155,0.366211,0.183105,0.000000
1507168625,0.00173950,0.00393677,-1.00750732,0.183105,0.061035,0.000000
1512179291,0.00198364,0.00334167,-1.00747681,0.366211,0.061035,-0.183105
1517237250,0.00308228,0.00283813,-1.00755310,0.305176,0.000000,-0.122070
1522179750,0.00392151,0.00231934,-1.00784302,0.366211,-0.061035,-0.061035
1527163666,0.00384521,0.00236511,-1.00819397,0.366211,0.000000,-0.061035
1532167083,0.00346375,0.00306702,-1.00833130,0.366211,0.061035,-0.061035
1537145416,0.00329590,0.00376892,-1.00801086,0.244141,0.061035,-0.061035
1542156666,0.00311279,0.00381470,-1.00720215,0.305176,0.061035,-0.122070
1547157250,0.00260925,0.00334167,-1.00651550,0.244141,0.000000,0.061035
1552166083,0.00189209,0.00318909,-1.00669861,0.366211,-0.061035,-0.122070
1557146500,0.00120544,0.00352478,-1.00737000,0.366211,0.061035,0.000000
1562147125,0.00088501,0.00372314,-1.00694275,0.244141,0.122070,-0.061035
1567179458,0.00085449,0.00386047,-1.00573730,0.366211,0.000000,-0.122070
1572158458,0.00068665,0.00415039,-1.00555420,0.427246,0.061035,-0.061035
1577151333,0.00038147,0.00415039,-1.00617981,0.366211,0.122070,-0.122070
1582159000,0.00047302,0.00379944,-1.00622559,0.244141,0.000000,-0.122070
1587161458,0.00082397,0.00364685,-1.00588989,0.366211,0.183105,-0.061035
1592148708,0.00105286,0.00376892,-1.00595093,0.244141,0.122070,-0.122070
1597158708,0.00135803,0.00372314,-1.00627136,0.427246,0.000000,0.000000
1602168083,0.00198364,0.00349426,-1.00646973,0.244141,0.000000,0.000000
1607154583,0.00239563,0.00346375,-1.00627136,0.305176,0.000000,0.000000
1612154500,0.00253296,0.00367737,-1.00559998,0.366211,0.000000,-0.061035
1617185250,0.00296021,0.00370789,-1.00549316,0.305176,0.122070,-0.122070
1622169625,0.00358582,0.00360107,-1.00639343,0.366211,0.244141,-0.183105
1627164041,0.00372314,0.00370789,-1.00697327,0.305176,-0.061035,-0.183105
1632193208,0.00328064,0.00393677,-1.00651550,0.427246,-0.061035,-0.061035
1637169083,0.00292969,0.00413513,-1.00588989,0.366211,0.061035,-0.061035
1642170166,0.00303650,0.00399780,-1.00602722,0.305176,0.061035,-0.061035
1647181666,0.00317383,0.00347900,-1.00662231,0.305176,0.122070,-0.061035
1652189125,0.00270081,0.00315857,-1.00656128,0.305176,0.122070,0.000000
1657165083,0.00184631,0.00299072,-1.00611877,0.305176,0.122070,-0.061035
1662161250,0.00106812,0.00267029,-1.00625610,0.305176,-0.061035,-0.122070
1667169791,0.00039673,0.00244141,-1.00706482,0.183105,-0.061035,-0.122070
1672169916,0.00010681,0.00231934,-1.00749207,0.183105,-0.061035,0.000000
1677167583,0.00007629,0.00231934,-1.00698853,0.183105,0.000000,0.000000
1682190416,-0.00021362,0.00267029,-1.00660706,0.305176,0.061035,-0.061035
1687206625,-0.00024414,0.00303650,-1.00714111,0.122070,0.000000,-0.183105
1692169041,0.00070190,0.00305176,-1.00784302,0.366211,0.000000,-0.122070
1697160666,0.00175476,0.00288391,-1.00756836,0.305176,0.061035,-0.061035
1702178125,0.00187683,0.00274658,-1.00608826,0.122070,0.061035,-0.061035
1707182458,0.00149536,0.00305176,-1.00492859,0.244141,-0.061035,-0.061035
1712190458,0.00170898,0.00364685,-1.00524902,0.366211,-0.122070,-0.183105
1717241666,0.00279236,0.00375366,-1.00584412,0.305176,0.122070,-0.061035
1722204958,0.00393677,0.00314331,-1.00555420,0.183105,0.000000,-0.122070
1727191125,0.00431824,0.00270081,-1.00576782,0.366211,0.000000,-0.061035
1732227666,0.00415039,0.00314331,-1.00749207,0.244141,0.122070,0.000000
1737188750,0.00404358,0.00375366,-1.00830078,0.305176,0.000000,0.000000
1742187708,0.00395203,0.00379944,-1.00695801,0.183105,0.061035,-0.122070
1747176583,0.00361633,0.00358582,-1.00585938,0.305176,0.183105,-0.061035
1752239916,0.00270081,0.00337219,-1.00639343,0.183105,0.061035,0.061035
1757192000,0.00149536,0.00321960,-1.00761414,0.061035,0.061035,0.061035
1762177166,0.00061035,0.00335693,-1.00805664,0.305176,0.122070,-0.061035
1767199625,0.00015259,0.00352478,-1.00711060,0.183105,0.000000,-0.061035
1772196375,-0.00012207,0.00329590,-1.00592041,0.244141,0.122070,-0.061035
1777182958,-0.00036621,0.00309753,-1.00578308,0.244141,0.000000,-0.183105
1782192916,-0.00045776,0.00332642,-1.00619507,0.244141,0.061035,-0.122070
1787195125,-0.00035095,0.00387573,-1.00614929,0.122070,-0.061035,-0.061035
1792182875,-0.00024414,0.00428772,-1.00573730,0.366211,0.122070,-0.061035
1797204750,-0.00027466,0.00422668,-1.00648499,0.244141,0.122070,-0.061035
1802181083,0.00000000,0.00415039,-1.00761414,0.244141,-0.061035,-0.122070
1807180583,0.00073242,0.00422668,-1.00700378,0.366211,0.000000,-0.061035
1812193375,0.00148010,0.00411987,-1.00598145,0.244141,0.122070,-0.061035
1817216208,0.00207520,0.00390625,-1.00637817,0.366211,0.061035,0.000000
1822191708,0.00288391,0.00410461,-1.00694275,0.427246,0.061035,-0.061035
1827191083,0.00378418,0.00462341,-1.00688171,0.366211,0.000000,-0.122070
1832189833,0.00437927,0.00486755,-1.00628662,0.183105,0.000000,-0.122070
1837181916,0.00422668,0.00453186,-1.00534058,0.305176,-0.061035,0.061035
1842177541,0.00367737,0.00392151,-1.00549316,0.305176,0.122070,-0.061035
1847188916,0.00352478,0.00332642,-1.00674438,0.305176,0.122070,0.000000
1852207250,0.00358582,0.00296021,-1.00701904,0.427246,0.122070,-0.061035
1857196125,0.00299072,0.00285339,-1.00642395,0.366211,0.061035,-0.122070
1862183791,0.00195312,0.00277710,-1.00642395,0.305176,0.122070,-0.061035
1867223666,0.00141907,0.00242615,-1.00689697,0.366211,0.183105,-0.122070
1872139833,0.00119019,0.00219727,-1.00666809,0.305176,0.061035,-0.122070
1877198333,0.00056458,0.00230408,-1.00588989,0.366211,0.000000,-0.061035
1882206458,-0.00035095,0.00245667,-1.00564575,0.305176,0.061035,0.061035
1887223791,-0.00097656,0.00222778,-1.00653076,0.305176,0.122070,0.000000
1892192125,-0.00099182,0.00180054,-1.00740051,0.244141,0.061035,-0.061035
1897202041,-0.00053406,0.00181580,-1.00709534,0.366211,0.183105,-0.061035
1902216541,0.00036621,0.00241089,-1.00634766,0.366211,0.183105,0.061035
1907195541,0.00148010,0.00328064,-1.00631714,0.366211,0.000000,-0.061035
1912209916,0.00186157,0.00401306,-1.00669861,0.427246,0.000000,0.122070
1917239625,0.00173950,0.00431824,-1.00672913,0.244141,0.000000,-0.061035
1922224541,0.00230408,0.00453186,-1.00627136,0.305176,0.122070,-0.061035
1927212458,0.00340271,0.00491333,-1.00605774,0.305176,-0.061035,-0.061035
1932233166,0.00415039,0.00485229,-1.00657654,0.305176,-0.061035,-0.061035
1937210291,0.00421143,0.00427246,-1.00695801,0.305176,0.000000,0.000000
1942202458,0.00361633,0.00393677,-1.00651550,0.305176,0.122070,-0.061035
1947186041,0.00276184,0.00399780,-1.00604248,0.244141,0.000000,0.000000
1952243041,0.00207520,0.00379944,-1.00634766,0.305176,-0.061035,-0.061035
1957308791,0.00163269,0.00323486,-1.00683594,0.427246,0.061035,-0.061035
1962226458,0.00119019,0.00292969,-1.00669861,0.427246,-0.061035,-0.122070
1967290958,0.00057983,0.00318909,-1.00596619,0.244141,0.000000,-0.122070
1972225500,0.00000000,0.00370789,-1.00538635,0.305176,0.000000,-0.244141
1977204125,-0.00030518,0.00393677,-1.00572205,0.183105,0.000000,-0.183105
1982260750,-0.00030518,0.00366211,-1.00669861,0.366211,0.061035,-0.061035
1987255708,-0.00036621,0.00315857,-1.00698853,0.244141,0.061035,-0.122070
1992230541,-0.00062561,0.00308228,-1.00639343,0.366211,0.061035,-0.061035
1997244833,-0.00051880,0.00347900,-1.00604248,0.366211,0.183105,0.061035
2002259875,0.00013733,0.00372314,-1.00631714,0.305176,0.244141,0.000000
2007231958,0.00096130,0.00344849,-1.00625610,0.244141,0.061035,-0.122070
2012209041,0.00193787,0.00305176,-1.00564575,0.366211,0.122070,-0.061035
2017222875,0.00297546,0.00315857,-1.00564575,0.366211,0.061035,-0.183105
2022213875,0.00354004,0.00382996,-1.00636292,0.183105,0.061035,-0.244141
2027234916,0.00367737,0.00419617,-1.00651550,0.366211,0.122070,-0.122070
2032313208,0.00379944,0.00392151,-1.00576782,0.427246,0.061035,-0.061035
2037229500,0.00390625,0.00387573,-1.00538635,0.366211,0.061035,-0.061035
2042212833,0.00392151,0.00437927,-1.00599670,0.305176,-0.061035,-0.122070
2047214208,0.00382996,0.00474548,-1.00668335,0.305176,0.122070,0.000000
2052280541,0.00343323,0.00497437,-1.00659180,0.305176,0.061035,-0.122070
2057224000,0.00277710,0.00512695,-1.00617981,0.366211,0.122070,0.000000
2062226458,0.00241089,0.00486755,-1.00639343,0.305176,0.122070,0.000000
2067229666,0.00195312,0.00440979,-1.00709534,0.366211,0.061035,0.000000
2072213958,0.00103760,0.00393677,-1.00729370,0.305176,0.000000,-0.122070
2077215625,0.00048828,0.00350952,-1.00671387,0.427246,0.000000,-0.122070
2082225291,0.00022888,0.00306702,-1.00601196,0.366211,0.122070,0.000000
2087236625,-0.00038147,0.00273132,-1.00566101,0.244141,0.122070,0.000000
2092222750,-0.00115967,0.00260925,-1.00549316,0.305176,0.061035,0.000000
2097234166,-0.00143433,0.00239563,-1.00543213,0.305176,0.061035,-0.122070
2102264541,-0.00100708,0.00199890,-1.00569153,0.305176,0.183105,0.000000
2107209000,-0.00030518,0.00187683,-1.00637817,0.244141,0.122070,0.000000
2112244625,0.00051880,0.00205994,-1.00718689,0.244141,0.122070,-0.244141
2117249500,0.00144958,0.00210571,-1.00752258,0.244141,0.061035,-0.122070
2122223458,0.00201416,0.00222778,-1.00697327,0.366211,-0.061035,0.000000
2127250791,0.00230408,0.00271606,-1.00617981,0.244141,0.122070,0.000000
2132247541,0.00305176,0.00326538,-1.00590515,0.366211,0.122070,0.000000
2137242375,0.00396729,0.00349426,-1.00604248,0.366211,0.061035,-0.061035
2142236625,0.00421143,0.00352478,-1.00578308,0.244141,0.122070,0.000000
2147237083,0.00399780,0.00375366,-1.00534058,0.183105,0.122070,-0.061035
2152248916,0.00375366,0.00419617,-1.00578308,0.244141,0.000000,-0.061035
2157229333,0.00338745,0.00444031,-1.00663757,0.366211,0.061035,-0.061035
2162245791,0.00294495,0.00447083,-1.00654602,0.183105,0.122070,-0.122070
2167275916,0.00242615,0.00463867,-1.00578308,0.427246,0.122070,0.000000
2172228625,0.00167847,0.00505066,-1.00573730,0.244141,-0.061035,-0.122070
2177229666,0.00106812,0.00523376,-1.00665283,0.244141,0.122070,0.000000
2182253541,0.00088501,0.00505066,-1.00756836,0.244141,0.061035,-0.122070
2187252083,0.00076294,0.00486755,-1.00773621,0.305176,0.061035,-0.122070
2192228375,0.00068665,0.00476074,-1.00732422,0.366211,0.061035,-0.183105
2197238500,0.00082397,0.00418091,-1.00709534,0.305176,0.061035,0.061035
2202225625,0.00091553,0.00328064,-1.00709534,0.244141,0.000000,-0.244141
2207224125,0.00070190,0.00263977,-1.00659180,0.427246,0.000000,0.000000
2212244583,0.00038147,0.00219727,-1.00585938,0.305176,0.061035,-0.183105
2217271625,0.00032043,0.00170898,-1.00613403,0.366211,0.061035,-0.061035
2222237083,0.00042725,0.00134277,-1.00669861,0.244141,0.000000,-0.061035
2227246791,0.00086975,0.00141907,-1.00624084,0.366211,0.061035,-0.183105
2232246708,0.00172424,0.00152588,-1.00540161,0.244141,-0.122070,-0.061035
2237251708,0.00260925,0.00137329,-1.00534058,0.366211,-0.122070,-0.061035
2242243166,0.00331116,0.00157166,-1.00592041,0.366211,0.000000,0.061035
2247248000,0.00361633,0.00222778,-1.00642395,0.122070,0.061035,-0.183105
2252244833,0.00372314,0.00297546,-1.00605774,0.244141,0.122070,-0.061035
2257245375,0.00382996,0.00372314,-1.00540161,0.366211,0.122070,-0.061035
2262249375,0.00378418,0.00428772,-1.00556946,0.305176,0.061035,-0.122070
2267247375,0.00317383,0.00453186,-1.00627136,0.244141,0.061035,0.000000
2272241250,0.00216675,0.00469971,-1.00671387,0.244141,0.061035,-0.122070
2277248875,0.00144958,0.00479126,-1.00639343,0.244141,0.000000,-0.122070
2282242458,0.00131226,0.00459290,-1.00585938,0.305176,0.000000,-0.183105
2287262125,0.00140381,0.00416565,-1.00602722,0.366211,0.122070,-0.122070
2292246000,0.00134277,0.00398254,-1.00656128,0.305176,0.122070,-0.183105
2297255125,0.00122070,0.00398254,-1.00643921,0.366211,0.183105,-0.061035
2302269375,0.00126648,0.00396729,-1.00584412,0.427246,-0.061035,-0.122070
2307280416,0.00119019,0.00381470,-1.00563049,0.427246,0.061035,-0.122070
2312251541,0.00100708,0.00355530,-1.00596619,0.366211,0.061035,-0.061035
2317298041,0.00094604,0.00338745,-1.00640869,0.305176,0.122070,0.000000
2322271375,0.00112915,0.00334167,-1.00642395,0.366211,0.122070,0.122070
2327285416,0.00175476,0.00309753,-1.00616455,0.366211,0.061035,-0.061035
2332296375,0.00251770,0.00256348,-1.00627136,0.305176,0.061035,0.000000
2337261375,0.00276184,0.00202942,-1.00674438,0.305176,0.122070,-0.061035
2342247041,0.00265503,0.00166321,-1.00708008,0.122070,0.061035,-0.061035
2347521291,0.00286865,0.00160217,-1.00700378,0.244141,0.061035,0.122070
2352268583,0.00328064,0.00216675,-1.00685120,0.183105,0.122070,-0.061035
2357254375,0.00346375,0.00328064,-1.00685120,0.427246,0.061035,-0.122070
2362262583,0.00328064,0.00430298,-1.00653076,0.366211,-0.061035,-0.122070
2367273791,0.00274658,0.00485229,-1.00617981,0.427246,0.000000,0.061035
2372265791,0.00190735,0.00491333,-1.00601196,0.366211,0.061035,0.000000
2377253041,0.00102234,0.00480652,-1.00573730,0.305176,0.061035,-0.061035
2382250083,0.00068665,0.00469971,-1.00569153,0.366211,0.122070,-0.061035
2387263541,0.00085449,0.00465393,-1.00595093,0.305176,0.061035,-0.122070
2392266458,0.00117493,0.00469971,-1.00616455,0.366211,0.061035,0.000000
2397260208,0.00123596,0.00442505,-1.00622559,0.244141,0.061035,-0.061035
2402279291,0.00068665,0.00349426,-1.00617981,0.427246,0.000000,-0.061035
2407266041,-0.00013733,0.00244141,-1.00610352,0.488281,0.122070,-0.122070
2412245458,-0.00079346,0.00218201,-1.00582886,0.427246,0.061035,-0.061035
2417288625,-0.00082397,0.00238037,-1.00576782,0.427246,0.061035,-0.061035
2422275166,0.00004578,0.00230408,-1.00621033,0.244141,0.000000,-0.061035
2427259291,0.00143433,0.00221252,-1.00669861,0.305176,0.122070,-0.122070
2432290916,0.00253296,0.00242615,-1.00669861,0.427246,0.183105,-0.122070
2437299250,0.00311279,0.00262451,-1.00648499,0.366211,0.122070,-0.122070
2442294708,0.00346375,0.00296021,-1.00656128,0.305176,0.061035,-0.122070
2447282208,0.00367737,0.00373840,-1.00668335,0.366211,0.000000,-0.061035
2452330125,0.00386047,0.00460815,-1.00637817,0.305176,0.122070,0.000000
2457290875,0.00382996,0.00512695,-1.00613403,0.305176,0.183105,0.000000
2462296916,0.00308228,0.00524902,-1.00650024,0.366211,-0.061035,-0.122070
2467310125,0.00239563,0.00502014,-1.00692749,0.183105,0.061035,-0.122070
2472261333,0.00245667,0.00462341,-1.00680542,0.305176,0.183105,-0.061035
2477266583,0.00239563,0.00444031,-1.00645447,0.305176,0.000000,-0.122070
2482304000,0.00152588,0.00434875,-1.00622559,0.366211,0.122070,0.061035
2487301958,0.00050354,0.00392151,-1.00595093,0.366211,-0.061035,-0.122070
2492277833,0.00001526,0.00328064,-1.00579834,0.183105,0.061035,-0.122070
2497280291,0.00000000,0.00273132,-1.00598145,0.305176,0.000000,-0.122070
2502276208,-0.00032043,0.00230408,-1.00607300,0.244141,0.000000,-0.122070
2507270166,-0.00105286,0.00205994,-1.00616455,0.427246,0.061035,-0.122070
2512287875,-0.00148010,0.00225830,-1.00627136,0.244141,0.122070,-0.183105
2517369750,-0.00109863,0.00285339,-1.00573730,0.244141,0.061035,-0.061035
2522316208,-0.00003052,0.00326538,-1.00483704,0.305176,0.061035,0.000000
2527288541,0.00099182,0.00317383,-1.00460815,0.427246,0.061035,-0.183105
2532280708,0.00175476,0.00294495,-1.00535583,0.305176,0.122070,-0.122070
2537261875,0.00231934,0.00288391,-1.00680542,0.427246,0.061035,-0.122070
2542286750,0.00271606,0.00306702,-1.00793457,0.366211,0.122070,0.000000
2547311583,0.00314331,0.00350952,-1.00773621,0.244141,0.061035,-0.061035
2552345083,0.00357056,0.00387573,-1.00683594,0.244141,0.183105,-0.061035
2557290791,0.00379944,0.00396729,-1.00672913,0.122070,0.000000,0.000000
2562292125,0.00358582,0.00395203,-1.00732422,0.244141,0.061035,-0.122070
2567317375,0.00314331,0.00395203,-1.00741577,0.305176,0.061035,-0.244141
2572289416,0.00305176,0.00398254,-1.00663757,0.427246,0.061035,0.000000
2577296625,0.00315857,0.00401306,-1.00596619,0.305176,0.122070,-0.061035
2582309333,0.00271606,0.00395203,-1.00608826,0.244141,0.000000,-0.061035
2587321416,0.00169373,0.00387573,-1.00657654,0.427246,-0.061035,0.061035
2592297375,0.00076294,0.00370789,-1.00666809,0.488281,0.122070,-0.061035
2597283125,0.00028992,0.00337219,-1.00645447,0.366211,0.061035,-0.122070
2602293875,0.00006104,0.00334167,-1.00625610,0.366211,0.061035,-0.061035
2607298583,-0.00001526,0.00355530,-1.00627136,0.366211,0.061035,-0.061035
2612324375,-0.00004578,0.00335693,-1.00666809,0.305176,0.061035,0.000000
2617318875,-0.00021362,0.00297546,-1.00701904,0.427246,0.061035,-0.122070
2622297708,-0.00054932,0.00279236,-1.00700378,0.244141,0.061035,-0.061035
2627270458,-0.00067139,0.00274658,-1.00686646,0.244141,0.122070,-0.061035
2632305416,-0.00003052,0.00303650,-1.00675964,0.305176,0.183105,-0.122070
2637319250,0.00096130,0.00360107,-1.00648499,0.305176,0.122070,-0.122070
2642305750,0.00181580,0.00401306,-1.00614929,0.305176,0.122070,0.000000
2647312083,0.00268555,0.00433350,-1.00613403,0.366211,0.000000,-0.061035
2652327916,0.00326538,0.00469971,-1.00624084,0.244141,0.183105,-0.061035
2657293458,0.00328064,0.00480652,-1.00628662,0.305176,0.000000,-0.061035
2662303791,0.00335693,0.00445557,-1.00688171,0.122070,0.061035,0.000000
2667299333,0.00363159,0.00399780,-1.00756836,0.427246,0.122070,-0.122070
2672289916,0.00338745,0.00393677,-1.00706482,0.366211,0.122070,0.061035
2677303625,0.00268555,0.00431824,-1.00599670,0.366211,0.000000,0.000000
2682329041,0.00196838,0.00436401,-1.00561523,0.183105,0.061035,-0.183105
2687353625,0.00152588,0.00370789,-1.00595093,0.183105,0.000000,-0.122070
2692312208,0.00173950,0.00299072,-1.00677490,0.305176,0.061035,0.000000
2697322833,0.00215149,0.00277710,-1.00730896,0.244141,0.122070,-0.122070
2702354833,0.00192261,0.00285339,-1.00657654,0.244141,-0.122070,-0.122070
2707303875,0.00103760,0.00279236,-1.00546265,0.305176,0.061035,-0.061035
2712297416,0.00000000,0.00242615,-1.00569153,0.244141,-0.061035,-0.061035
2717329833,-0.00056458,0.00173950,-1.00656128,0.244141,0.000000,0.061035
2722354458,-0.00051880,0.00079346,-1.00640869,0.305176,0.183105,0.122070
2727367125,-0.00016785,0.00025940,-1.00593567,0.305176,0.122070,-0.061035
2732413500,0.00012207,0.00082397,-1.00646973,0.427246,0.122070,-0.061035
2737330625,0.00050354,0.00241089,-1.00691223,0.488281,0.061035,-0.061035
2742311416,0.00126648,0.00418091,-1.00605774,0.488281,0.183105,-0.183105
2747330541,0.00262451,0.00543213,-1.00489807,0.305176,-0.061035,-0.122070
2752374083,0.00422668,0.00621033,-1.00483704,0.427246,0.000000,-0.122070
2757317333,0.00508118,0.00665283,-1.00610352,0.366211,0.061035,-0.122070
2762357458,0.00448608,0.00646973,-1.00738525,0.305176,0.122070,-0.122070
2767330708,0.00347900,0.00581360,-1.00715637,0.366211,0.000000,0.061035
2772318291,0.00326538,0.00544739,-1.00559998,0.305176,0.183105,-0.061035
2777311791,0.00321960,0.00575256,-1.00454712,0.366211,0.061035,0.000000
2782329208,0.00250244,0.00595093,-1.00515747,0.427246,0.000000,0.061035
2787332625,0.00146484,0.00547791,-1.00625610,0.488281,0.061035,0.000000
2792303458,0.00083923,0.00489807,-1.00633240,0.305176,0.122070,0.061035
2797312666,0.00048828,0.00462341,-1.00584412,0.305176,-0.061035,-0.061035
2802316000,0.00000000,0.00430298,-1.00596619,0.366211,0.061035,0.000000
2807298750,-0.00027466,0.00389099,-1.00659180,0.366211,0.000000,-0.061035
2812315583,-0.00018311,0.00343323,-1.00685120,0.488281,0.122070,-0.061035
2817325125,0.00000000,0.00263977,-1.00633240,0.305176,0.061035,0.000000
2822303041,-0.00025940,0.00146484,-1.00546265,0.244141,0.061035,-0.122070
2827303000,-0.00045776,0.00038147,-1.00529480,0.366211,0.000000,0.000000
2832312166,0.00015259,-0.00019836,-1.00584412,0.610352,0.122070,-0.061035
2837304291,0.00126648,-0.00042725,-1.00636292,0.305176,0.000000,-0.122070
2842322458,0.00212097,-0.00056458,-1.00646973,0.427246,0.061035,0.061035
2847321958,0.00259399,-0.00068665,-1.00642395,0.305176,0.061035,-0.061035
2852325666,0.00315857,-0.00025940,-1.00651550,0.366211,0.000000,-0.061035
2857325750,0.00411987,0.00125122,-1.00636292,0.427246,0.061035,0.000000
2862313208,0.00532532,0.00314331,-1.00604248,0.366211,0.061035,-0.061035
2867339041,0.00639343,0.00454712,-1.00630188,0.305176,0.122070,-0.122070
2872325875,0.00679016,0.00576782,-1.00675964,0.183105,0.061035,-0.122070
2877335875,0.00627136,0.00729370,-1.00666809,0.183105,0.000000,-0.122070
2882333916,0.00544739,0.00857544,-1.00614929,0.244141,-0.061035,-0.183105
2887327458,0.00462341,0.00886536,-1.00593567,0.549316,0.061035,-0.061035
2892316958,0.00343323,0.00851440,-1.00633240,0.305176,0.061035,-0.122070
2897314083,0.00225830,0.00822449,-1.00689697,0.305176,-0.061035,-0.122070
2902326791,0.00166321,0.00762939,-1.00724792,0.244141,0.061035,0.000000
2907328833,0.00102234,0.00607300,-1.00724792,0.305176,-0.183105,-0.061035
2912319583,-0.00044250,0.00421143,-1.00727844,0.305176,0.061035,-0.061035
2917369833,-0.00224304,0.00305176,-1.00723267,0.366211,0.122070,0.000000
2922327666,-0.00311279,0.00270081,-1.00682068,0.549316,0.000000,-0.061035
2927317916,-0.00267029,0.00245667,-1.00637817,0.427246,0.061035,-0.061035
2932366583,-0.00178528,0.00183105,-1.00611877,0.488281,0.122070,-0.122070
2937322541,-0.00129700,0.00102234,-1.00582886,0.427246,0.061035,-0.122070
2942318541,-0.00093079,0.00073242,-1.00592041,0.366211,0.061035,-0.122070
2947341916,-0.00007629,0.00123596,-1.00668335,0.427246,0.183105,-0.183105
2952371041,0.00102234,0.00204468,-1.00665283,0.549316,0.061035,-0.122070
2957325083,0.00180054,0.00244141,-1.00602722,0.488281,0.122070,0.061035
2962324333,0.00238037,0.00216675,-1.00679016,0.305176,0.000000,-0.061035
2967338625,0.00289917,0.00148010,-1.00761414,0.305176,0.000000,0.000000
2972342625,0.00326538,0.00085449,-1.00672913,0.366211,0.122070,0.122070
2977370083,0.00354004,0.00090027,-1.00550842,0.366211,0.122070,0.122070
2982347166,0.00389099,0.00163269,-1.00527954,0.122070,0.061035,0.061035
2987361958,0.00442505,0.00260925,-1.00556946,0.488281,0.000000,-0.122070
2992333625,0.00466919,0.00358582,-1.00595093,0.305176,0.000000,0.000000
2997332791,0.00430298,0.00440979,-1.00607300,0.183105,-0.061035,-0.122070
3002330333,0.00373840,0.00538635,-1.00587463,0.244141,0.000000,-0.122070
3007323625,0.00306702,0.00668335,-1.00608826,0.305176,0.061035,-0.122070
3012335833,0.00250244,0.00755310,-1.00648499,0.305176,0.000000,-0.122070
3017365083,0.00219727,0.00714111,-1.00653076,0.305176,0.183105,0.000000
3022347875,0.00169373,0.00566101,-1.00639343,0.366211,0.061035,-0.122070
3027339041,0.00065613,0.00413513,-1.00622559,0.427246,0.122070,0.061035
3032358250,-0.00048828,0.00282288,-1.00590515,0.549316,0.183105,0.061035
3037344875,-0.00112915,0.00177002,-1.00521851,0.488281,0.000000,0.122070
3042338208,-0.00115967,0.00093079,-1.00421143,0.366211,0.183105,0.122070
3047341791,-0.00099182,0.00030518,-1.00418091,0.427246,0.244141,-0.061035
3052374875,-0.00059509,0.00038147,-1.00625610,0.366211,0.061035,0.000000
3057363166,0.00054932,0.00114441,-1.00788879,0.305176,0.122070,0.000000
3062331750,0.00207520,0.00204468,-1.00660706,0.366211,0.122070,0.000000
3067349833,0.00302124,0.00283813,-1.00511169,0.183105,0.061035,-0.061035
3072360750,0.00341797,0.00323486,-1.00585938,0.061035,0.000000,-0.122070
3077333500,0.00370789,0.00338745,-1.00729370,0.305176,0.000000,-0.061035
3082346583,0.00405884,0.00364685,-1.00759888,0.427246,0.122070,-0.061035
3087351166,0.00437927,0.00393677,-1.00685120,0.427246,0.000000,-0.183105
3092346333,0.00447083,0.00421143,-1.00608826,0.305176,0.000000,-0.061035
3097361833,0.00431824,0.00437927,-1.00613403,0.305176,0.000000,0.000000
3102360708,0.00366211,0.00427246,-1.00636292,0.366211,0.061035,-0.122070
3107348083,0.00234985,0.00386047,-1.00575256,0.305176,0.061035,0.000000
3112342708,0.00103760,0.00352478,-1.00491333,0.488281,0.061035,0.000000
3117358208,0.00059509,0.00360107,-1.00494385,0.366211,0.061035,-0.183105
3122355166,0.00082397,0.00386047,-1.00553894,0.366211,0.000000,0.061035
3127362708,0.00119019,0.00413513,-1.00559998,0.427246,0.061035,-0.061035
3132355708,0.00128174,0.00447083,-1.00502014,0.427246,0.122070,-0.061035
3137357250,0.00094604,0.00448608,-1.00476074,0.183105,0.061035,-0.183105
3142345416,0.00076294,0.00399780,-1.00479126,0.244141,0.061035,-0.061035
3147361250,0.00097656,0.00320435,-1.00547791,0.366211,0.122070,-0.122070
3152365000,0.00093079,0.00251770,-1.00779724,0.244141,0.061035,-0.061035
3157349666,0.00059509,0.00192261,-1.00926208,0.427246,0.000000,-0.061035
3162352666,0.00048828,0.00120544,-1.00775146,0.366211,0.000000,-0.122070
3167384291,0.00094604,0.00061035,-1.00592041,0.244141,0.000000,0.000000
3172360625,0.00175476,0.00059509,-1.00572205,0.366211,0.061035,0.000000
3177349416,0.00247192,0.00105286,-1.00604248,0.488281,0.122070,0.061035
3182371166,0.00299072,0.00190735,-1.00646973,0.305176,0.122070,-0.122070
3187363291,0.00321960,0.00320435,-1.00663757,0.427246,0.122070,-0.061035
3192355541,0.00315857,0.00454712,-1.00590515,0.244141,0.061035,-0.122070
3197362708,0.00341797,0.00558472,-1.00534058,0.488281,0.000000,-0.061035
3202336208,0.00392151,0.00617981,-1.00613403,0.488281,0.061035,-0.122070
3207349541,0.00370789,0.00614929,-1.00727844,0.366211,-0.061035,-0.122070
3212382333,0.00282288,0.00553894,-1.00737000,0.305176,0.000000,-0.061035
3217413791,0.00202942,0.00494385,-1.00669861,0.244141,-0.061035,-0.061035
3222377458,0.00119019,0.00471497,-1.00614929,0.183105,0.000000,-0.122070
3227361833,0.00032043,0.00431824,-1.00628662,0.244141,0.183105,0.061035
3232362708,-0.00010681,0.00328064,-1.00646973,0.366211,0.000000,-0.183105
3237362000,-0.00013733,0.00218201,-1.00593567,0.305176,0.061035,0.000000
3242368708,-0.00035095,0.00152588,-1.00527954,0.366211,0.061035,-0.061035
3247373708,-0.00093079,0.00115967,-1.00567627,0.244141,0.061035,-0.061035
3252413208,-0.00105286,0.00109863,-1.00694275,0.366211,0.000000,-0.061035
3257375041,-0.00015259,0.00148010,-1.00753784,0.305176,0.061035,0.000000
3262424916,0.00123596,0.00212097,-1.00639343,0.244141,0.061035,-0.183105
3267385541,0.00231934,0.00277710,-1.00495911,0.244141,0.122070,-0.122070
3272398666,0.00296021,0.00337219,-1.00529480,0.244141,0.122070,-0.061035
3277379833,0.00347900,0.00410461,-1.00660706,0.366211,-0.061035,-0.122070
3282369000,0.00408936,0.00491333,-1.00666809,0.305176,0.000000,-0.122070
3287404958,0.00456238,0.00535583,-1.00543213,0.366211,-0.122070,-0.061035
3292371708,0.00447083,0.00518799,-1.00482178,0.244141,0.000000,-0.061035
3297376208,0.00413513,0.00476074,-1.00553894,0.183105,0.000000,0.000000
3302368333,0.00405884,0.00430298,-1.00636292,0.305176,0.061035,-0.122070
3307364583,0.00369263,0.00376892,-1.00645447,0.366211,0.000000,0.000000
3312407625,0.00257874,0.00320435,-1.00602722,0.305176,0.061035,-0.061035
3317478583,0.00154114,0.00285339,-1.00558472,0.244141,0.000000,0.061035
3322434833,0.00117493,0.00285339,-1.00552368,0.183105,0.122070,-0.122070
3327398791,0.00085449,0.00303650,-1.00550842,0.427246,0.122070,-0.122070
3332460458,0.00012207,0.00320435,-1.00503540,0.366211,0.122070,-0.061035
3337471000,-0.00028992,0.00332642,-1.00488281,0.488281,0.061035,0.000000
3342487166,-0.00006104,0.00311279,-1.00553894,0.488281,0.244141,-0.061035
3347425666,0.00064087,0.00236511,-1.00590515,0.427246,0.122070,-0.122070
3352436041,0.00140381,0.00161743,-1.00561523,0.488281,0.061035,-0.122070
3357389416,0.00152588,0.00131226,-1.00595093,0.305176,0.061035,0.000000
3362419333,0.00129700,0.00119019,-1.00686646,0.366211,0.061035,0.000000
3367399333,0.00161743,0.00085449,-1.00712585,0.305176,0.183105,0.000000
3372384250,0.00242615,0.00088501,-1.00692749,0.366211,0.061035,0.000000
3377383500,0.00292969,0.00181580,-1.00711060,0.183105,0.000000,-0.122070
3382383833,0.00280762,0.00340271,-1.00767517,0.305176,0.061035,-0.061035
3387390750,0.00267029,0.00466919,-1.00805664,0.305176,0.122070,0.000000
3392383625,0.00279236,0.00488281,-1.00778198,0.488281,-0.061035,-0.061035
3397372666,0.00288391,0.00447083,-1.00688171,0.549316,0.122070,-0.061035
3402384791,0.00270081,0.00465393,-1.00616455,0.305176,0.000000,0.000000
3407380875,0.00262451,0.00538635,-1.00540161,0.244141,0.061035,-0.061035
3412380916,0.00276184,0.00556946,-1.00427246,0.366211,0.122070,-0.183105
3417428750,0.00251770,0.00485229,-1.00567627,0.244141,0.122070,-0.244141
3422385333,0.00177002,0.00381470,-1.00949097,0.305176,0.122070,-0.061035
3427394333,0.00099182,0.00289917,-1.01039124,0.244141,-0.061035,0.000000
3432402583,0.00065613,0.00225830,-1.00790405,0.061035,0.000000,-0.061035
3437760375,0.00105286,0.00160217,-1.00579834,0.305176,0.061035,0.000000
3442421083,0.00140381,0.00115967,-1.00515747,0.305176,0.122070,-0.061035
3447445083,0.00122070,0.00144958,-1.00555420,0.427246,0.061035,-0.122070
3453572750,0.00097656,0.00212097,-1.00639343,0.366211,0.183105,0.000000
3457425166,0.00102234,0.00263977,-1.00634766,0.305176,0.122070,-0.061035
3462422708,0.00122070,0.00323486,-1.00575256,0.244141,0.000000,-0.061035
3467436333,0.00186157,0.00425720,-1.00602722,0.305176,0.000000,-0.061035
3472531666,0.00288391,0.00514221,-1.00633240,0.305176,0.000000,-0.122070
3477433041,0.00357056,0.00508118,-1.00588989,0.305176,0.000000,-0.122070
3482445416,0.00343323,0.00444031,-1.00576782,0.366211,0.000000,-0.183105
3487460000,0.00300598,0.00398254,-1.00573730,0.244141,0.000000,-0.061035
3492433583,0.00276184,0.00372314,-1.00576782,0.305176,0.000000,-0.061035
3497501833,0.00241089,0.00346375,-1.00646973,0.305176,0.000000,-0.183105
3502743000,0.00177002,0.00300598,-1.00680542,0.366211,0.000000,-0.061035
3507434750,0.00131226,0.00221252,-1.00621033,0.305176,0.000000,-0.122070
3512405291,0.00148010,0.00161743,-1.00581360,0.244141,0.061035,0.000000
3517580250,0.00189209,0.00175476,-1.00595093,0.305176,0.000000,-0.061035
3522454541,0.00216675,0.00242615,-1.00601196,0.244141,0.000000,0.122070
3527433416,0.00209045,0.00323486,-1.00596619,0.244141,0.122070,-0.061035
3532468625,0.00161743,0.00367737,-1.00584412,0.244141,0.000000,-0.061035
3537468166,0.00120544,0.00370789,-1.00587463,0.305176,0.000000,-0.183105
3542390583,0.00103760,0.00386047,-1.00650024,0.305176,0.061035,-0.183105
3547557666,0.00097656,0.00395203,-1.00677490,0.366211,0.061035,0.000000
3552657833,0.00093079,0.00367737,-1.00599670,0.244141,0.000000,0.000000
3557438708,0.00086975,0.00338745,-1.00518799,0.366211,0.000000,0.122070
3562394083,0.00096130,0.00314331,-1.00535583,0.183105,-0.061035,-0.244141
3569109708,0.00091553,0.00267029,-1.00607300,0.122070,0.000000,0.000000
3572430666,0.00073242,0.00230408,-1.00631714,0.183105,0.000000,0.000000
3577333875,0.00103760,0.00259399,-1.00588989,0.244141,-0.061035,-0.061035
3582472083,0.00193787,0.00331116,-1.00567627,0.366211,0.061035,-0.061035
3587468666,0.00285339,0.00396729,-1.00608826,0.305176,-0.061035,-0.183105
3592423166,0.00346375,0.00436401,-1.00610352,0.488281,0.000000,-0.061035
3597492916,0.00367737,0.00445557,-1.00512695,0.549316,0.183105,0.000000
3602469125,0.00331116,0.00450134,-1.00442505,0.366211,0.061035,-0.122070
3607429041,0.00260925,0.00460815,-1.00524902,0.305176,-0.061035,-0.122070
3612383500,0.00204468,0.00454712,-1.00656128,0.244141,0.061035,-0.183105
3617980458,0.00183105,0.00434875,-1.00704956,0.305176,0.000000,-0.183105
3622474916,0.00169373,0.00407410,-1.00672913,0.305176,0.122070,-0.061035
3627416583,0.00128174,0.00369263,-1.00651550,0.366211,0.000000,0.000000
3632448458,0.00070190,0.00320435,-1.00677490,0.549316,0.061035,0.061035
3637466708,0.00028992,0.00282288,-1.00654602,0.427246,0.061035,0.061035
3642428291,0.00035095,0.00238037,-1.00543213,0.427246,0.061035,0.000000
3647543958,0.00088501,0.00178528,-1.00476074,0.305176,0.000000,0.061035
3652575583,0.00115967,0.00149536,-1.00566101,0.366211,0.061035,-0.061035
3657470208,0.00077820,0.00195312,-1.00709534,0.305176,0.061035,-0.061035
3662404583,0.00065613,0.00300598,-1.00743103,0.366211,0.122070,0.061035
3667821083,0.00102234,0.00415039,-1.00663757,0.366211,0.000000,-0.122070
3672487875,0.00117493,0.00514221,-1.00569153,0.488281,-0.061035,-0.122070
3677408541,0.00141907,0.00543213,-1.00550842,0.427246,0.122070,-0.244141
3682447875,0.00201416,0.00497437,-1.00582886,0.366211,0.183105,-0.183105
3687477666,0.00231934,0.00444031,-1.00579834,0.244141,0.122070,0.000000
3692433125,0.00221252,0.00411987,-1.00524902,0.427246,0.061035,-0.061035
3697517541,0.00183105,0.00350952,-1.00488281,0.244141,0.061035,-0.122070
3702544250,0.00157166,0.00263977,-1.00483704,0.305176,0.000000,-0.061035
3707446208,0.00163269,0.00221252,-1.00508118,0.427246,0.061035,0.000000
3712402291,0.00201416,0.00259399,-1.00581360,0.488281,0.244141,-0.061035
3717497791,0.00259399,0.00349426,-1.00643921,0.305176,0.183105,0.000000
3722492458,0.00299072,0.00425720,-1.00634766,0.305176,0.061035,0.000000
3727443333,0.00320435,0.00457764,-1.00601196,0.305176,0.061035,-0.122070
3732465625,0.00326538,0.00491333,-1.00605774,0.366211,0.183105,0.000000
3737469208,0.00291443,0.00540161,-1.00643921,0.244141,0.000000,0.000000
3742445333,0.00218201,0.00526428,-1.00694275,0.305176,0.061035,0.061035
3747538916,0.00152588,0.00424194,-1.00709534,0.549316,0.000000,0.000000
3752537208,0.00114441,0.00306702,-1.00643921,0.610352,-0.061035,-0.122070
3757493583,0.00103760,0.00212097,-1.00573730,0.183105,0.061035,0.000000
3762416083,0.00131226,0.00117493,-1.00500488,0.183105,-0.061035,-0.061035
3767499083,0.00160217,0.00076294,-1.00375366,0.183105,0.122070,-0.061035
3772493583,0.00146484,0.00119019,-1.00546265,0.427246,0.122070,-0.061035
3777455875,0.00094604,0.00196838,-1.00987244,0.366211,0.061035,0.061035
3783047166,0.00073242,0.00263977,-1.01049805,0.305176,0.000000,0.061035
3787523916,0.00137329,0.00328064,-1.00689697,0.244141,-0.061035,-0.122070
3792414416,0.00209045,0.00425720,-1.00361633,0.305176,0.000000,0.000000
3797518208,0.00192261,0.00515747,-1.00230408,0.305176,-0.061035,-0.183105
3802491750,0.00123596,0.00532532,-1.00303650,0.366211,0.122070,-0.061035
3807453583,0.00091553,0.00488281,-1.00505066,0.366211,0.122070,-0.061035
3812428625,0.00117493,0.00413513,-1.00610352,0.244141,0.000000,0.000000
3817925916,0.00164795,0.00325012,-1.00611877,0.427246,0.000000,0.000000
3822512166,0.00199890,0.00270081,-1.00657654,0.427246,0.061035,0.000000
3827474708,0.00207520,0.00231934,-1.00688171,0.305176,-0.061035,-0.122070
3832564166,0.00178528,0.00199890,-1.00640869,0.183105,0.000000,-0.061035
3837537666,0.00157166,0.00189209,-1.00595093,0.183105,0.061035,0.061035
3842451458,0.00172424,0.00212097,-1.00556946,0.366211,0.061035,-0.183105
3847517416,0.00209045,0.00274658,-1.00581360,0.244141,-0.061035,-0.061035
3852534625,0.00241089,0.00335693,-1.00701904,0.183105,0.061035,0.061035
3857472416,0.00227356,0.00352478,-1.00717163,0.244141,-0.122070,-0.183105
3862429083,0.00161743,0.00326538,-1.00579834,0.244141,-0.061035,0.000000
3867515375,0.00132751,0.00328064,-1.00529480,0.183105,0.000000,-0.183105
3872510083,0.00163269,0.00399780,-1.00605774,0.183105,0.000000,-0.183105
3877475375,0.00196838,0.00453186,-1.00636292,0.305176,0.000000,-0.061035
3882724791,0.00201416,0.00427246,-1.00613403,0.061035,0.000000,-0.061035
3887513916,0.00190735,0.00366211,-1.00607300,0.061035,0.183105,-0.061035
3892483833,0.00167847,0.00334167,-1.00608826,0.183105,0.061035,0.000000
3897531250,0.00164795,0.00332642,-1.00619507,0.183105,0.061035,-0.122070
3902740083,0.00184631,0.00346375,-1.00628662,0.305176,0.061035,-0.122070
3907474208,0.00169373,0.00369263,-1.00608826,0.244141,0.000000,0.000000
3912433416,0.00146484,0.00408936,-1.00567627,0.183105,0.122070,-0.122070
3917686791,0.00172424,0.00459290,-1.00555420,0.244141,0.122070,-0.183105
3922523291,0.00209045,0.00498962,-1.00572205,0.305176,0.000000,0.000000
3927458333,0.00209045,0.00509644,-1.00573730,0.305176,0.061035,0.000000
3932493375,0.00201416,0.00469971,-1.00563049,0.122070,0.000000,-0.183105
3937541375,0.00209045,0.00399780,-1.00555420,0.305176,0.122070,-0.122070
3942472875,0.00202942,0.00332642,-1.00566101,0.305176,0.061035,-0.122070
3947540583,0.00163269,0.00273132,-1.00605774,0.305176,0.061035,-0.061035
3952492791,0.00099182,0.00205994,-1.00624084,0.305176,0.000000,0.000000
3957508541,0.00057983,0.00149536,-1.00607300,0.427246,-0.122070,0.061035
3962444833,0.00070190,0.00132751,-1.00598145,0.366211,-0.061035,-0.061035
3967784916,0.00103760,0.00163269,-1.00601196,0.366211,0.000000,-0.122070
3972535291,0.00129700,0.00230408,-1.00601196,0.305176,0.061035,-0.061035
3977488791,0.00128174,0.00286865,-1.00604248,0.244141,0.000000,-0.061035
3982492875,0.00138855,0.00308228,-1.00582886,0.366211,0.061035,0.183105
3987666708,0.00186157,0.00337219,-1.00566101,0.305176,0.061035,-0.061035
3992514458,0.00230408,0.00405884,-1.00616455,0.427246,0.061035,0.000000
3997678458,0.00212097,0.00463867,-1.00639343,0.427246,0.061035,0.000000
4002593958,0.00161743,0.00451660,-1.00575256,0.427246,0.122070,-0.122070
4007509541,0.00149536,0.00410461,-1.00552368,0.366211,0.244141,0.000000
4012470333,0.00209045,0.00416565,-1.00605774,0.305176,0.122070,-0.183105
4017513958,0.00306702,0.00460815,-1.00617981,0.427246,0.122070,-0.061035
4022529000,0.00364685,0.00457764,-1.00576782,0.305176,0.061035,-0.122070
4027506375,0.00318909,0.00384521,-1.00573730,0.366211,0.000000,0.000000
4032520666,0.00225830,0.00325012,-1.00622559,0.427246,0.000000,-0.061035
4037549125,0.00166321,0.00325012,-1.00631714,0.427246,0.122070,-0.061035
4042481708,0.00155640,0.00367737,-1.00553894,0.366211,0.122070,-0.183105
4047524083,0.00186157,0.00419617,-1.00483704,0.305176,0.061035,-0.061035
4052809625,0.00201416,0.00431824,-1.00544739,0.244141,0.061035,-0.061035
4057497916,0.00154114,0.00407410,-1.00685120,0.366211,0.000000,-0.122070
4062456041,0.00100708,0.00399780,-1.00703430,0.305176,0.000000,0.000000
4067505875,0.00086975,0.00413513,-1.00581360,0.244141,0.061035,0.000000
4072499166,0.00108337,0.00399780,-1.00477600,0.305176,0.061035,-0.122070
4077475875,0.00163269,0.00354004,-1.00451660,0.488281,-0.061035,0.061035
4082497500,0.00234985,0.00309753,-1.00506592,0.244141,0.061035,-0.122070
4087546666,0.00248718,0.00289917,-1.00564575,0.305176,0.122070,0.061035
4092491708,0.00192261,0.00292969,-1.00529480,0.305176,-0.061035,0.000000
4097544791,0.00141907,0.00305176,-1.00474548,0.305176,0.000000,0.000000
4102530208,0.00135803,0.00311279,-1.00505066,0.366211,0.122070,-0.061035
4107498291,0.00166321,0.00303650,-1.00572205,0.305176,0.000000,-0.122070
4112451291,0.00241089,0.00294495,-1.00605774,0.244141,0.061035,0.061035
4117638458,0.00317383,0.00309753,-1.00624084,0.427246,0.061035,-0.122070
4122565833,0.00311279,0.00340271,-1.00653076,0.305176,0.000000,-0.061035
4127548500,0.00221252,0.00370789,-1.00654602,0.366211,0.061035,-0.122070
4132529083,0.00155640,0.00375366,-1.00621033,0.305176,0.122070,-0.183105
4137568666,0.00148010,0.00340271,-1.00596619,0.366211,0.000000,0.000000
4142531375,0.00151062,0.00300598,-1.00602722,0.305176,0.183105,-0.061035
4147560916,0.00163269,0.00282288,-1.00659180,0.305176,0.122070,-0.122070
4152555458,0.00196838,0.00268555,-1.00704956,0.427246,0.000000,-0.061035
4157554375,0.00234985,0.00254822,-1.00659180,0.366211,0.122070,0.061035
4162512916,0.00248718,0.00265503,-1.00538635,0.305176,0.000000,-0.183105
4167657791,0.00228882,0.00288391,-1.00468445,0.427246,0.061035,-0.061035
4172538541,0.00172424,0.00302124,-1.00532532,0.366211,0.122070,0.061035
4177552083,0.00094604,0.00326538,-1.00637817,0.305176,0.061035,-0.061035
4183448000,0.00044250,0.00378418,-1.00643921,0.427246,0.244141,-0.122070
4187569750,0.00039673,0.00411987,-1.00599670,0.427246,0.061035,-0.061035
4192526250,0.00067139,0.00369263,-1.00622559,0.244141,0.244141,-0.122070
4197562833,0.00105286,0.00299072,-1.00660706,0.183105,0.122070,-0.122070
4202723041,0.00114441,0.00308228,-1.00616455,0.244141,0.000000,-0.061035
4207519333,0.00076294,0.00379944,-1.00543213,0.305176,0.000000,-0.061035
4212487750,0.00024414,0.00390625,-1.00573730,0.366211,0.061035,-0.061035
4217635291,0.00032043,0.00315857,-1.00654602,0.305176,0.061035,-0.061035
4222569458,0.00128174,0.00273132,-1.00628662,0.244141,-0.122070,0.000000
4227514625,0.00204468,0.00326538,-1.00500488,0.305176,0.000000,-0.061035
4233331791,0.00172424,0.00404358,-1.00445557,0.427246,0.061035,-0.061035
4237576875,0.00108337,0.00431824,-1.00531006,0.549316,0.061035,0.061035
4242501833,0.00105286,0.00399780,-1.00616455,0.183105,0.122070,-0.122070
4247562958,0.00151062,0.00358582,-1.00556946,0.366211,0.061035,0.000000
4252640958,0.00172424,0.00379944,-1.00456238,0.427246,0.122070,-0.183105
4257529458,0.00138855,0.00463867,-1.00511169,0.366211,0.183105,-0.061035
4262477666,0.00100708,0.00480652,-1.00668335,0.488281,0.061035,-0.061035
4267548500,0.00097656,0.00379944,-1.00697327,0.244141,0.122070,-0.122070
4272544833,0.00131226,0.00289917,-1.00608826,0.366211,0.000000,-0.183105
4277485416,0.00180054,0.00292969,-1.00588989,0.366211,0.122070,0.000000
4282931333,0.00215149,0.00297546,-1.00663757,0.427246,0.122070,0.000000
4287569583,0.00215149,0.00251770,-1.00694275,0.366211,0.122070,-0.061035
4292511375,0.00221252,0.00238037,-1.00607300,0.366211,0.183105,-0.061035
4297552333,0.00259399,0.00271606,-1.00463867,0.366211,0.122070,0.000000
4302528500,0.00265503,0.00291443,-1.00378418,0.366211,0.061035,-0.122070
4307519750,0.00227356,0.00277710,-1.00503540,0.244141,0.000000,-0.122070
4312500916,0.00219727,0.00280762,-1.00743103,0.305176,0.000000,-0.061035
4317613250,0.00259399,0.00317383,-1.00735474,0.488281,0.122070,0.061035
4322557083,0.00267029,0.00344849,-1.00563049,0.427246,0.061035,-0.183105
4327520041,0.00224304,0.00337219,-1.00547791,0.122070,0.061035,-0.061035
4332605500,0.00186157,0.00308228,-1.00608826,0.305176,0.061035,-0.061035
4337665041,0.00160217,0.00289917,-1.00579834,0.427246,0.061035,-0.061035
4342554708,0.00120544,0.00306702,-1.00549316,0.488281,0.122070,-0.183105
4347576041,0.00093079,0.00347900,-1.00587463,0.183105,0.000000,-0.122070
4352615166,0.00126648,0.00372314,-1.00613403,0.244141,0.061035,0.000000
4357536708,0.00190735,0.00364685,-1.00607300,0.244141,0.000000,-0.061035
4362504291,0.00183105,0.00311279,-1.00636292,0.366211,0.061035,0.000000
4368197416,0.00112915,0.00248718,-1.00698853,0.427246,0.122070,-0.061035
4372673250,0.00054932,0.00222778,-1.00714111,0.305176,0.061035,-0.061035
4377491166,0.00044250,0.00254822,-1.00668335,0.366211,0.000000,-0.122070
4382630083,0.00065613,0.00325012,-1.00613403,0.244141,-0.061035,-0.061035
4387606333,0.00088501,0.00404358,-1.00636292,0.305176,0.061035,0.000000
4392508916,0.00105286,0.00465393,-1.00711060,0.366211,0.122070,-0.061035
4397598166,0.00134277,0.00462341,-1.00708008,0.305176,-0.061035,-0.061035
4402638250,0.00173950,0.00386047,-1.00617981,0.183105,0.061035,-0.122070
4407528375,0.00181580,0.00292969,-1.00582886,0.366211,0.061035,0.000000
4412493083,0.00177002,0.00270081,-1.00648499,0.366211,0.061035,-0.061035
4417967625,0.00219727,0.00315857,-1.00691223,0.366211,0.122070,-0.061035
4422763166,0.00265503,0.00355530,-1.00662231,0.366211,-0.061035,-0.183105
4427507041,0.00265503,0.00344849,-1.00614929,0.244141,0.000000,-0.122070
4432699375,0.00265503,0.00309753,-1.00619507,0.183105,-0.061035,-0.061035
4437571916,0.00294495,0.00289917,-1.00695801,0.366211,0.183105,-0.061035
4442511875,0.00296021,0.00277710,-1.00715637,0.366211,-0.061035,-0.122070
4447646416,0.00236511,0.00245667,-1.00570679,0.305176,0.061035,-0.061035
4452968833,0.00158691,0.00225830,-1.00428772,0.366211,0.000000,-0.122070
4457528541,0.00102234,0.00276184,-1.00437927,0.427246,-0.061035,-0.061035
4462511375,0.00062561,0.00360107,-1.00569153,0.244141,0.061035,-0.183105
4467635791,0.00035095,0.00399780,-1.00733948,0.366211,0.000000,-0.061035
4472595958,0.00039673,0.00373840,-1.00769043,0.244141,0.061035,-0.122070
4477531375,0.00085449,0.00332642,-1.00662231,0.183105,0.061035,-0.061035
4482548291,0.00138855,0.00367737,-1.00576782,0.305176,0.000000,-0.061035
4487690791,0.00173950,0.00459290,-1.00552368,0.488281,0.122070,0.000000
4492536625,0.00180054,0.00468445,-1.00541687,0.305176,0.061035,-0.061035
4497590916,0.00170898,0.00390625,-1.00564575,0.244141,0.000000,0.000000
4502573750,0.00195312,0.00346375,-1.00628662,0.549316,0.122070,0.061035
4507555958,0.00225830,0.00393677,-1.00683594,0.427246,0.061035,-0.061035
4512528083,0.00215149,0.00459290,-1.00691223,0.427246,0.122070,-0.183105
4517778833,0.00190735,0.00448608,-1.00657654,0.305176,0.061035,-0.122070
4522562125,0.00190735,0.00392151,-1.00627136,0.366211,0.000000,-0.061035
4527550625,0.00192261,0.00350952,-1.00646973,0.366211,0.000000,-0.122070
4532811250,0.00190735,0.00352478,-1.00689697,0.305176,0.000000,-0.061035
4537614083,0.00210571,0.00363159,-1.00666809,0.427246,0.061035,-0.061035
4542518916,0.00221252,0.00326538,-1.00617981,0.305176,0.061035,-0.061035
4547605333,0.00205994,0.00251770,-1.00637817,0.366211,0.122070,-0.061035
4552584708,0.00192261,0.00175476,-1.00683594,0.305176,-0.061035,-0.122070
4557524666,0.00181580,0.00141907,-1.00650024,0.305176,0.000000,-0.061035
4562514583,0.00163269,0.00186157,-1.00601196,0.427246,0.000000,-0.061035
4567988458,0.00152588,0.00257874,-1.00622559,0.427246,0.122070,0.000000
4572612125,0.00132751,0.00300598,-1.00668335,0.366211,0.061035,-0.122070
4577540333,0.00102234,0.00318909,-1.00662231,0.305176,0.061035,-0.061035
4582604666,0.00079346,0.00318909,-1.00592041,0.366211,0.061035,-0.122070
4587623166,0.00074768,0.00286865,-1.00540161,0.366211,0.061035,-0.122070
4592542166,0.00074768,0.00271606,-1.00555420,0.549316,0.183105,0.061035
4597657625,0.00073242,0.00326538,-1.00584412,0.244141,0.000000,0.000000
4602558291,0.00108337,0.00421143,-1.00561523,0.244141,0.061035,-0.122070
4607535791,0.00161743,0.00482178,-1.00518799,0.488281,-0.061035,-0.244141
4612530166,0.00183105,0.00474548,-1.00550842,0.366211,0.000000,0.000000
4617737166,0.00202942,0.00448608,-1.00646973,0.366211,0.061035,-0.061035
4622604583,0.00224304,0.00451660,-1.00677490,0.305176,0.061035,-0.061035
4627556041,0.00245667,0.00433350,-1.00619507,0.366211,0.000000,0.000000
4632594291,0.00294495,0.00361633,-1.00596619,0.427246,0.183105,-0.061035
4637621541,0.00309753,0.00315857,-1.00636292,0.366211,0.000000,-0.183105
4642554875,0.00257874,0.00370789,-1.00636292,0.427246,0.000000,-0.061035
4647576375,0.00215149,0.00442505,-1.00588989,0.305176,0.061035,-0.183105
4652988541,0.00210571,0.00411987,-1.00575256,0.366211,0.061035,-0.183105
4657558625,0.00204468,0.00300598,-1.00624084,0.244141,0.183105,0.061035
4662555166,0.00195312,0.00212097,-1.00660706,0.244141,0.000000,0.000000
4667652333,0.00190735,0.00199890,-1.00608826,0.366211,0.061035,0.000000
4672614583,0.00181580,0.00239563,-1.00526428,0.549316,0.183105,-0.061035
4677549416,0.00187683,0.00280762,-1.00511169,0.305176,0.061035,-0.122070
4682603708,0.00228882,0.00288391,-1.00552368,0.122070,0.061035,-0.061035
4687618125,0.00242615,0.00283813,-1.00616455,0.244141,0.061035,-0.122070
4692558291,0.00213623,0.00297546,-1.00694275,0.183105,0.122070,-0.061035
4697706291,0.00190735,0.00337219,-1.00712585,0.244141,0.061035,-0.122070
4702712375,0.00183105,0.00367737,-1.00711060,0.305176,0.183105,-0.061035
4707548500,0.00167847,0.00358582,-1.00675964,0.244141,0.000000,-0.183105
4712541916,0.00148010,0.00354004,-1.00552368,0.427246,0.122070,-0.061035
4717574750,0.00144958,0.00389099,-1.00465393,0.183105,0.000000,-0.061035
4722616125,0.00149536,0.00424194,-1.00517273,0.366211,0.000000,-0.061035
4727556041,0.00149536,0.00413513,-1.00613403,0.366211,0.122070,-0.061035
4732608750,0.00143433,0.00381470,-1.00657654,0.366211,0.122070,-0.122070
4737638583,0.00125122,0.00335693,-1.00668335,0.244141,0.000000,-0.244141
4742591875,0.00102234,0.00292969,-1.00665283,0.427246,0.122070,-0.122070
4747633916,0.00097656,0.00317383,-1.00686646,0.305176,0.000000,0.061035
4752612166,0.00120544,0.00386047,-1.00726318,0.244141,0.061035,-0.061035
4757621166,0.00138855,0.00373840,-1.00685120,0.305176,0.000000,-0.183105
4762602416,0.00123596,0.00268555,-1.00598145,0.183105,0.000000,-0.122070
4767666458,0.00105286,0.00189209,-1.00610352,0.366211,0.122070,-0.061035
4772707583,0.00125122,0.00209045,-1.00679016,0.305176,-0.061035,-0.061035
4777614625,0.00154114,0.00282288,-1.00639343,0.305176,0.000000,-0.183105
4782608500,0.00158691,0.00355530,-1.00520325,0.488281,0.061035,-0.122070
4787692541,0.00166321,0.00407410,-1.00445557,0.366211,-0.061035,-0.061035
4792560750,0.00216675,0.00433350,-1.00476074,0.305176,0.000000,-0.183105
4797635375,0.00277710,0.00422668,-1.00550842,0.244141,0.122070,-0.122070
4802931166,0.00291443,0.00402832,-1.00567627,0.305176,0.061035,-0.061035
4807583083,0.00239563,0.00410461,-1.00524902,0.244141,0.061035,-0.061035
4812553041,0.00169373,0.00418091,-1.00505066,0.305176,0.122070,-0.061035
4817675791,0.00123596,0.00390625,-1.00540161,0.305176,0.000000,-0.183105
4822584416,0.00108337,0.00360107,-1.00576782,0.244141,-0.061035,0.061035
4827541666,0.00125122,0.00363159,-1.00558472,0.244141,0.122070,-0.061035
4832684041,0.00129700,0.00361633,-1.00537109,0.305176,-0.122070,0.000000
4837676208,0.00091553,0.00325012,-1.00578308,0.366211,0.000000,-0.061035
4842572833,0.00036621,0.00291443,-1.00628662,0.366211,0.061035,-0.061035
4847683041,0.00045776,0.00286865,-1.00621033,0.427246,0.122070,0.000000
4852601041,0.00129700,0.00306702,-1.00585938,0.427246,0.000000,0.061035
4857580791,0.00201416,0.00306702,-1.00587463,0.061035,0.000000,0.000000
4862530000,0.00201416,0.00270081,-1.00630188,0.366211,0.000000,-0.061035
4867676166,0.00184631,0.00244141,-1.00643921,0.366211,0.122070,-0.061035
4872596375,0.00228882,0.00248718,-1.00590515,0.244141,0.061035,-0.122070
4877578791,0.00299072,0.00262451,-1.00521851,0.305176,0.061035,0.000000
4883560875,0.00302124,0.00297546,-1.00534058,0.427246,0.183105,-0.061035
4887642875,0.00241089,0.00338745,-1.00630188,0.427246,0.000000,-0.122070
4892554166,0.00192261,0.00376892,-1.00717163,0.183105,-0.061035,-0.061035
4897646041,0.00170898,0.00416565,-1.00703430,0.305176,0.000000,-0.061035
4902647875,0.00129700,0.00422668,-1.00613403,0.244141,0.000000,-0.183105
4907592166,0.00079346,0.00399780,-1.00587463,0.305176,0.000000,0.000000
4912561958,0.00073242,0.00376892,-1.00646973,0.305176,0.061035,-0.183105
4918098333,0.00120544,0.00363159,-1.00642395,0.366211,-0.061035,0.000000
4922609625,0.00207520,0.00372314,-1.00573730,0.427246,0.000000,0.061035
4927587125,0.00254822,0.00387573,-1.00556946,0.366211,0.122070,-0.061035
4932632000,0.00221252,0.00392151,-1.00599670,0.366211,0.122070,-0.061035
4937630083,0.00146484,0.00376892,-1.00669861,0.305176,0.000000,-0.122070
4942576083,0.00128174,0.00350952,-1.00697327,0.366211,0.061035,-0.122070
4947643833,0.00198364,0.00329590,-1.00621033,0.427246,0.122070,0.000000
4952638166,0.00234985,0.00291443,-1.00537109,0.366211,0.183105,-0.061035
4957601458,0.00170898,0.00241089,-1.00520325,0.366211,0.000000,-0.122070
4962565833,0.00128174,0.00238037,-1.00544739,0.366211,0.122070,0.000000
4967660333,0.00186157,0.00254822,-1.00592041,0.305176,0.000000,-0.183105
4972604250,0.00260925,0.00245667,-1.00656128,0.366211,0.122070,0.061035
4977572000,0.00254822,0.00260925,-1.00698853,0.305176,0.061035,-0.183105
4982628916,0.00186157,0.00320435,-1.00686646,0.305176,0.122070,-0.122070
4987663375,0.00135803,0.00401306,-1.00619507,0.488281,0.000000,0.000000
4992589375,0.00109863,0.00466919,-1.00558472,0.305176,0.061035,0.000000
4997661750,0.00096130,0.00466919,-1.00558472,0.305176,-0.061035,-0.122070
5002605625,0.00134277,0.00407410,-1.00593567,0.366211,0.000000,-0.122070
5007599541,0.00192261,0.00337219,-1.00611877,0.366211,0.000000,0.000000
5012610125,0.00192261,0.00296021,-1.00590515,0.366211,0.183105,-0.061035
5018030958,0.00180054,0.00305176,-1.00559998,0.427246,0.122070,0.061035
5022629916,0.00205994,0.00346375,-1.00572205,0.366211,0.000000,0.000000
5027591041,0.00213623,0.00384521,-1.00599670,0.305176,-0.061035,0.000000
5032656708,0.00155640,0.00395203,-1.00595093,0.244141,-0.061035,-0.061035
5037644291,0.00117493,0.00372314,-1.00564575,0.183105,0.000000,-0.122070
5042600708,0.00149536,0.00309753,-1.00552368,0.244141,0.122070,-0.061035
5047699916,0.00227356,0.00256348,-1.00550842,0.183105,0.061035,-0.061035
5052637916,0.00241089,0.00259399,-1.00546265,0.366211,0.061035,-0.061035
5057611250,0.00138855,0.00292969,-1.00561523,0.305176,0.061035,0.000000
5062572000,0.00068665,0.00312805,-1.00602722,0.366211,0.061035,-0.061035
5067727583,0.00128174,0.00286865,-1.00650024,0.183105,0.000000,0.000000
5072622416,0.00169373,0.00254822,-1.00660706,0.366211,0.000000,-0.122070
5077597291,0.00126648,0.00262451,-1.00604248,0.244141,0.061035,-0.122070
5082646041,0.00143433,0.00289917,-1.00550842,0.244141,0.122070,-0.183105
5087643583,0.00238037,0.00315857,-1.00625610,0.244141,-0.061035,-0.061035
5092609958,0.00277710,0.00323486,-1.00785828,0.183105,0.000000,0.000000
5097667583,0.00216675,0.00308228,-1.00833130,0.183105,0.000000,-0.061035
5102673083,0.00144958,0.00309753,-1.00730896,0.183105,0.061035,-0.061035
5107600958,0.00117493,0.00321960,-1.00642395,0.244141,0.061035,0.122070
5112599916,0.00144958,0.00312805,-1.00639343,0.305176,0.183105,0.061035
5117656375,0.00218201,0.00303650,-1.00608826,0.366211,-0.122070,0.000000
5122610083,0.00254822,0.00337219,-1.00535583,0.488281,0.122070,-0.061035
5127578541,0.00212097,0.00399780,-1.00558472,0.183105,-0.061035,-0.061035
5132666250,0.00175476,0.00434875,-1.00643921,0.305176,0.061035,-0.122070
5137665208,0.00193787,0.00408936,-1.00660706,0.366211,0.061035,-0.061035
5142601125,0.00175476,0.00340271,-1.00613403,0.244141,0.000000,0.000000
5147679708,0.00099182,0.00289917,-1.00602722,0.305176,0.061035,-0.061035
5152639583,0.00059509,0.00280762,-1.00663757,0.305176,0.122070,-0.061035
5157609083,0.00083923,0.00294495,-1.00701904,0.366211,0.061035,-0.122070
5162615375,0.00117493,0.00329590,-1.00653076,0.427246,0.183105,-0.061035
5167655750,0.00131226,0.00372314,-1.00572205,0.427246,0.122070,0.122070
5172611000,0.00146484,0.00395203,-1.00549316,0.305176,0.122070,-0.061035
5177618458,0.00143433,0.00399780,-1.00605774,0.305176,0.061035,-0.061035
5182657250,0.00115967,0.00413513,-1.00642395,0.366211,0.061035,0.000000
5187683000,0.00108337,0.00421143,-1.00607300,0.366211,0.061035,-0.061035
5192663333,0.00109863,0.00425720,-1.00616455,0.366211,0.122070,-0.061035
5197754625,0.00114441,0.00434875,-1.00714111,0.183105,0.061035,-0.061035
5202669000,0.00154114,0.00453186,-1.00769043,0.427246,0.122070,-0.122070
5207610916,0.00215149,0.00457764,-1.00692749,0.366211,0.122070,-0.122070
5212607375,0.00253296,0.00405884,-1.00582886,0.244141,0.122070,-0.122070
5217689875,0.00271606,0.00328064,-1.00559998,0.305176,0.122070,-0.122070
5222640125,0.00286865,0.00300598,-1.00582886,0.427246,0.000000,-0.061035
5227622958,0.00292969,0.00305176,-1.00581360,0.244141,-0.061035,-0.061035
5232678791,0.00288391,0.00279236,-1.00587463,0.305176,0.061035,0.000000
5237676875,0.00280762,0.00251770,-1.00630188,0.305176,0.061035,0.000000
5242622000,0.00254822,0.00265503,-1.00701904,0.305176,0.122070,-0.061035
5247702708,0.00221252,0.00306702,-1.00735474,0.488281,0.122070,0.061035
5252677791,0.00209045,0.00320435,-1.00669861,0.305176,0.000000,-0.061035
5257632875,0.00181580,0.00270081,-1.00579834,0.305176,0.183105,-0.061035
5262609375,0.00146484,0.00225830,-1.00584412,0.366211,0.061035,-0.122070
5267721916,0.00163269,0.00267029,-1.00650024,0.427246,0.061035,-0.061035
5272638958,0.00190735,0.00357056,-1.00671387,0.427246,0.122070,-0.122070
5277636125,0.00175476,0.00413513,-1.00651550,0.305176,0.061035,-0.061035
5282602291,0.00138855,0.00428772,-1.00651550,0.427246,0.061035,0.000000
5287684000,0.00096130,0.00453186,-1.00668335,0.427246,0.000000,-0.061035
5292618750,0.00088501,0.00463867,-1.00677490,0.305176,0.122070,-0.122070
5297757000,0.00151062,0.00436401,-1.00677490,0.244141,0.061035,-0.183105
5302652750,0.00204468,0.00398254,-1.00646973,0.427246,0.122070,-0.061035
5307647666,0.00196838,0.00376892,-1.00617981,0.366211,0.244141,-0.122070
5312625208,0.00184631,0.00344849,-1.00639343,0.183105,0.122070,-0.061035
5317691458,0.00212097,0.00309753,-1.00642395,0.366211,0.122070,0.000000
5322634916,0.00242615,0.00311279,-1.00602722,0.244141,0.122070,-0.061035
5327614916,0.00248718,0.00334167,-1.00608826,0.305176,0.183105,-0.061035
5332725625,0.00233459,0.00344849,-1.00679016,0.122070,0.122070,0.000000
5337680500,0.00227356,0.00328064,-1.00706482,0.305176,0.122070,-0.122070
5342629791,0.00247192,0.00292969,-1.00640869,0.366211,0.000000,-0.061035
5348124375,0.00238037,0.00253296,-1.00553894,0.366211,0.122070,0.000000
5352691958,0.00148010,0.00219727,-1.00538635,0.366211,0.061035,-0.061035
5357667625,0.00048828,0.00225830,-1.00604248,0.305176,0.061035,0.000000
5362663708,0.00021362,0.00296021,-1.00674438,0.244141,0.061035,0.000000
5367696125,0.00035095,0.00344849,-1.00669861,0.305176,-0.122070,-0.122070
5372659458,0.00042725,0.00332642,-1.00616455,0.366211,0.061035,-0.122070
5377642750,0.00071716,0.00338745,-1.00585938,0.366211,0.122070,-0.061035
5382740708,0.00122070,0.00396729,-1.00555420,0.427246,0.061035,0.000000
5387691500,0.00138855,0.00437927,-1.00500488,0.244141,0.061035,-0.122070
5392649208,0.00117493,0.00422668,-1.00498962,0.488281,0.061035,-0.061035
5397724500,0.00126648,0.00402832,-1.00595093,0.427246,0.122070,-0.122070
5402691125,0.00187683,0.00415039,-1.00679016,0.366211,0.122070,0.000000
5407648041,0.00242615,0.00421143,-1.00666809,0.305176,0.000000,0.000000
5412679958,0.00254822,0.00390625,-1.00624084,0.244141,-0.183105,-0.183105
5417694583,0.00234985,0.00349426,-1.00639343,0.244141,0.000000,-0.122070
5422661416,0.00199890,0.00326538,-1.00695801,0.305176,0.000000,-0.061035
5427657541,0.00190735,0.00297546,-1.00730896,0.305176,0.061035,-0.061035
5432754250,0.00216675,0.00274658,-1.00703430,0.122070,-0.061035,-0.122070
5437704166,0.00251770,0.00299072,-1.00636292,0.305176,0.000000,-0.122070
5442654541,0.00251770,0.00317383,-1.00598145,0.305176,0.000000,0.000000
5448009041,0.00230408,0.00305176,-1.00624084,0.366211,0.061035,-0.122070
5452707541,0.00251770,0.00296021,-1.00621033,0.488281,0.061035,-0.061035
5457643416,0.00286865,0.00317383,-1.00527954,0.244141,0.061035,-0.183105
5462641833,0.00241089,0.00344849,-1.00488281,0.305176,0.000000,-0.122070
5467660541,0.00119019,0.00349426,-1.00598145,0.366211,0.122070,0.000000
5472650666,0.00000000,0.00334167,-1.00698853,0.366211,0.122070,0.000000
5477649333,-0.00056458,0.00309753,-1.00660706,0.305176,0.122070,0.000000
5482701500,-0.00036621,0.00320435,-1.00578308,0.366211,0.061035,-0.122070
5487688541,0.00019836,0.00378418,-1.00563049,0.366211,0.061035,0.000000
5492660916,0.00061035,0.00427246,-1.00598145,0.244141,0.122070,-0.122070
5497654375,0.00082397,0.00422668,-1.00617981,0.305176,0.061035,-0.061035
5502653166,0.00102234,0.00386047,-1.00614929,0.366211,0.122070,0.000000
5507659625,0.00143433,0.00350952,-1.00613403,0.366211,0.122070,-0.061035
5512654833,0.00202942,0.00338745,-1.00617981,0.305176,0.061035,-0.061035
5517709291,0.00239563,0.00358582,-1.00634766,0.427246,0.122070,0.000000
5522654041,0.00234985,0.00389099,-1.00653076,0.427246,0.122070,-0.061035
5527683958,0.00242615,0.00384521,-1.00643921,0.427246,0.122070,0.000000
5532668583,0.00291443,0.00323486,-1.00624084,0.244141,0.000000,-0.183105
5537664291,0.00331116,0.00282288,-1.00617981,0.427246,0.183105,0.000000
5542648958,0.00299072,0.00305176,-1.00605774,0.244141,0.061035,-0.061035
5547655416,0.00210571,0.00326538,-1.00611877,0.305176,0.122070,0.000000
5552667833,0.00134277,0.00318909,-1.00665283,0.366211,0.000000,-0.061035
5557651000,0.00117493,0.00315857,-1.00686646,0.427246,-0.061035,0.000000
5562654666,0.00161743,0.00285339,-1.00634766,0.244141,0.061035,-0.061035
5567708125,0.00207520,0.00224304,-1.00588989,0.244141,0.122070,-0.122070
5572658875,0.00181580,0.00248718,-1.00621033,0.122070,0.000000,-0.061035
5577644083,0.00099182,0.00364685,-1.00700378,0.427246,0.183105,-0.183105
5582647916,0.00019836,0.00448608,-1.00726318,0.244141,0.061035,0.000000
5587657875,-0.00012207,0.00460815,-1.00651550,0.366211,0.061035,-0.061035
5592649125,0.00028992,0.00424194,-1.00575256,0.366211,0.061035,0.000000
5597671791,0.00103760,0.00378418,-1.00601196,0.488281,0.000000,0.000000
5602646708,0.00117493,0.00364685,-1.00685120,0.305176,0.061035,-0.183105
5607653416,0.00068665,0.00361633,-1.00698853,0.122070,0.061035,0.000000
5612640125,0.00035095,0.00328064,-1.00631714,0.366211,0.061035,0.000000
5617684166,0.00061035,0.00299072,-1.00582886,0.366211,0.061035,0.000000
5622643458,0.00137329,0.00323486,-1.00593567,0.305176,0.122070,-0.061035
5627644125,0.00230408,0.00360107,-1.00610352,0.366211,0.000000,0.000000
5632667500,0.00297546,0.00340271,-1.00601196,0.366211,0.122070,-0.122070
5637671666,0.00349426,0.00277710,-1.00607300,0.488281,0.122070,0.000000
5642658125,0.00393677,0.00242615,-1.00665283,0.183105,0.061035,0.000000
5647672166,0.00358582,0.00265503,-1.00727844,0.305176,0.061035,-0.183105
5652665791,0.00242615,0.00325012,-1.00729370,0.244141,0.000000,-0.183105
5657673083,0.00190735,0.00376892,-1.00706482,0.305176,0.000000,-0.061035
5662648083,0.00238037,0.00389099,-1.00720215,0.305176,-0.061035,0.000000
5667661916,0.00268555,0.00370789,-1.00729370,0.366211,0.000000,-0.061035
5672665791,0.00236511,0.00373840,-1.00662231,0.427246,0.000000,-0.061035
5677670291,0.00183105,0.00410461,-1.00558472,0.366211,0.122070,0.000000
5682688791,0.00180054,0.00447083,-1.00553894,0.244141,0.061035,-0.061035
5687695416,0.00216675,0.00419617,-1.00645447,0.366211,-0.122070,-0.122070
5692664666,0.00213623,0.00372314,-1.00679016,0.183105,0.000000,0.061035
5697680375,0.00164795,0.00358582,-1.00605774,0.305176,0.122070,-0.122070
5702658833,0.00114441,0.00358582,-1.00572205,0.305176,0.061035,-0.122070
5707672541,0.00111389,0.00367737,-1.00617981,0.366211,0.061035,0.000000
5712655416,0.00158691,0.00370789,-1.00621033,0.366211,0.061035,-0.061035
5717690666,0.00213623,0.00340271,-1.00549316,0.305176,0.122070,-0.183105
5722664833,0.00225830,0.00305176,-1.00489807,0.244141,0.000000,-0.061035
5727674958,0.00212097,0.00296021,-1.00503540,0.366211,0.061035,0.000000
5732685125,0.00215149,0.00282288,-1.00584412,0.427246,0.122070,-0.061035
5737696166,0.00202942,0.00257874,-1.00631714,0.244141,-0.061035,-0.061035
5742668000,0.00144958,0.00270081,-1.00582886,0.183105,0.000000,-0.183105
5747683583,0.00135803,0.00329590,-1.00514221,0.366211,0.061035,-0.183105
5752708416,0.00218201,0.00384521,-1.00526428,0.305176,0.000000,0.000000
5757678375,0.00294495,0.00411987,-1.00585938,0.183105,-0.061035,-0.122070
5762675791,0.00323486,0.00454712,-1.00590515,0.244141,0.061035,-0.122070
5767677958,0.00328064,0.00502014,-1.00526428,0.488281,0.061035,-0.183105
5772672791,0.00291443,0.00488281,-1.00517273,0.366211,-0.061035,-0.122070
5777685416,0.00228882,0.00439453,-1.00608826,0.427246,0.061035,-0.122070
5782695875,0.00190735,0.00431824,-1.00674438,0.305176,0.061035,-0.061035
5787714500,0.00154114,0.00442505,-1.00631714,0.305176,0.000000,-0.122070
5792700375,0.00128174,0.00437927,-1.00567627,0.366211,-0.061035,0.000000
5797713208,0.00154114,0.00405884,-1.00556946,0.427246,0.000000,0.000000
5802681291,0.00184631,0.00343323,-1.00549316,0.244141,0.000000,-0.122070
5807681083,0.00154114,0.00274658,-1.00523376,0.305176,0.122070,-0.122070
5812700750,0.00067139,0.00254822,-1.00524902,0.244141,0.061035,-0.061035
5817705833,0.00018311,0.00277710,-1.00546265,0.305176,0.000000,-0.183105
5822667291,0.00036621,0.00285339,-1.00569153,0.427246,0.061035,-0.122070
5827676833,0.00080872,0.00257874,-1.00559998,0.366211,0.000000,-0.061035
5832671583,0.00119019,0.00215149,-1.00543213,0.427246,0.122070,-0.122070
5837676916,0.00184631,0.00190735,-1.00588989,0.244141,0.183105,-0.061035
5842693708,0.00262451,0.00199890,-1.00648499,0.305176,0.061035,-0.061035
5847691666,0.00277710,0.00242615,-1.00624084,0.427246,0.000000,-0.183105
5852698125,0.00251770,0.00311279,-1.00592041,0.305176,0.000000,-0.122070
5857714083,0.00251770,0.00384521,-1.00640869,0.366211,0.061035,-0.122070
5862689708,0.00248718,0.00437927,-1.00686646,0.183105,0.061035,-0.183105
5867701083,0.00198364,0.00459290,-1.00651550,0.305176,0.000000,-0.122070
5872673541,0.00135803,0.00451660,-1.00595093,0.488281,0.000000,0.000000
5877684833,0.00125122,0.00430298,-1.00587463,0.366211,-0.122070,0.061035
5882700416,0.00149536,0.00408936,-1.00637817,0.183105,0.061035,-0.122070
5887691500,0.00148010,0.00424194,-1.00679016,0.427246,0.061035,-0.122070
5892681958,0.00119019,0.00439453,-1.00636292,0.244141,0.061035,0.061035
5897686458,0.00120544,0.00389099,-1.00546265,0.305176,0.183105,0.000000
5902697166,0.00187683,0.00315857,-1.00540161,0.488281,0.061035,-0.061035
5907694458,0.00280762,0.00294495,-1.00636292,0.305176,0.061035,-0.122070
5912693750,0.00294495,0.00291443,-1.00698853,0.305176,0.000000,-0.122070
5917738416,0.00209045,0.00265503,-1.00646973,0.427246,0.122070,0.061035
5922683875,0.00137329,0.00241089,-1.00566101,0.366211,-0.122070,0.000000
5927695375,0.00148010,0.00238037,-1.00564575,0.183105,0.000000,-0.183105
5932698833,0.00175476,0.00259399,-1.00637817,0.305176,0.000000,-0.183105
5937704000,0.00184631,0.00311279,-1.00694275,0.183105,-0.122070,-0.061035
5942675291,0.00204468,0.00369263,-1.00677490,0.244141,0.061035,-0.183105
5947704083,0.00202942,0.00384521,-1.00631714,0.366211,0.000000,-0.061035
5952716666,0.00187683,0.00398254,-1.00602722,0.244141,-0.061035,-0.122070
5957709916,0.00225830,0.00445557,-1.00633240,0.244141,0.000000,-0.122070
5962696000,0.00326538,0.00469971,-1.00683594,0.244141,0.000000,-0.183105
5967701833,0.00372314,0.00453186,-1.00645447,0.366211,0.000000,-0.061035
5972696375,0.00285339,0.00427246,-1.00581360,0.427246,0.122070,-0.061035
5977711375,0.00167847,0.00398254,-1.00611877,0.244141,0.000000,-0.061035
5982734833,0.00123596,0.00367737,-1.00663757,0.305176,0.122070,0.000000
5987729291,0.00125122,0.00331116,-1.00688171,0.366211,0.061035,-0.061035
5992699875,0.00114441,0.00286865,-1.00709534,0.366211,0.122070,0.000000
5997703208,0.00085449,0.00257874,-1.00718689,0.427246,0.061035,0.000000
6002697833,0.00041199,0.00244141,-1.00694275,0.244141,0.122070,-0.122070
6007714000,0.00035095,0.00241089,-1.00656128,0.061035,0.061035,0.122070
6012696833,0.00111389,0.00225830,-1.00633240,0.366211,0.000000,-0.061035
6017732500,0.00169373,0.00184631,-1.00633240,0.366211,0.061035,-0.122070
6022706291,0.00151062,0.00152588,-1.00651550,0.488281,0.061035,0.000000
6027710083,0.00151062,0.00169373,-1.00675964,0.183105,0.183105,0.000000
6032710333,0.00215149,0.00225830,-1.00685120,0.366211,0.000000,-0.061035
6037734250,0.00248718,0.00279236,-1.00651550,0.244141,-0.122070,-0.122070
6042705375,0.00244141,0.00303650,-1.00563049,0.244141,0.122070,-0.122070
6047714666,0.00267029,0.00331116,-1.00498962,0.244141,0.000000,0.000000
6052716583,0.00288391,0.00373840,-1.00538635,0.305176,0.000000,0.000000
6057729208,0.00254822,0.00401306,-1.00656128,0.366211,0.122070,0.122070
6062718208,0.00234985,0.00418091,-1.00752258,0.366211,0.183105,0.000000
6067712625,0.00279236,0.00413513,-1.00732422,0.366211,0.061035,-0.061035
6072699666,0.00283813,0.00396729,-1.00628662,0.427246,0.000000,-0.183105
6077721666,0.00193787,0.00408936,-1.00559998,0.366211,0.000000,-0.122070
6082715375,0.00102234,0.00433350,-1.00578308,0.244141,0.061035,-0.183105
6087722875,0.00073242,0.00444031,-1.00611877,0.366211,0.122070,-0.122070
6092709625,0.00064087,0.00440979,-1.00625610,0.305176,0.122070,-0.061035
6097722083,0.00051880,0.00428772,-1.00616455,0.366211,0.000000,-0.183105
6102723333,0.00045776,0.00364685,-1.00575256,0.305176,0.122070,-0.122070
6107713791,0.00054932,0.00253296,-1.00547791,0.549316,0.000000,0.000000
6112720291,0.00083923,0.00186157,-1.00590515,0.366211,0.061035,-0.061035
6117741083,0.00119019,0.00192261,-1.00645447,0.244141,0.183105,0.000000
6122712458,0.00144958,0.00172424,-1.00634766,0.122070,0.061035,-0.122070
6127720291,0.00164795,0.00114441,-1.00607300,0.366211,0.122070,-0.122070
6132728083,0.00186157,0.00138855,-1.00616455,0.366211,0.000000,-0.061035
6137741791,0.00196838,0.00238037,-1.00621033,0.244141,0.000000,-0.122070
6142723833,0.00204468,0.00285339,-1.00602722,0.244141,0.122070,-0.122070
6147734625,0.00253296,0.00276184,-1.00585938,0.183105,0.061035,-0.061035
6152766666,0.00363159,0.00297546,-1.00579834,0.427246,0.061035,-0.061035
6157720708,0.00440979,0.00355530,-1.00558472,0.305176,0.061035,-0.061035
6162715041,0.00422668,0.00381470,-1.00558472,0.244141,0.000000,0.000000
6167731458,0.00363159,0.00382996,-1.00588989,0.305176,0.122070,0.061035
6172723708,0.00331116,0.00401306,-1.00573730,0.366211,0.000000,-0.122070
6177719541,0.00323486,0.00436401,-1.00541687,0.427246,0.122070,-0.061035
6182730583,0.00308228,0.00430298,-1.00563049,0.427246,0.122070,0.000000
6187730958,0.00276184,0.00389099,-1.00578308,0.305176,-0.061035,-0.183105
6192720333,0.00186157,0.00357056,-1.00613403,0.366211,0.061035,0.000000
6197733000,0.00056458,0.00366211,-1.00665283,0.122070,0.061035,0.000000
6202717208,-0.00015259,0.00393677,-1.00648499,0.183105,0.061035,-0.061035
6207724708,-0.00010681,0.00381470,-1.00622559,0.366211,0.061035,-0.183105
6212723958,0.00030518,0.00366211,-1.00654602,0.427246,0.061035,0.000000
6217776791,0.00090027,0.00367737,-1.00662231,0.305176,0.000000,-0.183105
6222727250,0.00134277,0.00358582,-1.00621033,0.183105,-0.061035,-0.061035
6227731500,0.00128174,0.00340271,-1.00607300,0.305176,-0.061035,-0.122070
6232731791,0.00102234,0.00314331,-1.00624084,0.366211,0.061035,-0.061035
6237740208,0.00091553,0.00270081,-1.00617981,0.305176,0.061035,-0.061035
6242719250,0.00094604,0.00213623,-1.00621033,0.244141,-0.061035,-0.061035
6247749500,0.00109863,0.00175476,-1.00688171,0.366211,0.061035,-0.183105
6252783625,0.00122070,0.00198364,-1.00729370,0.305176,0.122070,0.000000
6257757541,0.00132751,0.00260925,-1.00656128,0.244141,0.061035,0.000000
6262734250,0.00180054,0.00299072,-1.00566101,0.427246,0.122070,0.000000
6267795791,0.00215149,0.00300598,-1.00567627,0.305176,-0.061035,-0.122070
6272732916,0.00177002,0.00296021,-1.00633240,0.305176,-0.061035,-0.183105
6277745500,0.00135803,0.00317383,-1.00688171,0.488281,0.061035,0.000000
6282743333,0.00177002,0.00373840,-1.00709534,0.366211,0.183105,-0.061035
6287741291,0.00242615,0.00413513,-1.00704956,0.366211,0.061035,-0.061035
6292733500,0.00260925,0.00393677,-1.00686646,0.244141,0.183105,-0.061035
6297753166,0.00244141,0.00372314,-1.00651550,0.305176,0.000000,-0.061035
6302736458,0.00215149,0.00396729,-1.00590515,0.366211,0.183105,-0.061035
6307783458,0.00207520,0.00410461,-1.00553894,0.305176,-0.061035,0.000000
6312731666,0.00227356,0.00398254,-1.00642395,0.305176,-0.061035,-0.183105
6317765541,0.00234985,0.00384521,-1.00765991,0.488281,-0.061035,0.000000
6322738416,0.00199890,0.00357056,-1.00750732,0.244141,0.122070,0.000000
6327750000,0.00155640,0.00315857,-1.00634766,0.366211,0.122070,-0.061035
6332763583,0.00151062,0.00321960,-1.00585938,0.305176,0.000000,-0.122070
6337769666,0.00160217,0.00381470,-1.00636292,0.305176,0.000000,-0.183105
6342740375,0.00134277,0.00405884,-1.00675964,0.305176,0.061035,0.061035
6347775416,0.00105286,0.00370789,-1.00648499,0.244141,-0.122070,-0.061035
6352748791,0.00115967,0.00328064,-1.00621033,0.366211,-0.061035,-0.061035
6357746500,0.00141907,0.00309753,-1.00633240,0.366211,0.000000,-0.061035
6362756375,0.00151062,0.00311279,-1.00643921,0.305176,0.061035,-0.122070
6367759708,0.00148010,0.00286865,-1.00627136,0.305176,-0.122070,-0.183105
6372757000,0.00137329,0.00231934,-1.00593567,0.305176,0.061035,0.000000
6377741708,0.00091553,0.00210571,-1.00569153,0.244141,0.061035,-0.183105
6382775208,0.00013733,0.00228882,-1.00598145,0.366211,0.122070,-0.122070
6387769166,0.00004578,0.00248718,-1.00640869,0.244141,0.000000,0.000000
6392747333,0.00114441,0.00279236,-1.00602722,0.427246,0.061035,0.000000
6397763833,0.00247192,0.00340271,-1.00558472,0.305176,0.000000,-0.061035
6402753583,0.00312805,0.00395203,-1.00663757,0.427246,0.000000,0.000000
6407757583,0.00332642,0.00424194,-1.00793457,0.244141,0.183105,-0.061035
6412765750,0.00329590,0.00419617,-1.00756836,0.244141,0.061035,-0.122070
6417783625,0.00289917,0.00408936,-1.00619507,0.305176,0.000000,-0.183105
6422757041,0.00231934,0.00437927,-1.00569153,0.305176,0.183105,-0.061035
6427778000,0.00204468,0.00500488,-1.00625610,0.305176,0.122070,-0.122070
6432771708,0.00186157,0.00526428,-1.00675964,0.244141,0.061035,-0.122070
6437801375,0.00152588,0.00502014,-1.00648499,0.366211,0.183105,0.000000
6442770125,0.00114441,0.00473022,-1.00585938,0.366211,0.122070,-0.061035
6447820625,0.00097656,0.00434875,-1.00579834,0.305176,0.061035,-0.061035
6452811208,0.00099182,0.00384521,-1.00627136,0.427246,0.061035,0.000000
6457783541,0.00085449,0.00358582,-1.00611877,0.427246,0.122070,0.061035
6462764958,0.00091553,0.00349426,-1.00535583,0.366211,0.000000,-0.122070
6467774291,0.00125122,0.00332642,-1.00544739,0.366211,0.061035,0.061035
6472751625,0.00131226,0.00306702,-1.00663757,0.427246,0.122070,-0.122070
6477755083,0.00111389,0.00299072,-1.00744629,0.427246,-0.061035,0.061035
6482778833,0.00119019,0.00323486,-1.00695801,0.305176,0.000000,-0.122070
6487785541,0.00184631,0.00373840,-1.00610352,0.122070,0.122070,-0.061035
6492762500,0.00271606,0.00437927,-1.00625610,0.427246,0.061035,-0.122070
6497767708,0.00303650,0.00454712,-1.00706482,0.305176,0.122070,-0.122070
6502772125,0.00268555,0.00381470,-1.00726318,0.305176,0.183105,-0.061035
6507773000,0.00221252,0.00270081,-1.00656128,0.427246,0.122070,0.000000
6512787416,0.00212097,0.00205994,-1.00575256,0.244141,-0.061035,-0.061035
6517784250,0.00248718,0.00216675,-1.00581360,0.244141,0.122070,-0.183105
6522762708,0.00265503,0.00265503,-1.00688171,0.244141,0.122070,-0.061035
6527771333,0.00247192,0.00318909,-1.00733948,0.366211,0.122070,-0.061035
6532768208,0.00199890,0.00350952,-1.00648499,0.305176,0.122070,-0.122070
6537785416,0.00151062,0.00364685,-1.00582886,0.366211,0.061035,-0.183105
6542769166,0.00117493,0.00358582,-1.00611877,0.366211,0.122070,-0.061035
6547787500,0.00096130,0.00363159,-1.00617981,0.244141,0.000000,-0.122070
6552785958,0.00085449,0.00375366,-1.00588989,0.305176,0.122070,-0.061035
6557796791,0.00103760,0.00363159,-1.00593567,0.244141,0.000000,-0.122070
6562774666,0.00157166,0.00325012,-1.00587463,0.305176,0.061035,0.061035
6567808291,0.00189209,0.00286865,-1.00550842,0.366211,0.000000,0.000000
6572773958,0.00180054,0.00265503,-1.00556946,0.366211,-0.061035,-0.183105
6577795458,0.00178528,0.00276184,-1.00617981,0.244141,0.061035,-0.061035
6582811958,0.00190735,0.00306702,-1.00689697,0.366211,0.122070,-0.061035
6587782708,0.00216675,0.00347900,-1.00694275,0.366211,0.183105,0.000000
6592989875,0.00259399,0.00410461,-1.00625610,0.366211,0.000000,-0.122070
6597786166,0.00279236,0.00456238,-1.00573730,0.366211,0.061035,-0.061035
6602760291,0.00270081,0.00421143,-1.00601196,0.305176,0.000000,0.000000
6607772916,0.00276184,0.00335693,-1.00643921,0.305176,0.122070,-0.061035
6612773666,0.00292969,0.00294495,-1.00627136,0.244141,0.061035,-0.061035
6617846708,0.00280762,0.00346375,-1.00598145,0.427246,0.000000,-0.122070
6622786625,0.00228882,0.00416565,-1.00596619,0.305176,0.061035,-0.061035
6627774000,0.00181580,0.00422668,-1.00593567,0.244141,0.122070,0.000000
6632793041,0.00149536,0.00375366,-1.00564575,0.305176,0.061035,-0.244141
6637781750,0.00114441,0.00314331,-1.00518799,0.366211,0.061035,-0.061035
6642767208,0.00088501,0.00263977,-1.00503540,0.305176,0.000000,-0.122070
6647783708,0.00117493,0.00244141,-1.00558472,0.427246,0.000000,-0.183105
6652796125,0.00144958,0.00270081,-1.00659180,0.305176,0.000000,-0.183105
6657798958,0.00114441,0.00325012,-1.00697327,0.305176,-0.061035,-0.122070
6662798250,0.00103760,0.00372314,-1.00624084,0.305176,0.061035,0.061035
6667784666,0.00141907,0.00358582,-1.00549316,0.427246,-0.061035,-0.183105
6672769708,0.00209045,0.00297546,-1.00590515,0.366211,0.000000,-0.122070
6677794916,0.00279236,0.00273132,-1.00674438,0.244141,0.061035,-0.061035
6682810833,0.00320435,0.00325012,-1.00642395,0.366211,0.122070,-0.122070
6687830416,0.00335693,0.00413513,-1.00521851,0.366211,0.122070,0.000000
6692786041,0.00352478,0.00494385,-1.00486755,0.305176,0.061035,-0.183105
6697802416,0.00335693,0.00506592,-1.00566101,0.305176,0.061035,-0.122070
6702784875,0.00276184,0.00445557,-1.00639343,0.427246,0.061035,-0.061035
6707786000,0.00234985,0.00413513,-1.00662231,0.244141,0.000000,-0.122070
6712790958,0.00219727,0.00427246,-1.00674438,0.305176,0.000000,0.061035
6717816500,0.00178528,0.00411987,-1.00683594,0.366211,0.000000,-0.122070
6722788125,0.00131226,0.00341797,-1.00675964,0.427246,-0.061035,-0.061035
6727798166,0.00120544,0.00296021,-1.00627136,0.244141,0.061035,-0.122070
6732791750,0.00115967,0.00329590,-1.00590515,0.305176,0.061035,-0.061035
6737785833,0.00102234,0.00357056,-1.00624084,0.305176,0.061035,-0.061035
6742778541,0.00093079,0.00331116,-1.00669861,0.366211,0.183105,0.061035
6747821666,0.00077820,0.00314331,-1.00643921,0.244141,0.061035,-0.061035
6752825916,0.00039673,0.00305176,-1.00602722,0.427246,0.061035,-0.122070
6757812083,0.00022888,0.00253296,-1.00625610,0.244141,0.122070,-0.061035
6762805916,0.00079346,0.00222778,-1.00660706,0.427246,0.122070,0.000000
6767812875,0.00166321,0.00256348,-1.00621033,0.366211,0.000000,-0.122070
6772788958,0.00207520,0.00280762,-1.00532532,0.305176,0.061035,0.000000
6777812666,0.00201416,0.00285339,-1.00492859,0.305176,-0.061035,-0.061035
6782799208,0.00193787,0.00325012,-1.00553894,0.366211,0.000000,0.000000
6787805708,0.00228882,0.00376892,-1.00666809,0.305176,0.061035,-0.122070
6792799416,0.00279236,0.00398254,-1.00708008,0.366211,0.183105,-0.061035
6797837916,0.00291443,0.00375366,-1.00621033,0.244141,0.122070,-0.122070
6802810375,0.00265503,0.00329590,-1.00537109,0.366211,0.061035,0.061035
6807817125,0.00250244,0.00325012,-1.00584412,0.366211,0.122070,0.000000
6812808416,0.00267029,0.00376892,-1.00657654,0.183105,0.183105,-0.122070
6817844583,0.00271606,0.00411987,-1.00624084,0.305176,-0.061035,0.000000
6822810916,0.00253296,0.00378418,-1.00552368,0.305176,0.000000,0.000000
6827825958,0.00238037,0.00309753,-1.00582886,0.305176,0.000000,-0.061035
6832806125,0.00210571,0.00274658,-1.00666809,0.305176,0.122070,-0.122070
6837805625,0.00143433,0.00297546,-1.00668335,0.305176,0.061035,-0.061035
6842794000,0.00067139,0.00329590,-1.00610352,0.366211,0.000000,0.061035
6847804958,0.00030518,0.00321960,-1.00592041,0.366211,0.000000,-0.122070
6852817458,0.00013733,0.00296021,-1.00651550,0.427246,0.061035,0.000000
6857810500,0.00003052,0.00276184,-1.00703430,0.427246,0.061035,0.061035
6862795750,0.00010681,0.00253296,-1.00672913,0.305176,0.000000,-0.061035
6867829583,0.00032043,0.00254822,-1.00611877,0.427246,0.183105,0.000000
6872810083,0.00045776,0.00286865,-1.00598145,0.366211,-0.061035,-0.122070
6877842083,0.00061035,0.00292969,-1.00613403,0.305176,0.061035,-0.244141
6882834375,0.00100708,0.00279236,-1.00588989,0.427246,0.000000,-0.061035
6887837916,0.00144958,0.00274658,-1.00567627,0.305176,0.122070,-0.183105
6892812375,0.00180054,0.00253296,-1.00614929,0.244141,0.122070,-0.061035
6897814750,0.00218201,0.00234985,-1.00669861,0.366211,0.000000,-0.061035
6902906625,0.00230408,0.00267029,-1.00646973,0.305176,-0.061035,-0.122070
6907818875,0.00222778,0.00337219,-1.00576782,0.305176,0.000000,-0.122070
6912816083,0.00245667,0.00401306,-1.00601196,0.366211,0.000000,-0.061035
6917874666,0.00286865,0.00424194,-1.00683594,0.427246,0.122070,-0.061035
6922825583,0.00312805,0.00407410,-1.00669861,0.305176,0.244141,0.000000
6927826583,0.00299072,0.00408936,-1.00598145,0.366211,0.183105,-0.061035
6932811041,0.00259399,0.00460815,-1.00598145,0.305176,0.000000,-0.122070
6937808458,0.00242615,0.00492859,-1.00669861,0.427246,0.061035,-0.061035
6942813833,0.00257874,0.00431824,-1.00737000,0.305176,0.122070,0.061035
6947820041,0.00238037,0.00328064,-1.00743103,0.122070,-0.061035,-0.061035
6952836000,0.00167847,0.00279236,-1.00672913,0.305176,0.000000,-0.122070
6957822333,0.00140381,0.00320435,-1.00611877,0.244141,0.061035,0.000000
6962830583,0.00146484,0.00358582,-1.00628662,0.366211,0.183105,0.000000
6967845208,0.00091553,0.00302124,-1.00650024,0.366211,0.183105,0.000000
6972824000,0.00003052,0.00219727,-1.00625610,0.427246,0.061035,0.000000
6977825000,-0.00016785,0.00216675,-1.00613403,0.366211,-0.061035,-0.061035
6982833541,0.00033569,0.00299072,-1.00624084,0.244141,0.061035,-0.183105
6987845833,0.00094604,0.00360107,-1.00627136,0.427246,-0.061035,-0.122070
6992819916,0.00123596,0.00331116,-1.00645447,0.305176,0.061035,-0.061035
6997848916,0.00128174,0.00263977,-1.00675964,0.427246,0.122070,-0.061035
7002836375,0.00164795,0.00244141,-1.00672913,0.305176,0.000000,-0.183105
7007840333,0.00222778,0.00296021,-1.00633240,0.366211,0.122070,0.000000
7012821250,0.00251770,0.00393677,-1.00624084,0.244141,0.000000,0.000000
7017847625,0.00247192,0.00471497,-1.00624084,0.305176,0.000000,-0.122070
7022825166,0.00222778,0.00471497,-1.00610352,0.305176,0.061035,0.000000
7027839041,0.00204468,0.00427246,-1.00617981,0.244141,0.000000,0.000000
7032847791,0.00241089,0.00415039,-1.00643921,0.366211,0.000000,0.000000
7037836291,0.00306702,0.00425720,-1.00657654,0.305176,0.061035,0.000000
7042808500,0.00288391,0.00415039,-1.00640869,0.305176,0.000000,-0.122070
7047842750,0.00186157,0.00387573,-1.00607300,0.305176,0.061035,0.000000
7052833500,0.00114441,0.00352478,-1.00601196,0.427246,0.061035,-0.122070
7057850500,0.00148010,0.00328064,-1.00614929,0.305176,0.061035,-0.061035
7062848125,0.00205994,0.00338745,-1.00602722,0.366211,-0.061035,-0.183105
7067844500,0.00177002,0.00370789,-1.00582886,0.366211,0.122070,0.000000
7072820416,0.00112915,0.00376892,-1.00636292,0.366211,-0.061035,-0.122070
7077831708,0.00086975,0.00341797,-1.00712585,0.305176,0.000000,-0.061035
7082847708,0.00064087,0.00334167,-1.00689697,0.427246,0.183105,-0.122070
7087813541,0.00027466,0.00355530,-1.00621033,0.183105,0.000000,-0.122070
7092827375,0.00032043,0.00355530,-1.00640869,0.427246,0.122070,-0.061035
7097858083,0.00093079,0.00334167,-1.00721741,0.427246,0.122070,-0.061035
7102846666,0.00157166,0.00305176,-1.00715637,0.305176,0.061035,-0.061035
7107854125,0.00209045,0.00299072,-1.00601196,0.366211,0.061035,0.000000
7112845916,0.00242615,0.00320435,-1.00529480,0.366211,0.122070,0.000000
7117859083,0.00250244,0.00347900,-1.00595093,0.305176,0.000000,-0.122070
7122840916,0.00245667,0.00372314,-1.00698853,0.305176,0.122070,-0.183105
7127848333,0.00251770,0.00389099,-1.00697327,0.244141,0.061035,-0.061035
7132858833,0.00270081,0.00382996,-1.00587463,0.244141,-0.061035,0.061035
7137871708,0.00260925,0.00349426,-1.00508118,0.244141,0.061035,-0.122070
7142854500,0.00222778,0.00306702,-1.00543213,0.305176,0.061035,-0.122070
7147879208,0.00195312,0.00283813,-1.00605774,0.183105,0.061035,-0.122070
7152913250,0.00201416,0.00282288,-1.00604248,0.305176,0.183105,0.000000
7157876583,0.00195312,0.00309753,-1.00566101,0.305176,0.122070,-0.061035
7162903125,0.00163269,0.00354004,-1.00579834,0.305176,0.061035,-0.122070
7167888333,0.00163269,0.00366211,-1.00633240,0.122070,-0.061035,0.061035
7172856208,0.00224304,0.00366211,-1.00630188,0.305176,0.061035,-0.183105
7177883083,0.00263977,0.00361633,-1.00575256,0.244141,0.122070,-0.122070
7182890500,0.00233459,0.00326538,-1.00582886,0.549316,0.122070,0.000000
7187877333,0.00193787,0.00297546,-1.00669861,0.244141,0.122070,-0.122070
7192890625,0.00183105,0.00311279,-1.00726318,0.305176,0.000000,-0.183105
7197904958,0.00172424,0.00338745,-1.00662231,0.366211,0.061035,-0.183105
7202878458,0.00152588,0.00360107,-1.00578308,0.305176,0.122070,0.122070
7207919083,0.00138855,0.00379944,-1.00573730,0.427246,0.000000,-0.061035
7212972916,0.00111389,0.00378418,-1.00596619,0.488281,0.122070,-0.061035
7217914375,0.00056458,0.00354004,-1.00611877,0.244141,-0.061035,-0.061035
7222923250,0.00047302,0.00332642,-1.00640869,0.427246,0.122070,-0.122070
7227923125,0.00123596,0.00325012,-1.00682068,0.427246,0.183105,0.061035
7232879916,0.00219727,0.00340271,-1.00711060,0.366211,0.122070,0.000000
7237888791,0.00253296,0.00369263,-1.00694275,0.305176,0.122070,0.000000
7242905916,0.00228882,0.00363159,-1.00627136,0.244141,0.000000,0.061035
7247884000,0.00215149,0.00315857,-1.00553894,0.366211,0.000000,-0.061035
7252903833,0.00225830,0.00311279,-1.00544739,0.488281,0.000000,-0.122070
7257883666,0.00219727,0.00367737,-1.00555420,0.366211,0.000000,-0.061035
7262874666,0.00205994,0.00427246,-1.00547791,0.366211,0.122070,-0.122070
7267945041,0.00205994,0.00442505,-1.00572205,0.305176,0.122070,-0.122070
7272907791,0.00218201,0.00416565,-1.00613403,0.305176,0.061035,0.061035
7277884833,0.00216675,0.00390625,-1.00601196,0.244141,0.000000,-0.061035
7282897375,0.00177002,0.00382996,-1.00579834,0.244141,0.000000,-0.122070
7287936416,0.00141907,0.00373840,-1.00588989,0.244141,-0.061035,-0.122070
7292871666,0.00151062,0.00350952,-1.00576782,0.244141,0.000000,-0.122070
7297894416,0.00187683,0.00326538,-1.00556946,0.244141,0.061035,-0.061035
7302877083,0.00183105,0.00325012,-1.00585938,0.244141,0.061035,-0.122070
7307954791,0.00137329,0.00366211,-1.00633240,0.244141,0.061035,-0.122070
7312939208,0.00135803,0.00407410,-1.00660706,0.427246,0.061035,-0.183105
7317940541,0.00158691,0.00402832,-1.00671387,0.305176,0.000000,-0.122070
7322891708,0.00122070,0.00357056,-1.00643921,0.427246,0.061035,-0.183105
7327898541,0.00074768,0.00291443,-1.00595093,0.427246,0.061035,-0.122070
7332922041,0.00097656,0.00231934,-1.00592041,0.244141,0.000000,-0.183105
7337948250,0.00148010,0.00222778,-1.00639343,0.305176,0.122070,-0.122070
7342904458,0.00166321,0.00277710,-1.00691223,0.183105,0.000000,-0.122070
7347891625,0.00140381,0.00329590,-1.00691223,0.305176,0.000000,0.061035
7352927250,0.00105286,0.00314331,-1.00645447,0.244141,0.000000,-0.122070
7357903875,0.00109863,0.00248718,-1.00572205,0.427246,0.061035,-0.061035
7362880041,0.00137329,0.00231934,-1.00500488,0.366211,0.061035,0.000000
7367901416,0.00167847,0.00291443,-1.00521851,0.244141,0.122070,-0.122070
7372907125,0.00207520,0.00344849,-1.00634766,0.244141,-0.061035,-0.061035
7377910916,0.00231934,0.00355530,-1.00688171,0.427246,0.000000,-0.061035
7382955541,0.00218201,0.00363159,-1.00627136,0.305176,0.122070,-0.122070
7387951500,0.00209045,0.00381470,-1.00567627,0.122070,0.183105,-0.122070
7392903708,0.00227356,0.00398254,-1.00598145,0.366211,0.244141,-0.122070
7397909500,0.00245667,0.00427246,-1.00651550,0.366211,-0.061035,0.000000
7402890208,0.00247192,0.00447083,-1.00686646,0.366211,0.000000,-0.061035
7407909000,0.00248718,0.00398254,-1.00720215,0.427246,-0.061035,-0.061035
7412943666,0.00251770,0.00317383,-1.00708008,0.244141,-0.061035,-0.183105
7417943041,0.00231934,0.00279236,-1.00624084,0.183105,0.000000,-0.061035
7422907875,0.00202942,0.00288391,-1.00569153,0.366211,0.061035,0.000000
7427926250,0.00201416,0.00318909,-1.00587463,0.366211,0.122070,-0.122070
7432915083,0.00189209,0.00341797,-1.00619507,0.366211,0.061035,-0.061035
7437923750,0.00152588,0.00343323,-1.00633240,0.366211,0.061035,0.000000
7442890833,0.00152588,0.00315857,-1.00599670,0.610352,0.122070,0.061035
7447913750,0.00181580,0.00271606,-1.00537109,0.427246,0.244141,-0.061035
7452958791,0.00186157,0.00253296,-1.00544739,0.366211,-0.122070,-0.061035
7457912458,0.00158691,0.00265503,-1.00613403,0.427246,0.061035,-0.183105
7462903458,0.00129700,0.00260925,-1.00613403,0.366211,0.061035,-0.122070
7467918916,0.00123596,0.00245667,-1.00543213,0.244141,0.061035,-0.183105
7472904875,0.00166321,0.00239563,-1.00527954,0.305176,0.000000,-0.122070
7477911666,0.00216675,0.00247192,-1.00585938,0.366211,0.000000,-0.122070
7482940583,0.00219727,0.00279236,-1.00611877,0.122070,0.000000,-0.061035
7487937208,0.00209045,0.00323486,-1.00572205,0.305176,0.122070,0.061035
7492907625,0.00222778,0.00337219,-1.00535583,0.305176,0.122070,0.000000
7497922791,0.00247192,0.00314331,-1.00534058,0.427246,0.122070,-0.122070
7502936833,0.00265503,0.00311279,-1.00566101,0.427246,-0.061035,0.061035
7507910875,0.00273132,0.00366211,-1.00614929,0.427246,0.122070,0.000000
7512914083,0.00280762,0.00428772,-1.00625610,0.244141,0.000000,-0.061035
7517948041,0.00273132,0.00448608,-1.00584412,0.366211,0.061035,-0.183105
7522910916,0.00263977,0.00430298,-1.00556946,0.366211,0.122070,-0.061035
7527911541,0.00268555,0.00396729,-1.00575256,0.366211,0.122070,-0.122070
7532929333,0.00256348,0.00358582,-1.00610352,0.427246,0.061035,0.000000
7537925500,0.00219727,0.00306702,-1.00616455,0.427246,0.061035,-0.122070
7542908125,0.00160217,0.00259399,-1.00614929,0.183105,0.061035,-0.061035
7547921958,0.00099182,0.00263977,-1.00619507,0.305176,0.122070,0.000000
7552951416,0.00061035,0.00326538,-1.00598145,0.244141,0.000000,-0.061035
7557932000,0.00073242,0.00366211,-1.00566101,0.305176,0.061035,-0.061035
7562941666,0.00117493,0.00314331,-1.00588989,0.366211,0.305176,0.122070
7567991375,0.00149536,0.00230408,-1.00659180,0.366211,0.122070,-0.122070
7572917708,0.00146484,0.00227356,-1.00703430,0.427246,0.000000,-0.183105
7577959791,0.00120544,0.00308228,-1.00680542,0.244141,-0.061035,-0.244141
7582957416,0.00102234,0.00360107,-1.00604248,0.305176,0.000000,-0.122070
7587962583,0.00123596,0.00335693,-1.00573730,0.427246,0.061035,-0.061035
7593018208,0.00178528,0.00305176,-1.00617981,0.366211,0.061035,-0.061035
7597943958,0.00230408,0.00329590,-1.00642395,0.305176,0.000000,-0.183105
7602904458,0.00245667,0.00378418,-1.00627136,0.305176,0.122070,-0.061035
7607927166,0.00219727,0.00402832,-1.00637817,0.488281,0.061035,0.000000
7612935166,0.00218201,0.00408936,-1.00668335,0.427246,0.061035,-0.122070
7617962833,0.00236511,0.00375366,-1.00660706,0.427246,0.000000,-0.061035
7622944875,0.00209045,0.00332642,-1.00610352,0.244141,0.000000,-0.061035
7627923416,0.00186157,0.00363159,-1.00552368,0.183105,0.000000,-0.061035
7632957666,0.00233459,0.00425720,-1.00517273,0.305176,0.122070,0.061035
7637926541,0.00273132,0.00448608,-1.00559998,0.427246,0.061035,-0.061035
7642902875,0.00227356,0.00424194,-1.00636292,0.305176,0.000000,-0.244141
7647938916,0.00163269,0.00395203,-1.00625610,0.244141,0.061035,-0.122070
7653015375,0.00155640,0.00392151,-1.00558472,0.427246,0.122070,-0.061035
7657963541,0.00155640,0.00389099,-1.00546265,0.488281,0.183105,-0.061035
7662942583,0.00112915,0.00344849,-1.00576782,0.366211,0.061035,-0.061035
7667925375,0.00077820,0.00277710,-1.00599670,0.305176,-0.061035,0.000000
7672904375,0.00094604,0.00221252,-1.00617981,0.183105,-0.061035,-0.122070
7677913041,0.00120544,0.00205994,-1.00634766,0.366211,0.122070,0.000000
7682944916,0.00120544,0.00224304,-1.00640869,0.366211,0.000000,0.000000
7687948625,0.00143433,0.00225830,-1.00643921,0.366211,0.122070,-0.061035
7692907791,0.00193787,0.00212097,-1.00645447,0.488281,0.061035,-0.122070
7697925166,0.00228882,0.00247192,-1.00595093,0.183105,0.000000,0.000000
7702931416,0.00230408,0.00329590,-1.00543213,0.244141,0.061035,-0.122070
7707928791,0.00207520,0.00398254,-1.00573730,0.244141,0.000000,0.000000
7712913500,0.00192261,0.00404358,-1.00630188,0.427246,0.122070,-0.061035
7717957083,0.00190735,0.00373840,-1.00648499,0.305176,0.061035,0.061035
7722914625,0.00193787,0.00369263,-1.00639343,0.366211,0.122070,0.000000
7727929958,0.00196838,0.00393677,-1.00607300,0.427246,0.061035,-0.122070
7732956833,0.00213623,0.00418091,-1.00559998,0.305176,0.122070,-0.122070
7737939958,0.00251770,0.00398254,-1.00546265,0.305176,0.122070,-0.061035
7742913083,0.00251770,0.00335693,-1.00582886,0.305176,0.000000,-0.061035
7747942250,0.00199890,0.00289917,-1.00602722,0.366211,0.000000,-0.061035
7752937791,0.00151062,0.00282288,-1.00575256,0.427246,0.000000,-0.061035
7757938500,0.00151062,0.00299072,-1.00566101,0.244141,0.000000,-0.122070
7762948041,0.00177002,0.00326538,-1.00614929,0.366211,0.000000,-0.061035
7767940583,0.00178528,0.00343323,-1.00677490,0.366211,0.061035,-0.061035
7772912916,0.00155640,0.00338745,-1.00685120,0.305176,0.000000,-0.122070
7777928250,0.00148010,0.00305176,-1.00611877,0.244141,0.061035,-0.122070
7782927208,0.00195312,0.00245667,-1.00508118,0.427246,0.061035,-0.122070
7787943916,0.00271606,0.00209045,-1.00459290,0.366211,0.061035,-0.061035
7792932583,0.00276184,0.00231934,-1.00520325,0.244141,0.000000,-0.122070
7797949791,0.00201416,0.00276184,-1.00630188,0.244141,0.122070,-0.183105
7802942958,0.00143433,0.00283813,-1.00677490,0.488281,0.122070,-0.122070
7807932458,0.00146484,0.00283813,-1.00637817,0.305176,0.061035,0.000000
7812988125,0.00190735,0.00314331,-1.00590515,0.366211,0.000000,-0.061035
7817968416,0.00219727,0.00343323,-1.00585938,0.244141,0.122070,-0.061035
7822939583,0.00196838,0.00347900,-1.00581360,0.366211,0.000000,0.000000
7827941166,0.00154114,0.00337219,-1.00538635,0.244141,0.061035,0.000000
7832934375,0.00137329,0.00314331,-1.00500488,0.366211,0.122070,-0.061035
7837947958,0.00143433,0.00309753,-1.00520325,0.305176,0.122070,-0.061035
7842915166,0.00170898,0.00344849,-1.00592041,0.305176,0.061035,-0.061035
7847940625,0.00207520,0.00372314,-1.00659180,0.366211,0.061035,-0.061035
7852933416,0.00213623,0.00358582,-1.00654602,0.366211,0.122070,-0.183105
7857940625,0.00199890,0.00334167,-1.00599670,0.305176,0.000000,-0.122070
7862943375,0.00192261,0.00299072,-1.00592041,0.305176,0.061035,-0.122070
7867956875,0.00193787,0.00279236,-1.00573730,0.366211,0.061035,-0.061035
7872937791,0.00207520,0.00303650,-1.00515747,0.366211,0.000000,0.000000
7877955125,0.00215149,0.00320435,-1.00526428,0.366211,0.122070,-0.061035
7882970000,0.00196838,0.00314331,-1.00611877,0.244141,-0.122070,0.061035
7887991416,0.00184631,0.00312805,-1.00639343,0.244141,0.061035,-0.122070
7892982916,0.00189209,0.00346375,-1.00578308,0.366211,0.122070,0.061035
7897947291,0.00186157,0.00419617,-1.00524902,0.366211,0.000000,-0.122070
7902946291,0.00164795,0.00476074,-1.00512695,0.427246,0.061035,-0.122070
7907946666,0.00163269,0.00466919,-1.00543213,0.366211,0.061035,-0.061035
7912935833,0.00202942,0.00411987,-1.00617981,0.244141,0.122070,0.000000
7918027750,0.00207520,0.00349426,-1.00665283,0.122070,-0.122070,-0.122070
7922957583,0.00135803,0.00305176,-1.00686646,0.244141,0.061035,0.000000
7927947750,0.00082397,0.00305176,-1.00747681,0.366211,0.061035,-0.061035
7932945500,0.00126648,0.00331116,-1.00770569,0.305176,0.122070,-0.061035
7937955958,0.00180054,0.00344849,-1.00703430,0.366211,0.000000,-0.061035
7942955833,0.00115967,0.00338745,-1.00648499,0.244141,-0.061035,-0.061035
7947947041,0.00012207,0.00308228,-1.00659180,0.427246,0.061035,-0.061035
7952966208,0.00033569,0.00280762,-1.00665283,0.427246,0.122070,-0.061035
7957943375,0.00134277,0.00280762,-1.00616455,0.427246,0.000000,-0.061035
7962934958,0.00180054,0.00289917,-1.00582886,0.366211,0.000000,0.000000
7967959083,0.00189209,0.00294495,-1.00630188,0.244141,0.061035,-0.061035
7972947458,0.00212097,0.00292969,-1.00706482,0.366211,0.061035,-0.061035
7977948541,0.00201416,0.00300598,-1.00712585,0.305176,0.061035,0.000000
7982981416,0.00155640,0.00325012,-1.00634766,0.427246,0.000000,-0.061035
7987962458,0.00164795,0.00350952,-1.00566101,0.183105,0.000000,0.000000
7992952250,0.00247192,0.00381470,-1.00588989,0.427246,-0.061035,0.061035
7997959666,0.00303650,0.00395203,-1.00630188,0.366211,0.122070,0.000000
8002956416,0.00286865,0.00357056,-1.00585938,0.244141,0.061035,-0.061035
8007952916,0.00265503,0.00317383,-1.00524902,0.183105,0.061035,-0.122070
8012947875,0.00262451,0.00334167,-1.00592041,0.305176,-0.061035,-0.061035
8017987250,0.00224304,0.00352478,-1.00698853,0.366211,0.122070,-0.122070
8022945083,0.00199890,0.00331116,-1.00665283,0.366211,0.000000,-0.122070
8027966750,0.00233459,0.00297546,-1.00561523,0.488281,0.122070,0.122070
8032980791,0.00230408,0.00300598,-1.00570679,0.366211,0.061035,-0.061035
8037963000,0.00144958,0.00331116,-1.00654602,0.427246,0.122070,-0.122070
8042957750,0.00071716,0.00335693,-1.00672913,0.366211,0.122070,-0.122070
8047967541,0.00059509,0.00299072,-1.00619507,0.305176,0.122070,-0.183105
8052969541,0.00045776,0.00265503,-1.00567627,0.122070,0.061035,0.061035
8057957708,0.00012207,0.00267029,-1.00563049,0.366211,0.122070,0.000000
8062969041,-0.00010681,0.00279236,-1.00590515,0.427246,0.122070,0.061035
8067971375,-0.00016785,0.00302124,-1.00617981,0.244141,0.122070,-0.061035
8072971666,-0.00006104,0.00338745,-1.00633240,0.305176,0.061035,-0.061035
8078017208,0.00004578,0.00341797,-1.00653076,0.244141,0.061035,-0.061035
8082993125,0.00054932,0.00309753,-1.00688171,0.305176,0.122070,0.000000
8087976208,0.00180054,0.00286865,-1.00677490,0.305176,0.061035,-0.122070
8092977916,0.00303650,0.00296021,-1.00610352,0.305176,0.061035,-0.183105
8097983958,0.00337219,0.00318909,-1.00573730,0.244141,0.000000,-0.122070
8102977750,0.00326538,0.00311279,-1.00599670,0.305176,0.000000,-0.122070
8107962291,0.00329590,0.00277710,-1.00625610,0.305176,-0.061035,0.122070
8112978708,0.00334167,0.00276184,-1.00608826,0.305176,0.061035,-0.061035
8117997500,0.00302124,0.00315857,-1.00575256,0.244141,0.000000,-0.061035
8122970000,0.00253296,0.00335693,-1.00587463,0.305176,0.061035,0.061035
8127975166,0.00248718,0.00318909,-1.00656128,0.305176,-0.061035,-0.061035
8132967333,0.00302124,0.00302124,-1.00698853,0.244141,0.000000,0.061035
8137970250,0.00314331,0.00308228,-1.00683594,0.244141,0.244141,0.000000
8143021500,0.00256348,0.00321960,-1.00688171,0.305176,0.061035,-0.183105
8147991791,0.00228882,0.00354004,-1.00701904,0.305176,0.000000,0.122070
8153000541,0.00233459,0.00382996,-1.00659180,0.366211,0.061035,0.000000
8157998083,0.00167847,0.00382996,-1.00582886,0.427246,0.061035,-0.122070
8162984166,0.00027466,0.00393677,-1.00558472,0.427246,0.061035,0.000000
8167985500,-0.00068665,0.00430298,-1.00621033,0.366211,0.061035,-0.183105
8172971875,-0.00044250,0.00422668,-1.00694275,0.305176,0.122070,-0.061035
8177971083,0.00025940,0.00361633,-1.00671387,0.366211,0.061035,-0.061035
8182980000,0.00050354,0.00292969,-1.00584412,0.183105,0.000000,-0.061035
8187993666,0.00032043,0.00245667,-1.00576782,0.366211,0.061035,0.000000
8192982750,0.00053406,0.00225830,-1.00671387,0.305176,0.122070,-0.061035
8197991166,0.00115967,0.00207520,-1.00706482,0.305176,0.061035,0.000000
8202989750,0.00157166,0.00193787,-1.00614929,0.488281,-0.061035,-0.061035
