timestamp_ns,accel_x,accel_y,accel_z,gyro_x,gyro_y,gyro_z
76863958,0.01530457,0.00032043,-0.99771118,0.000000,0.000000,0.000000
96056750,0.01530457,0.00032043,-0.99771118,0.061035,0.183105,-0.061035
100631166,0.01535034,-0.00050354,-0.99806213,-0.122070,0.000000,-0.122070
100635000,0.01347351,-0.00090027,-0.99847412,-0.122070,0.000000,-0.122070
103180708,0.01347351,-0.00090027,-0.99847412,0.000000,0.183105,-0.122070
108458083,0.01373291,0.00013733,-0.99827576,0.000000,0.183105,-0.122070
111161208,0.01373291,0.00013733,-0.99827576,0.061035,0.183105,-0.122070
117137416,0.01351929,0.00149536,-0.99757385,0.061035,0.183105,-0.122070
123116625,0.01351929,0.00149536,-0.99757385,0.061035,0.061035,-0.061035
128223000,0.01438904,0.00167847,-0.99794006,0.061035,0.061035,-0.061035
133677333,0.01438904,0.00167847,-0.99794006,0.061035,0.183105,-0.122070
136189916,0.01594543,0.00157166,-0.99765015,0.061035,0.183105,-0.122070
141228625,0.01594543,0.00157166,-0.99765015,0.183105,0.061035,-0.061035
146256083,0.01536560,0.00242615,-0.99766541,0.183105,0.061035,-0.061035
151281083,0.01536560,0.00242615,-0.99766541,0.183105,0.244141,-0.183105
156344666,0.01516724,0.00245667,-0.99572754,0.183105,0.244141,-0.183105
161397666,0.01516724,0.00245667,-0.99572754,0.061035,0.183105,0.061035
166431500,0.01486206,0.00251770,-1.00000000,0.061035,0.183105,0.061035
171452250,0.01486206,0.00251770,-1.00000000,-0.061035,0.061035,-0.183105
176481416,0.01626587,0.00221252,-0.99766541,-0.061035,0.061035,-0.183105
181534875,0.01626587,0.00221252,-0.99766541,0.061035,0.122070,-0.061035
186580833,0.01640320,0.00166321,-0.99650574,0.061035,0.122070,-0.061035
191623958,0.01640320,0.00166321,-0.99650574,0.061035,0.122070,-0.122070
196661125,0.01510620,0.00099182,-0.99664307,0.061035,0.122070,-0.122070
201701208,0.01510620,0.00099182,-0.99664307,0.061035,0.244141,-0.122070
206743500,0.01483154,0.00140381,-0.99790955,0.061035,0.244141,-0.122070
211797583,0.01483154,0.00140381,-0.99790955,-0.061035,0.000000,-0.183105
216826750,0.01458740,0.00111389,-0.99754333,-0.061035,0.000000,-0.183105
221854666,0.01458740,0.00111389,-0.99754333,0.061035,0.122070,-0.244141
226879833,0.01545715,0.00080872,-0.99794006,0.061035,0.122070,-0.244141
231904416,0.01545715,0.00080872,-0.99794006,0.183105,0.183105,-0.061035
236930375,0.01467896,0.00144958,-0.99774170,0.183105,0.183105,-0.061035
241952541,0.01467896,0.00144958,-0.99774170,0.000000,0.183105,-0.122070
246976125,0.01484680,0.00198364,-0.99835205,0.000000,0.183105,-0.122070
252001166,0.01484680,0.00198364,-0.99835205,0.061035,0.061035,-0.183105
257031208,0.01470947,0.00209045,-0.99839783,0.061035,0.061035,-0.183105
262059625,0.01470947,0.00209045,-0.99839783,0.122070,0.122070,-0.183105
267093500,0.01512146,0.00141907,-0.99786377,0.122070,0.122070,-0.183105
272120958,0.01512146,0.00141907,-0.99786377,0.061035,0.122070,-0.183105
277141125,0.01414490,0.00161743,-0.99763489,0.061035,0.122070,-0.183105
282168416,0.01414490,0.00161743,-0.99763489,0.244141,0.122070,-0.061035
287195875,0.01396179,0.00149536,-0.99792480,0.244141,0.122070,-0.061035
292223750,0.01396179,0.00149536,-0.99792480,0.122070,0.183105,0.000000
297250125,0.01403809,0.00215149,-0.99836731,0.122070,0.183105,0.000000
302279041,0.01403809,0.00215149,-0.99836731,0.000000,0.061035,-0.122070
307308708,0.01469421,0.00234985,-0.99746704,0.000000,0.061035,-0.122070
312045875,0.01469421,0.00234985,-0.99746704,0.183105,0.061035,-0.061035
317083791,0.01438904,0.00146484,-0.99803162,0.183105,0.061035,-0.061035
322109583,0.01438904,0.00146484,-0.99803162,0.061035,0.122070,-0.122070
327136791,0.01489258,0.00167847,-0.99864197,0.061035,0.122070,-0.122070
332169000,0.01489258,0.00167847,-0.99864197,0.244141,0.244141,-0.061035
337195583,0.01422119,0.00128174,-0.99748230,0.244141,0.244141,-0.061035
342229166,0.01422119,0.00128174,-0.99748230,0.183105,0.244141,-0.061035
347255208,0.01437378,0.00175476,-0.99771118,0.183105,0.244141,-0.061035
352352291,0.01437378,0.00175476,-0.99771118,0.244141,0.122070,-0.122070
357297083,0.01473999,0.00112915,-0.99780273,0.244141,0.122070,-0.122070
362266041,0.01473999,0.00112915,-0.99780273,0.366211,0.244141,-0.122070
367368958,0.01582336,0.00015259,-0.99717712,0.366211,0.244141,-0.122070
372449208,0.01582336,0.00015259,-0.99717712,0.366211,0.244141,-0.061035
377494416,0.01435852,-0.00012207,-0.99745178,0.366211,0.244141,-0.061035
382597125,0.01435852,-0.00012207,-0.99745178,0.122070,0.122070,-0.061035
387710000,0.01387024,0.00056458,-1.00039673,0.122070,0.122070,-0.061035
392796166,0.01387024,0.00056458,-1.00039673,0.000000,0.000000,-0.122070
397923250,0.01441956,0.00062561,-1.00033569,0.000000,0.000000,-0.122070
402723708,0.01441956,0.00062561,-1.00033569,0.061035,0.122070,-0.183105
407848416,0.01435852,0.00283813,-0.99824524,0.061035,0.122070,-0.183105
412955250,0.01435852,0.00283813,-0.99824524,0.122070,0.122070,-0.183105
417678250,0.01449585,0.00321960,-0.99517822,0.122070,0.122070,-0.183105
422801750,0.01449585,0.00321960,-0.99517822,0.061035,0.122070,-0.061035
427895291,0.01422119,0.00157166,-0.99655151,0.061035,0.122070,-0.061035
433021875,0.01422119,0.00157166,-0.99655151,0.000000,0.061035,-0.183105
438152583,0.01496887,0.00094604,-0.99819946,0.000000,0.061035,-0.183105
443151208,0.01496887,0.00094604,-0.99819946,0.061035,0.122070,-0.183105
448338541,0.01489258,0.00106812,-0.99873352,0.061035,0.122070,-0.183105
453501833,0.01489258,0.00106812,-0.99873352,0.122070,0.244141,-0.244141
456108791,0.01502991,0.00119019,-0.99801636,0.122070,0.244141,-0.244141
461196333,0.01502991,0.00119019,-0.99801636,0.061035,0.183105,-0.244141
468451833,0.01445007,0.00143433,-0.99748230,0.061035,0.183105,-0.244141
473574916,0.01445007,0.00143433,-0.99748230,0.122070,0.000000,-0.122070
478707875,0.01405334,0.00213623,-0.99810791,0.122070,0.000000,-0.122070
481312375,0.01405334,0.00213623,-0.99810791,0.000000,0.183105,-0.122070
486422500,0.01438904,0.00155640,-0.99801636,0.000000,0.183105,-0.122070
491507083,0.01438904,0.00155640,-0.99801636,0.061035,0.244141,-0.061035
498951666,0.01502991,0.00140381,-0.99879456,0.061035,0.244141,-0.061035
504101250,0.01502991,0.00140381,-0.99879456,0.122070,0.244141,-0.122070
508790875,0.01440430,0.00230408,-0.99772644,0.122070,0.244141,-0.122070
513887583,0.01440430,0.00230408,-0.99772644,0.061035,0.244141,-0.183105
519021083,0.01518250,0.00311279,-0.99761963,0.061035,0.244141,-0.183105
521673458,0.01518250,0.00311279,-0.99761963,0.061035,0.183105,-0.183105
528967291,0.01620483,0.00135803,-0.99928284,0.061035,0.183105,-0.183105
534111208,0.01620483,0.00135803,-0.99928284,0.183105,0.061035,-0.183105
536715750,0.01596069,0.00126648,-0.99984741,0.183105,0.061035,-0.183105
543917416,0.01596069,0.00126648,-0.99984741,0.000000,0.122070,-0.061035
549067166,0.01524353,0.00082397,-0.99957275,0.000000,0.122070,-0.061035
551615916,0.01524353,0.00082397,-0.99957275,-0.122070,0.183105,-0.183105
556694458,0.01475525,-0.00045776,-0.99966431,-0.122070,0.183105,-0.183105
561767083,0.01475525,-0.00045776,-0.99966431,-0.061035,0.122070,-0.183105
566894250,0.01431274,-0.00143433,-0.99798584,-0.061035,0.122070,-0.183105
572048583,0.01431274,-0.00143433,-0.99798584,0.000000,0.122070,-0.183105
577159583,0.01399231,-0.00053406,-0.99816895,0.000000,0.122070,-0.183105
582278041,0.01399231,-0.00053406,-0.99816895,0.000000,0.061035,-0.183105
587036000,0.01452637,0.00126648,-0.99740601,0.000000,0.061035,-0.183105
592167666,0.01452637,0.00126648,-0.99740601,0.000000,0.244141,-0.183105
597315875,0.01443481,0.00172424,-0.99844360,0.000000,0.244141,-0.183105
602467541,0.01443481,0.00172424,-0.99844360,0.000000,0.122070,-0.244141
607610583,0.01428223,0.00231934,-0.99826050,0.000000,0.122070,-0.244141
612569208,0.01428223,0.00231934,-0.99826050,0.183105,0.122070,-0.183105
617722208,0.01487732,0.00300598,-0.99890137,0.183105,0.122070,-0.183105
622801166,0.01487732,0.00300598,-0.99890137,0.122070,0.244141,-0.244141
627794708,0.01541138,0.00456238,-0.99903870,0.122070,0.244141,-0.244141
632860833,0.01541138,0.00456238,-0.99903870,-0.061035,0.061035,-0.122070
637927291,0.01528931,0.00408936,-0.99775696,-0.061035,0.061035,-0.122070
642985750,0.01528931,0.00408936,-0.99775696,0.122070,0.183105,-0.122070
648102791,0.01507568,0.00263977,-0.99914551,0.122070,0.183105,-0.122070
653191083,0.01507568,0.00263977,-0.99914551,0.122070,0.000000,0.000000
658284125,0.01335144,0.00190735,-0.99905396,0.122070,0.000000,0.000000
663340791,0.01335144,0.00190735,-0.99905396,0.061035,0.183105,-0.122070
668318416,0.01391602,0.00088501,-0.99851990,0.061035,0.183105,-0.122070
673399291,0.01391602,0.00088501,-0.99851990,0.244141,0.122070,-0.183105
678375583,0.01606750,-0.00088501,-0.99790955,0.244141,0.122070,-0.183105
683498041,0.01606750,-0.00088501,-0.99790955,0.061035,0.061035,-0.061035
688566541,0.01504517,-0.00102234,-0.99739075,0.061035,0.061035,-0.061035
693665708,0.01504517,-0.00102234,-0.99739075,0.061035,0.183105,-0.061035
698820500,0.01423645,-0.00096130,-0.99819946,0.061035,0.183105,-0.061035
703992208,0.01423645,-0.00096130,-0.99819946,0.061035,0.061035,-0.122070
709127583,0.01412964,-0.00064087,-0.99847412,0.061035,0.061035,-0.122070
711699708,0.01412964,-0.00064087,-0.99847412,0.061035,0.183105,-0.183105
718974750,0.01493835,0.00048828,-0.99780273,0.061035,0.183105,-0.183105
724081708,0.01493835,0.00048828,-0.99780273,0.000000,0.183105,-0.183105
729256250,0.01524353,0.00059509,-0.99638367,0.000000,0.183105,-0.183105
731870041,0.01524353,0.00059509,-0.99638367,0.122070,0.122070,-0.122070
737034250,0.01423645,0.00077820,-0.99992371,0.122070,0.122070,-0.122070
742195041,0.01423645,0.00077820,-0.99992371,0.000000,0.061035,-0.244141
747333416,0.01464844,0.00085449,-1.00012207,0.000000,0.061035,-0.244141
752470583,0.01464844,0.00085449,-1.00012207,-0.122070,0.061035,-0.244141
757610750,0.01504517,0.00219727,-0.99876404,-0.122070,0.061035,-0.244141
762755541,0.01504517,0.00219727,-0.99876404,0.061035,0.183105,-0.122070
767901125,0.01455688,0.00305176,-0.99694824,0.061035,0.183105,-0.122070
773028333,0.01455688,0.00305176,-0.99694824,0.122070,0.122070,-0.061035
778131458,0.01409912,0.00320435,-0.99760437,0.122070,0.122070,-0.061035
783056958,0.01409912,0.00320435,-0.99760437,0.061035,0.305176,0.061035
788098791,0.01464844,0.00280762,-0.99703979,0.061035,0.305176,0.061035
793180291,0.01464844,0.00280762,-0.99703979,-0.061035,0.244141,-0.061035
798327333,0.01486206,0.00190735,-0.99833679,-0.061035,0.244141,-0.061035
803493250,0.01486206,0.00190735,-0.99833679,0.061035,0.244141,-0.122070
808261500,0.01460266,0.00126648,-0.99717712,0.061035,0.244141,-0.122070
813381583,0.01460266,0.00126648,-0.99717712,0.061035,0.061035,-0.244141
818348833,0.01435852,0.00027466,-0.99710083,0.061035,0.061035,-0.244141
823223416,0.01435852,0.00027466,-0.99710083,0.061035,0.244141,-0.061035
829839666,0.01518250,-0.00001526,-0.99761963,0.061035,0.244141,-0.061035
832430666,0.01518250,-0.00001526,-0.99761963,0.061035,0.244141,-0.244141
837586000,0.01521301,-0.00003052,-0.99723816,0.061035,0.244141,-0.244141
842728500,0.01521301,-0.00003052,-0.99723816,0.000000,0.183105,-0.061035
847795708,0.01554871,0.00024414,-0.99822998,0.000000,0.183105,-0.061035
852720416,0.01554871,0.00024414,-0.99822998,0.000000,0.122070,-0.305176
857844666,0.01445007,-0.00056458,-0.99781799,0.000000,0.122070,-0.305176
862821833,0.01445007,-0.00056458,-0.99781799,-0.061035,0.183105,-0.122070
867932416,0.01531982,0.00109863,-0.99833679,-0.061035,0.183105,-0.122070
872792083,0.01531982,0.00109863,-0.99833679,0.000000,0.244141,-0.122070
877817416,0.01475525,0.00215149,-0.99763489,0.000000,0.244141,-0.122070
882941916,0.01475525,0.00215149,-0.99763489,-0.061035,0.183105,-0.183105
888092333,0.01460266,0.00180054,-0.99861145,-0.061035,0.183105,-0.183105
892992208,0.01460266,0.00180054,-0.99861145,0.061035,0.122070,-0.122070
898157875,0.01455688,0.00109863,-0.99905396,0.061035,0.122070,-0.122070
903319833,0.01455688,0.00109863,-0.99905396,0.061035,0.183105,0.000000
908460083,0.01367188,0.00201416,-0.99903870,0.061035,0.183105,0.000000
913564791,0.01367188,0.00201416,-0.99903870,0.061035,0.061035,-0.061035
918705750,0.01403809,0.00184631,-0.99716187,0.061035,0.061035,-0.061035
923849000,0.01403809,0.00184631,-0.99716187,0.122070,0.183105,-0.061035
928943208,0.01480103,0.00154114,-0.99754333,0.122070,0.183105,-0.061035
934077833,0.01480103,0.00154114,-0.99754333,0.122070,0.122070,-0.061035
939170875,0.01506042,0.00126648,-0.99848938,0.122070,0.122070,-0.061035
943804291,0.01506042,0.00126648,-0.99848938,0.061035,0.244141,-0.183105
948690166,0.01467896,0.00151062,-0.99929810,0.061035,0.244141,-0.183105
953802083,0.01467896,0.00151062,-0.99929810,0.000000,0.183105,-0.061035
958925708,0.01440430,0.00068665,-0.99812317,0.000000,0.183105,-0.061035
964095375,0.01440430,0.00068665,-0.99812317,-0.061035,0.183105,-0.183105
969305375,0.01438904,0.00061035,-0.99821472,-0.061035,0.183105,-0.183105
974467166,0.01438904,0.00061035,-0.99821472,0.122070,-0.061035,-0.183105
979607541,0.01460266,0.00036621,-0.99850464,0.122070,-0.061035,-0.183105
984798125,0.01460266,0.00036621,-0.99850464,0.061035,0.244141,-0.061035
989546375,0.01448059,-0.00050354,-0.99838257,0.061035,0.244141,-0.061035
994643708,0.01448059,-0.00050354,-0.99838257,0.061035,0.122070,-0.122070
999770125,0.01501465,0.00045776,-0.99867249,0.061035,0.122070,-0.122070
1004875583,0.01501465,0.00045776,-0.99867249,0.061035,0.183105,-0.122070
1009932916,0.01506042,0.00117493,-0.99769592,0.061035,0.183105,-0.122070
1015067250,0.01506042,0.00117493,-0.99769592,0.000000,0.183105,0.000000
1019757166,0.01481628,0.00140381,-0.99812317,0.000000,0.183105,0.000000
1024440250,0.01481628,0.00140381,-0.99812317,0.061035,0.183105,-0.305176
1029544875,0.01524353,0.00076294,-0.99882507,0.061035,0.183105,-0.305176
1034248166,0.01524353,0.00076294,-0.99882507,0.183105,0.183105,-0.122070
1039321750,0.01576233,0.00157166,-0.99815369,0.183105,0.183105,-0.122070
1044411958,0.01576233,0.00157166,-0.99815369,-0.061035,0.061035,-0.061035
1049197541,0.01545715,0.00172424,-0.99797058,-0.061035,0.061035,-0.061035
1054318833,0.01545715,0.00172424,-0.99797058,-0.061035,0.122070,-0.122070
1059056583,0.01547241,0.00138855,-0.99771118,-0.061035,0.122070,-0.122070
1064224916,0.01547241,0.00138855,-0.99771118,0.061035,0.244141,-0.061035
1069362250,0.01362610,0.00167847,-0.99777222,0.061035,0.244141,-0.061035
1074480375,0.01362610,0.00167847,-0.99777222,0.000000,0.061035,-0.061035
1079453083,0.01507568,0.00216675,-0.99826050,0.000000,0.061035,-0.061035
1084568250,0.01507568,0.00216675,-0.99826050,0.183105,0.183105,-0.061035
1089386666,0.01501465,0.00163269,-0.99801636,0.183105,0.183105,-0.061035
1094466541,0.01501465,0.00163269,-0.99801636,0.122070,0.122070,-0.122070
1099584166,0.01382446,0.00077820,-0.99801636,0.122070,0.122070,-0.122070
1104688625,0.01382446,0.00077820,-0.99801636,-0.061035,0.122070,-0.122070
1109778000,0.01524353,0.00120544,-0.99772644,-0.061035,0.122070,-0.122070
1114868958,0.01524353,0.00120544,-0.99772644,0.122070,0.122070,-0.061035
1119551375,0.01461792,0.00184631,-0.99964905,0.122070,0.122070,-0.061035
1124681458,0.01461792,0.00184631,-0.99964905,0.122070,0.244141,-0.061035
1129804583,0.01458740,0.00184631,-0.99786377,0.122070,0.244141,-0.061035
1134929791,0.01458740,0.00184631,-0.99786377,0.183105,0.183105,-0.183105
1139760625,0.01440430,0.00144958,-0.99703979,0.183105,0.183105,-0.183105
1144464375,0.01440430,0.00144958,-0.99703979,0.122070,0.122070,-0.061035
1149578791,0.01409912,0.00035095,-0.99757385,0.122070,0.122070,-0.061035
1154724125,0.01409912,0.00035095,-0.99757385,0.061035,0.122070,0.000000
1159830750,0.01458740,0.00047302,-0.99772644,0.061035,0.122070,0.000000
1165018166,0.01458740,0.00047302,-0.99772644,0.183105,0.183105,-0.122070
1170132458,0.01481628,0.00122070,-0.99757385,0.183105,0.183105,-0.122070
1175231208,0.01481628,0.00122070,-0.99757385,0.000000,0.183105,0.000000
1180365916,0.01478577,0.00122070,-0.99745178,0.000000,0.183105,0.000000
1182975916,0.01478577,0.00122070,-0.99745178,0.061035,0.122070,-0.122070
1188131000,0.01458740,0.00134277,-0.99890137,0.061035,0.122070,-0.122070
1193237541,0.01458740,0.00134277,-0.99890137,0.061035,0.244141,-0.183105
1198373791,0.01571655,0.00105286,-0.99766541,0.061035,0.244141,-0.183105
1203499625,0.01571655,0.00105286,-0.99766541,0.122070,0.122070,-0.122070
1208588958,0.01493835,0.00141907,-0.99691772,0.122070,0.122070,-0.122070
1213684750,0.01493835,0.00141907,-0.99691772,0.122070,0.305176,-0.122070
1218793541,0.01481628,0.00083923,-0.99754333,0.122070,0.305176,-0.122070
1223928083,0.01481628,0.00083923,-0.99754333,0.000000,0.000000,0.000000
1229087458,0.01492310,0.00132751,-0.99662781,0.000000,0.000000,0.000000
1234329916,0.01492310,0.00132751,-0.99662781,0.122070,0.183105,-0.122070
1239446416,0.01397705,0.00103760,-0.99792480,0.122070,0.183105,-0.122070
1244529000,0.01397705,0.00103760,-0.99792480,-0.061035,0.183105,-0.122070
1249475125,0.01449585,0.00175476,-0.99813843,-0.061035,0.183105,-0.122070
1254602000,0.01449585,0.00175476,-0.99813843,0.000000,0.183105,-0.183105
1259734625,0.01452637,0.00167847,-0.99818420,0.000000,0.183105,-0.183105
1264878208,0.01452637,0.00167847,-0.99818420,0.122070,0.183105,-0.183105
1270024166,0.01487732,0.00111389,-0.99835205,0.122070,0.183105,-0.183105
1274551000,0.01487732,0.00111389,-0.99835205,0.000000,0.183105,-0.244141
1279653708,0.01492310,0.00021362,-0.99775696,0.000000,0.183105,-0.244141
1284792416,0.01492310,0.00021362,-0.99775696,0.061035,0.183105,-0.061035
1289817666,0.01538086,0.00007629,-0.99803162,0.061035,0.183105,-0.061035
1294990500,0.01538086,0.00007629,-0.99803162,0.122070,0.000000,-0.122070
1300133791,0.01490784,0.00149536,-0.99748230,0.122070,0.000000,-0.122070
1305269000,0.01490784,0.00149536,-0.99748230,0.000000,0.061035,-0.122070
1310034125,0.01463318,0.00148010,-0.99699402,0.000000,0.061035,-0.122070
1315156958,0.01463318,0.00148010,-0.99699402,0.000000,0.000000,-0.122070
1319957708,0.01481628,0.00126648,-0.99761963,0.000000,0.000000,-0.122070
1325021666,0.01481628,0.00126648,-0.99761963,0.122070,0.122070,-0.183105
1329850041,0.01518250,0.00161743,-0.99818420,0.122070,0.122070,-0.183105
1334974791,0.01518250,0.00161743,-0.99818420,0.061035,0.183105,-0.122070
1340038583,0.01524353,0.00148010,-0.99804688,0.061035,0.183105,-0.122070
1345130583,0.01524353,0.00148010,-0.99804688,0.183105,0.183105,-0.244141
1350277791,0.01530457,0.00088501,-0.99716187,0.183105,0.183105,-0.244141
1355303291,0.01530457,0.00088501,-0.99716187,0.183105,0.183105,-0.122070
1360421791,0.01530457,0.00112915,-0.99745178,0.183105,0.183105,-0.122070
1365594041,0.01530457,0.00112915,-0.99745178,0.000000,0.061035,-0.061035
1370729541,0.01385498,0.00039673,-0.99845886,0.000000,0.061035,-0.061035
1375791250,0.01385498,0.00039673,-0.99845886,0.122070,0.122070,-0.183105
1380938500,0.01402283,0.00062561,-0.99945068,0.122070,0.122070,-0.183105
1386062166,0.01402283,0.00062561,-0.99945068,0.122070,0.122070,-0.122070
1388660083,0.01347351,0.00102234,-0.99826050,0.122070,0.122070,-0.122070
1393740583,0.01347351,0.00102234,-0.99826050,0.122070,0.183105,-0.183105
1398842500,0.01455688,0.00128174,-0.99702454,0.122070,0.183105,-0.183105
1403912708,0.01455688,0.00128174,-0.99702454,0.061035,0.183105,-0.122070
1408968083,0.01434326,0.00218201,-0.99812317,0.061035,0.183105,-0.122070
1414066083,0.01434326,0.00218201,-0.99812317,0.000000,0.122070,-0.183105
1419162333,0.01586914,0.00132751,-0.99774170,0.000000,0.122070,-0.183105
1424247833,0.01586914,0.00132751,-0.99774170,0.061035,0.183105,-0.122070
1429359750,0.01629639,0.00178528,-0.99920654,0.061035,0.183105,-0.122070
1434513541,0.01629639,0.00178528,-0.99920654,0.061035,0.244141,-0.122070
1439708541,0.01516724,0.00151062,-0.99838257,0.061035,0.244141,-0.122070
1444845375,0.01516724,0.00151062,-0.99838257,0.061035,0.244141,-0.061035
1449979041,0.01551819,0.00157166,-0.99858093,0.061035,0.244141,-0.061035
1455140333,0.01551819,0.00157166,-0.99858093,0.061035,0.183105,-0.183105
1460072291,0.01498413,0.00093079,-0.99800110,0.061035,0.183105,-0.183105
1465221958,0.01498413,0.00093079,-0.99800110,0.122070,0.183105,-0.122070
1470344541,0.01327515,0.00038147,-0.99751282,0.122070,0.183105,-0.122070
1475441833,0.01327515,0.00038147,-0.99751282,0.061035,0.183105,-0.122070
1480289291,0.01374817,0.00044250,-0.99745178,0.061035,0.183105,-0.122070
1485355916,0.01374817,0.00044250,-0.99745178,0.061035,0.305176,-0.122070
1490500500,0.01538086,-0.00003052,-0.99778748,0.061035,0.305176,-0.122070
1495108541,0.01538086,-0.00003052,-0.99778748,0.122070,0.061035,-0.122070
1500294375,0.01539612,0.00097656,-0.99807739,0.122070,0.061035,-0.122070
1505387291,0.01539612,0.00097656,-0.99807739,0.122070,0.122070,-0.183105
1510489625,0.01579285,0.00108337,-0.99803162,0.122070,0.122070,-0.183105
1515711250,0.01579285,0.00108337,-0.99803162,0.000000,0.061035,-0.183105
1520923291,0.01577759,0.00149536,-0.99743652,0.000000,0.061035,-0.183105
1525581000,0.01577759,0.00149536,-0.99743652,0.122070,0.122070,0.000000
1530576750,0.01409912,0.00143433,-0.99826050,0.122070,0.122070,0.000000
1535378166,0.01409912,0.00143433,-0.99826050,0.000000,0.000000,-0.183105
1540210916,0.01466370,0.00102234,-0.99789429,0.000000,0.000000,-0.183105
1545338833,0.01466370,0.00102234,-0.99789429,0.061035,0.122070,-0.244141
1550499916,0.01559448,0.00103760,-0.99819946,0.061035,0.122070,-0.244141
1555636208,0.01559448,0.00103760,-0.99819946,0.061035,0.122070,-0.244141
1560741458,0.01414490,0.00178528,-0.99743652,0.061035,0.122070,-0.244141
1565920250,0.01414490,0.00178528,-0.99743652,0.122070,0.122070,-0.061035
1570925833,0.01440430,0.00109863,-0.99732971,0.122070,0.122070,-0.061035
1575589500,0.01440430,0.00109863,-0.99732971,0.183105,0.183105,-0.122070
1580380958,0.01525879,0.00131226,-0.99751282,0.183105,0.183105,-0.122070
1585527333,0.01525879,0.00131226,-0.99751282,0.061035,0.122070,-0.122070
1590305625,0.01531982,0.00247192,-0.99780273,0.061035,0.122070,-0.122070
1595438791,0.01531982,0.00247192,-0.99780273,0.000000,0.122070,-0.183105
1600619625,0.01406860,0.00166321,-0.99768066,0.000000,0.122070,-0.183105
1605334333,0.01406860,0.00166321,-0.99768066,-0.122070,0.122070,-0.122070
1610436291,0.01448059,0.00140381,-0.99833679,-0.122070,0.122070,-0.122070
1615610750,0.01448059,0.00140381,-0.99833679,0.000000,0.061035,-0.122070
1620757041,0.01608276,0.00160217,-0.99780273,0.000000,0.061035,-0.122070
1625491750,0.01608276,0.00160217,-0.99780273,0.061035,0.122070,-0.183105
1630615583,0.01640320,0.00137329,-0.99746704,0.061035,0.122070,-0.183105
1635734666,0.01640320,0.00137329,-0.99746704,0.000000,0.183105,-0.122070
1640428250,0.01571655,0.00036621,-0.99752808,0.000000,0.183105,-0.122070
1645511125,0.01571655,0.00036621,-0.99752808,0.061035,0.061035,-0.122070
1650639583,0.01377869,0.00080872,-0.99789429,0.061035,0.061035,-0.122070
1655335625,0.01377869,0.00080872,-0.99789429,0.061035,0.061035,-0.122070
1660437166,0.01405334,0.00036621,-0.99761963,0.061035,0.061035,-0.122070
1665552583,0.01405334,0.00036621,-0.99761963,0.061035,0.122070,-0.183105
1670664125,0.01435852,0.00181580,-0.99795532,0.061035,0.122070,-0.183105
1675693541,0.01435852,0.00181580,-0.99795532,0.244141,0.244141,-0.122070
1680742666,0.01365662,0.00224304,-0.99847412,0.244141,0.244141,-0.122070
1685851875,0.01365662,0.00224304,-0.99847412,0.061035,0.183105,0.000000
1690931625,0.01364136,0.00160217,-0.99819946,0.061035,0.183105,0.000000
1696039958,0.01364136,0.00160217,-0.99819946,0.061035,0.244141,-0.122070
1701191791,0.01560974,0.00173950,-0.99742126,0.061035,0.244141,-0.122070
1706249083,0.01560974,0.00173950,-0.99742126,0.000000,0.183105,-0.183105
1711231791,0.01506042,0.00134277,-0.99804688,0.000000,0.183105,-0.183105
1716341791,0.01506042,0.00134277,-0.99804688,0.183105,0.000000,-0.244141
1721027208,0.01383972,0.00170898,-0.99794006,0.183105,0.000000,-0.244141
1726152000,0.01383972,0.00170898,-0.99794006,0.122070,0.061035,-0.061035
1731278875,0.01440430,0.00218201,-0.99870300,0.122070,0.061035,-0.061035
1736416000,0.01440430,0.00218201,-0.99870300,0.061035,0.000000,0.000000
1741523750,0.01426697,0.00221252,-0.99761963,0.061035,0.000000,0.000000
1746402333,0.01426697,0.00221252,-0.99761963,0.061035,0.061035,-0.061035
1751604791,0.01513672,0.00122070,-0.99763489,0.061035,0.061035,-0.061035
1756795458,0.01513672,0.00122070,-0.99763489,0.000000,0.061035,-0.183105
1761476291,0.01573181,0.00050354,-0.99766541,0.000000,0.061035,-0.183105
1766617583,0.01573181,0.00050354,-0.99766541,0.061035,0.183105,-0.122070
1771489125,0.01622009,0.00051880,-0.99880981,0.061035,0.183105,-0.122070
1776551166,0.01622009,0.00051880,-0.99880981,0.000000,0.183105,-0.305176
1781677583,0.01478577,0.00096130,-0.99827576,0.000000,0.183105,-0.305176
1786944000,0.01478577,0.00096130,-0.99827576,0.000000,0.244141,0.000000
1791780833,0.01376343,0.00099182,-0.99792480,0.000000,0.244141,0.000000
1796802291,0.01376343,0.00099182,-0.99792480,0.061035,0.122070,-0.183105
1801960083,0.01420593,0.00148010,-0.99827576,0.061035,0.122070,-0.183105
1806917208,0.01420593,0.00148010,-0.99827576,0.183105,0.122070,-0.061035
1812046750,0.01470947,0.00170898,-0.99845886,0.183105,0.122070,-0.061035
1814726250,0.01470947,0.00170898,-0.99845886,0.122070,0.122070,-0.122070
1821975125,0.01568604,0.00253296,-0.99787903,0.122070,0.122070,-0.122070
1826738416,0.01568604,0.00253296,-0.99787903,0.061035,0.183105,-0.122070
1831742708,0.01527405,0.00230408,-0.99809265,0.061035,0.183105,-0.122070
1836439458,0.01527405,0.00230408,-0.99809265,0.000000,0.122070,-0.122070
1841551291,0.01490784,0.00163269,-0.99897766,0.000000,0.122070,-0.122070
1846663375,0.01490784,0.00163269,-0.99897766,0.061035,0.244141,-0.061035
1851786541,0.01438904,0.00169373,-0.99922180,0.061035,0.244141,-0.061035
1856680458,0.01438904,0.00169373,-0.99922180,0.122070,0.244141,-0.122070
1861756916,0.01411438,0.00054932,-0.99833679,0.122070,0.244141,-0.122070
1866894375,0.01411438,0.00054932,-0.99833679,0.000000,0.122070,-0.183105
1872037333,0.01428223,-0.00030518,-0.99839783,0.000000,0.122070,-0.183105
1874623416,0.01428223,-0.00030518,-0.99839783,0.061035,0.122070,-0.061035
1879706583,0.01484680,0.00032043,-0.99822998,0.061035,0.122070,-0.061035
1884837875,0.01484680,0.00032043,-0.99822998,0.000000,0.183105,-0.122070
1889955291,0.01463318,0.00053406,-0.99780273,0.000000,0.183105,-0.122070
1895074041,0.01463318,0.00053406,-0.99780273,0.061035,0.122070,-0.183105
1900217083,0.01502991,0.00073242,-0.99879456,0.061035,0.122070,-0.183105
1905336541,0.01502991,0.00073242,-0.99879456,0.122070,0.122070,-0.244141
1910399625,0.01597595,0.00190735,-0.99832153,0.122070,0.122070,-0.244141
1915506250,0.01597595,0.00190735,-0.99832153,0.122070,0.061035,-0.122070
1920242416,0.01618958,0.00134277,-0.99887085,0.122070,0.061035,-0.122070
1925325458,0.01618958,0.00134277,-0.99887085,0.122070,0.122070,-0.183105
1930420750,0.01492310,0.00234985,-0.99774170,0.122070,0.122070,-0.183105
1935576291,0.01492310,0.00234985,-0.99774170,0.061035,0.061035,0.000000
1940167500,0.01483154,0.00276184,-0.99821472,0.061035,0.061035,0.000000
1945273708,0.01483154,0.00276184,-0.99821472,-0.061035,0.061035,0.000000
1950402541,0.01441956,0.00178528,-0.99789429,-0.061035,0.061035,0.000000
1955053291,0.01441956,0.00178528,-0.99789429,0.061035,0.061035,-0.183105
1959981833,0.01472473,0.00201416,-0.99896240,0.061035,0.061035,-0.183105
1965153958,0.01472473,0.00201416,-0.99896240,0.061035,0.122070,-0.183105
1970167333,0.01420593,0.00199890,-0.99870300,0.061035,0.122070,-0.183105
1975291500,0.01420593,0.00199890,-0.99870300,-0.061035,0.122070,-0.183105
1980404250,0.01423645,0.00051880,-0.99771118,-0.061035,0.122070,-0.183105
1985508708,0.01423645,0.00051880,-0.99771118,0.061035,0.122070,-0.061035
1990575708,0.01594543,0.00054932,-0.99737549,0.061035,0.122070,-0.061035
1995674416,0.01594543,0.00054932,-0.99737549,-0.122070,0.061035,-0.122070
2000572416,0.01496887,0.00134277,-0.99774170,-0.122070,0.061035,-0.122070
2005630375,0.01496887,0.00134277,-0.99774170,0.061035,0.183105,-0.122070
2010716958,0.01507568,0.00091553,-0.99763489,0.061035,0.183105,-0.122070
2015506250,0.01507568,0.00091553,-0.99763489,0.000000,0.122070,-0.122070
2020396375,0.01504517,0.00097656,-0.99838257,0.000000,0.122070,-0.122070
2025395875,0.01504517,0.00097656,-0.99838257,0.000000,0.183105,-0.122070
2030532000,0.01625061,0.00120544,-0.99790955,0.000000,0.183105,-0.122070
2035684291,0.01625061,0.00120544,-0.99790955,0.061035,0.122070,-0.061035
2040622166,0.01528931,0.00099182,-0.99766541,0.061035,0.122070,-0.061035
2045758291,0.01528931,0.00099182,-0.99766541,0.122070,0.122070,-0.183105
2050928291,0.01469421,0.00137329,-0.99790955,0.122070,0.122070,-0.183105
2055662625,0.01469421,0.00137329,-0.99790955,-0.061035,0.183105,-0.061035
2060529000,0.01577759,0.00173950,-0.99819946,-0.061035,0.183105,-0.061035
2065631583,0.01577759,0.00173950,-0.99819946,0.000000,0.061035,-0.122070
2070749583,0.01428223,0.00167847,-0.99833679,0.000000,0.061035,-0.122070
2075821083,0.01428223,0.00167847,-0.99833679,0.061035,0.183105,-0.122070
2080696333,0.01441956,0.00189209,-0.99893188,0.061035,0.183105,-0.122070
2085860291,0.01441956,0.00189209,-0.99893188,0.122070,0.183105,-0.122070
2090561083,0.01379395,0.00143433,-0.99981689,0.122070,0.183105,-0.122070
2095783000,0.01379395,0.00143433,-0.99981689,0.000000,0.061035,-0.122070
2100910791,0.01480103,0.00125122,-0.99919128,0.000000,0.061035,-0.122070
2106086916,0.01480103,0.00125122,-0.99919128,0.122070,0.122070,0.000000
2111175416,0.01570129,0.00083923,-0.99781799,0.122070,0.122070,0.000000
2116363375,0.01570129,0.00083923,-0.99781799,0.061035,0.183105,-0.061035
2121553666,0.01538086,0.00027466,-0.99931335,0.061035,0.183105,-0.061035
2126666541,0.01538086,0.00027466,-0.99931335,0.000000,0.122070,-0.183105
2131670875,0.01531982,0.00067139,-0.99819946,0.000000,0.122070,-0.183105
2136809166,0.01531982,0.00067139,-0.99819946,0.061035,0.183105,-0.183105
2141926166,0.01525879,0.00048828,-0.99716187,0.061035,0.183105,-0.183105
2147063750,0.01525879,0.00048828,-0.99716187,0.061035,0.061035,-0.183105
2152012166,0.01519775,0.00079346,-0.99769592,0.061035,0.061035,-0.183105
2157179500,0.01519775,0.00079346,-0.99769592,0.061035,0.244141,-0.183105
2162362208,0.01564026,0.00115967,-0.99812317,0.061035,0.244141,-0.183105
2167502458,0.01564026,0.00115967,-0.99812317,0.122070,0.122070,-0.122070
2172364666,0.01501465,0.00039673,-0.99726868,0.122070,0.122070,-0.122070
2177129625,0.01501465,0.00039673,-0.99726868,0.000000,0.122070,-0.061035
2182305166,0.01438904,0.00088501,-0.99835205,0.000000,0.122070,-0.061035
2187434333,0.01438904,0.00088501,-0.99835205,-0.061035,0.122070,-0.122070
2192287625,0.01510620,0.00190735,-0.99826050,-0.061035,0.122070,-0.122070
2197474375,0.01510620,0.00190735,-0.99826050,0.122070,0.061035,-0.183105
2202681291,0.01582336,0.00195312,-0.99700928,0.122070,0.061035,-0.183105
2207579250,0.01582336,0.00195312,-0.99700928,-0.061035,0.061035,-0.122070
2212758500,0.01478577,0.00125122,-0.99829102,-0.061035,0.061035,-0.122070
2217924750,0.01478577,0.00125122,-0.99829102,0.061035,0.244141,-0.122070
2222863875,0.01435852,0.00199890,-0.99699402,0.061035,0.244141,-0.122070
2227942500,0.01435852,0.00199890,-0.99699402,0.183105,0.183105,-0.061035
2233071541,0.01502991,0.00257874,-0.99792480,0.183105,0.183105,-0.061035
2235668791,0.01502991,0.00257874,-0.99792480,-0.061035,0.122070,-0.122070
2242985208,0.01496887,0.00120544,-0.99899292,-0.061035,0.122070,-0.122070
2247665541,0.01496887,0.00120544,-0.99899292,0.122070,0.183105,-0.183105
2252814875,0.01504517,0.00219727,-0.99839783,0.122070,0.183105,-0.183105
2257508541,0.01504517,0.00219727,-0.99839783,0.000000,0.122070,-0.122070
2262609958,0.01501465,0.00157166,-0.99513245,0.000000,0.122070,-0.122070
2267686750,0.01501465,0.00157166,-0.99513245,0.061035,0.061035,-0.122070
2272352833,0.01477051,0.00041199,-0.99693298,0.061035,0.061035,-0.122070
2277270875,0.01477051,0.00041199,-0.99693298,0.122070,0.122070,-0.122070
2282272875,0.01506042,0.00044250,-0.99952698,0.122070,0.122070,-0.122070
2287052041,0.01506042,0.00044250,-0.99952698,0.122070,0.183105,-0.122070
2291842083,0.01550293,0.00074768,-0.99996948,0.122070,0.183105,-0.122070
2296951000,0.01550293,0.00074768,-0.99996948,0.122070,0.183105,0.000000
2302079666,0.01490784,0.00019836,-0.99755859,0.122070,0.183105,0.000000
2307217958,0.01490784,0.00019836,-0.99755859,-0.061035,0.244141,-0.183105
2312334458,0.01489258,0.00108337,-0.99594116,-0.061035,0.244141,-0.183105
2317489833,0.01489258,0.00108337,-0.99594116,0.061035,0.122070,-0.122070
2322628125,0.01644897,0.00157166,-0.99885559,0.061035,0.122070,-0.122070
2327385541,0.01644897,0.00157166,-0.99885559,0.061035,0.122070,-0.183105
2332516375,0.01596069,0.00146484,-0.99963379,0.061035,0.122070,-0.183105
2337641291,0.01596069,0.00146484,-0.99963379,0.000000,0.061035,-0.061035
2342713541,0.01443481,0.00163269,-0.99824524,0.000000,0.061035,-0.061035
2347849875,0.01443481,0.00163269,-0.99824524,0.000000,0.183105,-0.244141
2352956750,0.01405334,0.00090027,-0.99845886,0.000000,0.183105,-0.244141
2358079791,0.01405334,0.00090027,-0.99845886,-0.061035,0.122070,-0.183105
2363196708,0.01379395,0.00221252,-0.99702454,-0.061035,0.122070,-0.183105
2365753000,0.01379395,0.00221252,-0.99702454,0.183105,0.183105,-0.061035
2370846166,0.01405334,0.00273132,-0.99639893,0.183105,0.183105,-0.061035
2378101583,0.01405334,0.00273132,-0.99639893,0.061035,0.122070,-0.122070
2383264416,0.01437378,0.00248718,-0.99783325,0.061035,0.122070,-0.122070
2385884458,0.01437378,0.00248718,-0.99783325,0.122070,0.061035,-0.061035
2390918958,0.01483154,0.00187683,-0.99858093,0.122070,0.061035,-0.061035
2396055708,0.01483154,0.00187683,-0.99858093,0.061035,0.061035,-0.183105
2400999375,0.01440430,0.00148010,-1.00021362,0.061035,0.061035,-0.183105
2405934041,0.01440430,0.00148010,-1.00021362,0.000000,0.000000,-0.061035
2411024291,0.01538086,0.00065613,-0.99879456,0.000000,0.000000,-0.061035
2416148083,0.01538086,0.00065613,-0.99879456,0.122070,0.061035,-0.122070
2421280541,0.01475525,0.00071716,-0.99772644,0.122070,0.061035,-0.122070
2426391000,0.01475525,0.00071716,-0.99772644,0.122070,0.122070,-0.061035
2431622750,0.01568604,0.00073242,-0.99761963,0.122070,0.122070,-0.061035
2436928041,0.01568604,0.00073242,-0.99761963,-0.061035,0.000000,-0.183105
2442110791,0.01594543,0.00105286,-0.99926758,-0.061035,0.000000,-0.183105
2446797250,0.01594543,0.00105286,-0.99926758,0.000000,0.122070,-0.122070
2451904291,0.01527405,0.00202942,-0.99707031,0.000000,0.122070,-0.122070
2456324041,0.01527405,0.00202942,-0.99707031,0.000000,0.061035,-0.122070
2463496500,0.01536560,0.00183105,-0.99713135,0.000000,0.061035,-0.122070
2466070833,0.01536560,0.00183105,-0.99713135,0.000000,0.122070,-0.183105
2471186666,0.01496887,0.00120544,-0.99816895,0.000000,0.122070,-0.183105
2476283291,0.01496887,0.00120544,-0.99816895,0.061035,0.183105,-0.122070
2481416750,0.01472473,0.00166321,-0.99757385,0.061035,0.183105,-0.122070
2486537583,0.01472473,0.00166321,-0.99757385,0.000000,0.122070,-0.122070
2491658750,0.01515198,0.00111389,-0.99891663,0.000000,0.122070,-0.122070
2496762583,0.01515198,0.00111389,-0.99891663,-0.122070,0.122070,-0.122070
2501834666,0.01577759,0.00170898,-0.99787903,-0.122070,0.122070,-0.122070
2506905333,0.01577759,0.00170898,-0.99787903,0.183105,0.183105,-0.061035
2512063416,0.01538086,0.00202942,-0.99842834,0.183105,0.183105,-0.061035
2517178250,0.01538086,0.00202942,-0.99842834,0.061035,0.183105,-0.183105
2522270625,0.01576233,0.00146484,-0.99871826,0.061035,0.183105,-0.183105
2527351250,0.01576233,0.00146484,-0.99871826,0.000000,0.122070,-0.183105
2532314750,0.01455688,0.00143433,-0.99839783,0.000000,0.122070,-0.183105
2537533333,0.01455688,0.00143433,-0.99839783,0.183105,0.183105,-0.061035
2542704625,0.01445007,0.00201416,-0.99813843,0.183105,0.183105,-0.061035
2547848041,0.01445007,0.00201416,-0.99813843,0.000000,0.244141,-0.244141
2552990666,0.01469421,0.00271606,-0.99781799,0.000000,0.244141,-0.244141
2557801666,0.01469421,0.00271606,-0.99781799,0.000000,0.183105,-0.122070
2562920083,0.01506042,0.00112915,-0.99739075,0.000000,0.183105,-0.122070
2567917916,0.01506042,0.00112915,-0.99739075,0.183105,0.183105,-0.183105
2573062916,0.01539612,0.00099182,-0.99754333,0.183105,0.183105,-0.183105
2578173750,0.01539612,0.00099182,-0.99754333,0.061035,0.061035,0.000000
2583416541,0.01602173,0.00166321,-0.99850464,0.061035,0.061035,0.000000
2588591041,0.01602173,0.00166321,-0.99850464,0.061035,0.061035,-0.122070
2593699708,0.01510620,0.00056458,-0.99702454,0.061035,0.061035,-0.122070
2598847541,0.01510620,0.00056458,-0.99702454,-0.061035,0.305176,-0.061035
2603637666,0.01502991,0.00082397,-0.99645996,-0.061035,0.305176,-0.061035
2608781750,0.01502991,0.00082397,-0.99645996,0.061035,0.244141,-0.183105
2613944791,0.01512146,0.00152588,-0.99723816,0.061035,0.244141,-0.183105
2619131208,0.01512146,0.00152588,-0.99723816,0.122070,0.183105,-0.122070
2623890625,0.01580811,0.00096130,-0.99848938,0.122070,0.183105,-0.122070
2629007000,0.01580811,0.00096130,-0.99848938,0.000000,0.061035,-0.061035
2633752250,0.01571655,0.00062561,-0.99877930,0.000000,0.061035,-0.061035
2638842250,0.01571655,0.00062561,-0.99877930,0.061035,0.183105,-0.122070
2643909916,0.01454163,0.00045776,-0.99795532,0.061035,0.183105,-0.122070
2648622375,0.01454163,0.00045776,-0.99795532,0.122070,0.183105,-0.183105
2653737750,0.01493835,0.00077820,-0.99757385,0.122070,0.183105,-0.183105
2658835875,0.01493835,0.00077820,-0.99757385,0.000000,0.183105,-0.183105
2663654541,0.01483154,0.00088501,-0.99847412,0.000000,0.183105,-0.183105
2668343958,0.01483154,0.00088501,-0.99847412,0.061035,0.061035,-0.183105
2673464583,0.01538086,0.00222778,-0.99810791,0.061035,0.061035,-0.183105
2678569958,0.01538086,0.00222778,-0.99810791,0.000000,0.183105,-0.061035
2683726041,0.01551819,0.00186157,-0.99830627,0.000000,0.183105,-0.061035
2688728583,0.01551819,0.00186157,-0.99830627,0.122070,0.183105,-0.122070
2693839875,0.01490784,0.00093079,-0.99841309,0.122070,0.183105,-0.122070
2698631958,0.01490784,0.00093079,-0.99841309,0.000000,0.183105,-0.061035
2703381333,0.01556396,0.00097656,-0.99784851,0.000000,0.183105,-0.061035
2708485791,0.01556396,0.00097656,-0.99784851,0.061035,0.244141,-0.061035
2713580958,0.01545715,0.00097656,-0.99957275,0.061035,0.244141,-0.061035
2718681208,0.01545715,0.00097656,-0.99957275,0.061035,0.183105,-0.122070
2723751708,0.01422119,0.00051880,-0.99813843,0.061035,0.183105,-0.122070
2728861541,0.01422119,0.00051880,-0.99813843,0.000000,0.244141,-0.183105
2734021583,0.01528931,0.00013733,-0.99818420,0.000000,0.244141,-0.183105
2739227666,0.01528931,0.00013733,-0.99818420,0.122070,0.122070,-0.122070
2741818583,0.01417542,-0.00030518,-0.99739075,0.122070,0.122070,-0.122070
2746937291,0.01417542,-0.00030518,-0.99739075,0.122070,0.061035,-0.061035
2752101208,0.01464844,-0.00010681,-0.99781799,0.122070,0.061035,-0.061035
2757232708,0.01464844,-0.00010681,-0.99781799,0.000000,0.122070,-0.122070
2762399208,0.01506042,0.00143433,-0.99858093,0.000000,0.122070,-0.122070
2767406166,0.01506042,0.00143433,-0.99858093,0.122070,0.183105,-0.122070
2772365958,0.01469421,0.00097656,-0.99761963,0.122070,0.183105,-0.122070
2777515375,0.01469421,0.00097656,-0.99761963,0.122070,0.183105,-0.244141
2782680416,0.01452637,0.00094604,-0.99778748,0.122070,0.183105,-0.244141
2787562416,0.01452637,0.00094604,-0.99778748,0.000000,0.183105,-0.061035
2792652041,0.01473999,0.00099182,-0.99835205,0.000000,0.183105,-0.061035
2797772458,0.01473999,0.00099182,-0.99835205,0.061035,0.122070,-0.183105
2802574583,0.01466370,0.00134277,-0.99816895,0.061035,0.122070,-0.183105
2807641958,0.01466370,0.00134277,-0.99816895,0.061035,0.061035,-0.061035
2812739291,0.01402283,0.00151062,-0.99763489,0.061035,0.061035,-0.061035
2817865458,0.01402283,0.00151062,-0.99763489,0.061035,0.061035,-0.122070
2822724291,0.01536560,0.00238037,-0.99714661,0.061035,0.061035,-0.122070
2827119833,0.01536560,0.00238037,-0.99714661,-0.061035,0.122070,-0.183105
2832047375,0.01423645,0.00306702,-0.99720764,-0.061035,0.122070,-0.183105
2837142375,0.01423645,0.00306702,-0.99720764,0.061035,0.305176,-0.122070
2842207375,0.01470947,0.00225830,-0.99775696,0.061035,0.305176,-0.122070
2847273291,0.01470947,0.00225830,-0.99775696,0.000000,0.244141,-0.122070
2852359083,0.01486206,0.00212097,-0.99829102,0.000000,0.244141,-0.122070
2857430125,0.01486206,0.00212097,-0.99829102,0.000000,0.061035,-0.061035
2862504625,0.01518250,0.00083923,-0.99812317,0.000000,0.061035,-0.061035
2867635041,0.01518250,0.00083923,-0.99812317,0.122070,0.244141,-0.183105
2872356041,0.01417542,0.00090027,-0.99719238,0.122070,0.244141,-0.183105
2877129541,0.01417542,0.00090027,-0.99719238,-0.061035,0.122070,-0.122070
2882270083,0.01435852,0.00126648,-0.99714661,-0.061035,0.122070,-0.122070
2887438583,0.01435852,0.00126648,-0.99714661,0.122070,0.122070,-0.061035
2892560041,0.01414490,0.00064087,-0.99862671,0.122070,0.122070,-0.061035
2897739083,0.01414490,0.00064087,-0.99862671,0.122070,0.244141,-0.122070
2902414916,0.01432800,0.00032043,-0.99705505,0.122070,0.244141,-0.122070
2907447625,0.01432800,0.00032043,-0.99705505,0.122070,0.183105,-0.183105
2912396250,0.01475525,0.00050354,-0.99829102,0.122070,0.183105,-0.183105
2917527916,0.01475525,0.00050354,-0.99829102,0.122070,0.183105,-0.122070
2922665875,0.01483154,0.00038147,-0.99844360,0.122070,0.183105,-0.122070
2927743291,0.01483154,0.00038147,-0.99844360,0.061035,0.183105,-0.183105
2932889250,0.01464844,0.00067139,-0.99795532,0.061035,0.183105,-0.183105
2939960458,0.01464844,0.00067139,-0.99795532,0.000000,0.061035,-0.122070
2945088750,0.01371765,0.00146484,-0.99845886,0.000000,0.061035,-0.122070
2947649750,0.01371765,0.00146484,-0.99845886,0.061035,0.183105,-0.122070
2954620916,0.01472473,0.00170898,-0.99888611,0.061035,0.183105,-0.122070
2959297958,0.01472473,0.00170898,-0.99888611,0.061035,0.122070,0.000000
2964420791,0.01422119,0.00192261,-0.99844360,0.061035,0.122070,0.000000
2969537583,0.01422119,0.00192261,-0.99844360,-0.061035,0.122070,-0.244141
2974638750,0.01390076,0.00248718,-0.99829102,-0.061035,0.122070,-0.244141
2979753750,0.01390076,0.00248718,-0.99829102,0.061035,0.122070,-0.122070
2984873875,0.01498413,0.00178528,-0.99920654,0.061035,0.122070,-0.122070
2989967541,0.01498413,0.00178528,-0.99920654,0.000000,0.061035,-0.305176
2995062625,0.01336670,0.00070190,-1.00006104,0.000000,0.061035,-0.305176
2997646541,0.01336670,0.00070190,-1.00006104,-0.061035,0.000000,-0.183105
3002682708,0.01467896,0.00112915,-0.99757385,-0.061035,0.000000,-0.183105
3010015000,0.01467896,0.00112915,-0.99757385,0.000000,0.000000,-0.183105
3015143875,0.01535034,0.00158691,-0.99806213,0.000000,0.000000,-0.183105
3020133125,0.01535034,0.00158691,-0.99806213,0.122070,0.122070,0.000000
3022735541,0.01429749,0.00138855,-0.99800110,0.122070,0.122070,0.000000
3027842958,0.01429749,0.00138855,-0.99800110,0.000000,0.122070,-0.122070
3032976500,0.01414490,0.00036621,-0.99891663,0.000000,0.122070,-0.122070
3037959375,0.01414490,0.00036621,-0.99891663,0.244141,0.122070,-0.183105
3043065916,0.01470947,0.00065613,-0.99890137,0.244141,0.122070,-0.183105
3048249875,0.01470947,0.00065613,-0.99890137,-0.061035,0.183105,-0.061035
3053394875,0.01486206,0.00073242,-0.99763489,-0.061035,0.183105,-0.061035
3058312708,0.01486206,0.00073242,-0.99763489,0.183105,0.183105,-0.122070
3063308375,0.01446533,-0.00083923,-0.99757385,0.183105,0.183105,-0.122070
3068448708,0.01446533,-0.00083923,-0.99757385,0.061035,0.061035,-0.183105
3073596208,0.01393127,0.00033569,-0.99836731,0.061035,0.061035,-0.183105
3078744791,0.01393127,0.00033569,-0.99836731,0.000000,0.000000,-0.183105
3083927500,0.01441956,0.00054932,-0.99867249,0.000000,0.000000,-0.183105
3089048208,0.01441956,0.00054932,-0.99867249,0.000000,0.000000,-0.122070
3093813583,0.01501465,0.00022888,-0.99905396,0.000000,0.000000,-0.122070
3098948041,0.01501465,0.00022888,-0.99905396,0.122070,0.061035,0.000000
3104094250,0.01525879,0.00039673,-0.99861145,0.122070,0.061035,0.000000
3109227666,0.01525879,0.00039673,-0.99861145,0.122070,0.122070,-0.183105
3114334208,0.01387024,0.00181580,-0.99911499,0.122070,0.122070,-0.183105
3119425291,0.01387024,0.00181580,-0.99911499,0.000000,0.122070,-0.183105
3124500458,0.01544189,0.00239563,-0.99752808,0.000000,0.122070,-0.183105
3129588083,0.01544189,0.00239563,-0.99752808,0.000000,0.183105,-0.244141
3134720875,0.01477051,0.00221252,-0.99708557,0.000000,0.183105,-0.244141
3139399916,0.01477051,0.00221252,-0.99708557,0.122070,0.244141,-0.061035
3144526000,0.01481628,0.00225830,-0.99880981,0.122070,0.244141,-0.061035
3149657791,0.01481628,0.00225830,-0.99880981,0.061035,0.061035,-0.183105
3154332625,0.01440430,0.00259399,-0.99783325,0.061035,0.061035,-0.183105
3159444458,0.01440430,0.00259399,-0.99783325,0.000000,0.244141,-0.061035
3164582333,0.01554871,0.00358582,-0.99719238,0.000000,0.244141,-0.061035
3169339416,0.01554871,0.00358582,-0.99719238,0.122070,0.122070,-0.061035
3174513125,0.01484680,0.00166321,-0.99775696,0.122070,0.122070,-0.061035
3179489541,0.01484680,0.00166321,-0.99775696,0.000000,0.122070,-0.122070
3184663333,0.01432800,0.00045776,-0.99736023,0.000000,0.122070,-0.122070
3189821583,0.01432800,0.00045776,-0.99736023,-0.061035,0.061035,-0.122070
3194953166,0.01502991,-0.00007629,-0.99917603,-0.061035,0.061035,-0.122070
3200066791,0.01502991,-0.00007629,-0.99917603,0.000000,0.061035,-0.244141
3205161833,0.01501465,-0.00025940,-0.99800110,0.000000,0.061035,-0.244141
3210220791,0.01501465,-0.00025940,-0.99800110,0.122070,0.244141,-0.183105
3215380000,0.01559448,0.00097656,-0.99751282,0.122070,0.244141,-0.183105
3217966541,0.01559448,0.00097656,-0.99751282,0.000000,0.000000,-0.061035
3223095625,0.01394653,0.00064087,-0.99743652,0.000000,0.000000,-0.061035
3228194833,0.01394653,0.00064087,-0.99743652,0.061035,0.183105,-0.061035
3233352458,0.01498413,-0.00038147,-0.99787903,0.061035,0.183105,-0.061035
3238483125,0.01498413,-0.00038147,-0.99787903,0.061035,0.122070,0.000000
3243585875,0.01501465,0.00042725,-0.99780273,0.061035,0.122070,0.000000
3248709708,0.01501465,0.00042725,-0.99780273,0.183105,0.183105,-0.183105
3253554541,0.01545715,0.00157166,-0.99766541,0.183105,0.183105,-0.183105
3260284625,0.01545715,0.00157166,-0.99766541,0.000000,0.183105,0.000000
3265420083,0.01473999,0.00230408,-0.99737549,0.000000,0.183105,0.000000
3268087291,0.01473999,0.00230408,-0.99737549,0.122070,0.122070,-0.183105
3275403875,0.01463318,0.00239563,-0.99888611,0.122070,0.122070,-0.183105
3278010166,0.01463318,0.00239563,-0.99888611,0.000000,0.061035,-0.244141
3283092375,0.01568604,0.00244141,-0.99938965,0.000000,0.061035,-0.244141
3288233625,0.01568604,0.00244141,-0.99938965,-0.061035,0.061035,-0.183105
3293369791,0.01443481,0.00213623,-0.99876404,-0.061035,0.061035,-0.183105
3298516875,0.01443481,0.00213623,-0.99876404,0.061035,0.122070,-0.244141
3303666625,0.01475525,0.00192261,-0.99774170,0.061035,0.122070,-0.244141
3308768541,0.01475525,0.00192261,-0.99774170,0.122070,0.122070,-0.122070
3313899333,0.01492310,0.00088501,-0.99813843,0.122070,0.122070,-0.122070
3319074375,0.01492310,0.00088501,-0.99813843,0.000000,0.183105,-0.122070
3324207708,0.01483154,0.00028992,-0.99932861,0.000000,0.183105,-0.122070
3329359125,0.01483154,0.00028992,-0.99932861,0.122070,0.183105,-0.061035
3333984083,0.01403809,0.00123596,-0.99766541,0.122070,0.183105,-0.061035
3339115333,0.01403809,0.00123596,-0.99766541,0.000000,0.244141,-0.183105
3344243916,0.01457214,0.00117493,-0.99679565,0.000000,0.244141,-0.183105
3349414875,0.01457214,0.00117493,-0.99679565,0.122070,0.122070,-0.183105
3354254500,0.01341248,0.00099182,-0.99783325,0.122070,0.122070,-0.183105
3359417416,0.01341248,0.00099182,-0.99783325,0.000000,0.061035,-0.183105
3364594625,0.01408386,0.00099182,-0.99804688,0.000000,0.061035,-0.183105
3369723041,0.01408386,0.00099182,-0.99804688,0.122070,0.122070,-0.122070
3374797583,0.01361084,0.00193787,-0.99761963,0.122070,0.122070,-0.122070
3379922791,0.01361084,0.00193787,-0.99761963,0.122070,0.061035,-0.122070
3385070291,0.01419067,0.00131226,-0.99838257,0.122070,0.061035,-0.122070
3390173875,0.01419067,0.00131226,-0.99838257,0.061035,0.244141,-0.061035
3395306625,0.01551819,0.00050354,-0.99761963,0.061035,0.244141,-0.061035
3400417666,0.01551819,0.00050354,-0.99761963,0.122070,0.183105,-0.183105
3405459083,0.01490784,0.00079346,-0.99731445,0.122070,0.183105,-0.183105
3410459833,0.01490784,0.00079346,-0.99731445,0.061035,0.122070,-0.122070
3415570583,0.01475525,0.00105286,-0.99732971,0.061035,0.122070,-0.122070
3420686375,0.01475525,0.00105286,-0.99732971,0.061035,0.122070,-0.183105
3425792708,0.01560974,0.00228882,-0.99618530,0.061035,0.122070,-0.183105
3430909125,0.01560974,0.00228882,-0.99618530,0.061035,0.122070,-0.122070
3436007375,0.01560974,0.00231934,-0.99736023,0.061035,0.122070,-0.122070
3441104541,0.01560974,0.00231934,-0.99736023,0.061035,0.305176,-0.122070
3443641250,0.01531982,0.00128174,-0.99848938,0.061035,0.305176,-0.122070
3448801791,0.01531982,0.00128174,-0.99848938,0.183105,0.122070,-0.183105
3453886250,0.01597595,0.00099182,-0.99746704,0.183105,0.122070,-0.183105
3458944625,0.01597595,0.00099182,-0.99746704,0.000000,0.244141,-0.122070
3464055541,0.01486206,0.00096130,-0.99836731,0.000000,0.244141,-0.122070
3468939625,0.01486206,0.00096130,-0.99836731,0.122070,0.122070,-0.061035
3474035708,0.01544189,0.00100708,-0.99929810,0.122070,0.122070,-0.061035
3479176083,0.01544189,0.00100708,-0.99929810,0.061035,0.122070,-0.122070
3484310291,0.01452637,0.00099182,-0.99813843,0.061035,0.122070,-0.122070
3489009958,0.01452637,0.00099182,-0.99813843,0.000000,0.183105,-0.061035
3494116750,0.01542664,0.00112915,-0.99800110,0.000000,0.183105,-0.061035
3499214833,0.01542664,0.00112915,-0.99800110,0.000000,0.183105,-0.183105
3504326958,0.01460266,0.00126648,-0.99813843,0.000000,0.183105,-0.183105
3509444208,0.01460266,0.00126648,-0.99813843,0.000000,0.061035,-0.183105
3514634000,0.01460266,0.00128174,-0.99885559,0.000000,0.061035,-0.183105
3519826958,0.01460266,0.00128174,-0.99885559,0.061035,0.183105,-0.122070
3524956458,0.01502991,0.00175476,-0.99835205,0.061035,0.183105,-0.122070
3529413583,0.01502991,0.00175476,-0.99835205,0.183105,0.244141,-0.061035
3534523125,0.01502991,0.00164795,-0.99812317,0.183105,0.244141,-0.061035
3539604916,0.01502991,0.00164795,-0.99812317,0.122070,0.122070,-0.183105
3544675666,0.01535034,0.00057983,-0.99974060,0.122070,0.122070,-0.183105
3549780791,0.01535034,0.00057983,-0.99974060,0.061035,0.122070,-0.183105
3554883375,0.01455688,0.00070190,-0.99832153,0.061035,0.122070,-0.183105
3559630375,0.01455688,0.00070190,-0.99832153,0.122070,0.244141,0.000000
3564763000,0.01531982,0.00090027,-0.99821472,0.122070,0.244141,0.000000
3569859083,0.01531982,0.00090027,-0.99821472,0.061035,0.122070,0.000000
3574885291,0.01437378,0.00082397,-0.99806213,0.061035,0.122070,0.000000
3580039166,0.01437378,0.00082397,-0.99806213,0.122070,0.122070,-0.061035
3585060166,0.01423645,0.00119019,-0.99790955,0.122070,0.122070,-0.061035
3590202208,0.01423645,0.00119019,-0.99790955,0.122070,0.122070,-0.122070
3595303458,0.01426697,0.00041199,-0.99842834,0.122070,0.122070,-0.122070
3600452666,0.01426697,0.00041199,-0.99842834,-0.061035,0.122070,-0.122070
3605580750,0.01446533,0.00061035,-0.99884033,-0.061035,0.122070,-0.122070
3610673208,0.01446533,0.00061035,-0.99884033,0.000000,0.122070,-0.122070
3615787541,0.01483154,0.00094604,-0.99789429,0.000000,0.122070,-0.122070
3620890416,0.01483154,0.00094604,-0.99789429,0.061035,0.122070,-0.122070
3625974875,0.01394653,0.00120544,-0.99746704,0.061035,0.122070,-0.122070
3631090333,0.01394653,0.00120544,-0.99746704,0.061035,0.061035,-0.122070
3636271541,0.01458740,0.00074768,-0.99734497,0.061035,0.061035,-0.122070
3641416208,0.01458740,0.00074768,-0.99734497,0.061035,0.061035,-0.122070
3646377083,0.01480103,0.00152588,-0.99729919,0.061035,0.061035,-0.122070
3648988541,0.01480103,0.00152588,-0.99729919,0.061035,0.183105,-0.061035
3656514333,0.01440430,0.00205994,-0.99822998,0.061035,0.183105,-0.061035
3659099458,0.01440430,0.00205994,-0.99822998,0.000000,0.183105,-0.122070
3664183583,0.01411438,0.00160217,-0.99812317,0.000000,0.183105,-0.122070
3669312791,0.01411438,0.00160217,-0.99812317,0.061035,0.122070,-0.122070
3674407000,0.01519775,0.00085449,-0.99853516,0.061035,0.122070,-0.122070
3679505375,0.01519775,0.00085449,-0.99853516,0.122070,0.061035,-0.183105
3684599291,0.01675415,0.00051880,-0.99826050,0.122070,0.061035,-0.183105
3689265083,0.01675415,0.00051880,-0.99826050,0.000000,0.122070,-0.183105
3694334833,0.01541138,0.00042725,-0.99845886,0.000000,0.122070,-0.183105
3699437166,0.01541138,0.00042725,-0.99845886,0.122070,0.122070,-0.183105
3704288958,0.01579285,0.00148010,-0.99894714,0.122070,0.122070,-0.183105
3709343291,0.01579285,0.00148010,-0.99894714,0.000000,0.122070,-0.244141
3714412208,0.01568604,0.00149536,-0.99784851,0.000000,0.122070,-0.244141
3719500291,0.01568604,0.00149536,-0.99784851,0.061035,0.122070,-0.122070
3724563791,0.01582336,0.00161743,-0.99714661,0.061035,0.122070,-0.122070
3729646166,0.01582336,0.00161743,-0.99714661,0.122070,0.122070,-0.122070
3734764791,0.01536560,0.00070190,-0.99795532,0.122070,0.122070,-0.122070
3739877166,0.01536560,0.00070190,-0.99795532,0.061035,0.183105,-0.122070
3744968208,0.01524353,0.00120544,-0.99877930,0.061035,0.183105,-0.122070
3749869333,0.01524353,0.00120544,-0.99877930,0.000000,0.183105,-0.122070
3754898666,0.01449585,0.00204468,-0.99684143,0.000000,0.183105,-0.122070
3759997208,0.01449585,0.00204468,-0.99684143,0.061035,0.122070,-0.061035
3765112375,0.01411438,0.00154114,-0.99803162,0.061035,0.122070,-0.061035
3769884041,0.01411438,0.00154114,-0.99803162,0.061035,0.122070,-0.122070
3775005625,0.01425171,0.00172424,-0.99795532,0.061035,0.122070,-0.122070
3780098041,0.01425171,0.00172424,-0.99795532,0.000000,0.183105,-0.061035
3785238458,0.01477051,0.00070190,-0.99737549,0.000000,0.183105,-0.061035
3790352083,0.01477051,0.00070190,-0.99737549,0.183105,0.183105,-0.061035
3795498541,0.01530457,0.00149536,-0.99745178,0.183105,0.183105,-0.061035
3800664083,0.01530457,0.00149536,-0.99745178,-0.061035,0.122070,-0.122070
3805781291,0.01409912,0.00177002,-0.99789429,-0.061035,0.122070,-0.122070
3810872458,0.01409912,0.00177002,-0.99789429,0.000000,0.183105,-0.122070
3815994250,0.01530457,0.00093079,-0.99855042,0.000000,0.183105,-0.122070
3820833291,0.01530457,0.00093079,-0.99855042,0.061035,0.183105,-0.183105
3825933333,0.01577759,0.00093079,-0.99829102,0.061035,0.183105,-0.183105
3831056833,0.01577759,0.00093079,-0.99829102,0.061035,0.183105,-0.061035
3835747791,0.01605225,0.00028992,-0.99845886,0.061035,0.183105,-0.061035
3840870166,0.01605225,0.00028992,-0.99845886,0.000000,0.183105,-0.122070
3845969416,0.01454163,0.00007629,-0.99798584,0.000000,0.183105,-0.122070
3851098833,0.01454163,0.00007629,-0.99798584,0.000000,0.244141,-0.061035
3856231208,0.01446533,0.00022888,-0.99848938,0.000000,0.244141,-0.061035
3860466166,0.01446533,0.00022888,-0.99848938,0.183105,0.061035,-0.244141
3865600000,0.01486206,0.00111389,-0.99822998,0.183105,0.061035,-0.244141
3870731125,0.01486206,0.00111389,-0.99822998,0.061035,0.122070,-0.183105
3875829541,0.01477051,0.00241089,-0.99678040,0.061035,0.122070,-0.183105
3880938250,0.01477051,0.00241089,-0.99678040,0.000000,0.122070,-0.122070
3886064458,0.01515198,0.00151062,-0.99832153,0.000000,0.122070,-0.122070
3891143375,0.01515198,0.00151062,-0.99832153,-0.061035,0.061035,-0.122070
3895851333,0.01548767,0.00158691,-0.99887085,-0.061035,0.061035,-0.122070
3900992333,0.01548767,0.00158691,-0.99887085,0.122070,0.244141,0.000000
3906122583,0.01480103,0.00273132,-0.99787903,0.122070,0.244141,0.000000
3911196291,0.01480103,0.00273132,-0.99787903,0.061035,0.061035,-0.244141
3916218583,0.01493835,0.00167847,-0.99797058,0.061035,0.061035,-0.244141
3921342875,0.01493835,0.00167847,-0.99797058,0.183105,0.122070,-0.183105
3926435083,0.01509094,0.00109863,-0.99751282,0.183105,0.122070,-0.183105
3931553166,0.01509094,0.00109863,-0.99751282,0.305176,0.122070,-0.122070
3936667333,0.01466370,0.00265503,-0.99494934,0.305176,0.122070,-0.122070
3941665958,0.01466370,0.00265503,-0.99494934,1.037598,-0.427246,-0.122070
3946801291,0.01496887,0.00222778,-0.99871826,1.037598,-0.427246,-0.122070
3951661416,0.01496887,0.00222778,-0.99871826,-0.061035,0.244141,-0.122070
3956740416,0.01402283,0.00175476,-0.98887634,-0.061035,0.244141,-0.122070
3961862125,0.01402283,0.00175476,-0.98887634,0.244141,0.244141,-0.183105
3967061750,0.01339722,0.00122070,-1.01039124,0.244141,0.244141,-0.183105
3969671375,0.01339722,0.00122070,-1.01039124,0.122070,0.244141,-0.061035
3974776000,0.01492310,0.00164795,-0.99392700,0.122070,0.244141,-0.061035
3979907666,0.01492310,0.00164795,-0.99392700,0.061035,0.183105,-0.244141
3984973958,0.01469421,0.00122070,-1.00387573,0.061035,0.183105,-0.244141
3990067125,0.01469421,0.00122070,-1.00387573,0.000000,0.122070,-0.061035
3995148833,0.01464844,0.00039673,-0.99859619,0.000000,0.122070,-0.061035
4000294541,0.01464844,0.00039673,-0.99859619,0.061035,0.122070,-0.122070
4005387625,0.01530457,-0.00054932,-0.99981689,0.061035,0.122070,-0.122070
4010148916,0.01530457,-0.00054932,-0.99981689,0.061035,0.305176,-0.122070
4014959166,0.01451111,0.00056458,-0.99873352,0.061035,0.305176,-0.122070
4020045416,0.01451111,0.00056458,-0.99873352,-0.122070,0.244141,-0.061035
4025107833,0.01431274,-0.00028992,-0.99749756,-0.122070,0.244141,-0.061035
4030219000,0.01431274,-0.00028992,-0.99749756,-0.122070,0.244141,-0.183105
4035345458,0.01489258,0.00062561,-0.99792480,-0.122070,0.244141,-0.183105
4040455458,0.01489258,0.00062561,-0.99792480,0.000000,0.122070,-0.183105
4045546125,0.01593018,0.00131226,-0.99772644,0.000000,0.122070,-0.183105
4050701333,0.01593018,0.00131226,-0.99772644,0.122070,0.122070,-0.061035
4055691041,0.01507568,0.00064087,-0.99653625,0.122070,0.122070,-0.061035
4060464625,0.01507568,0.00064087,-0.99653625,0.610352,-0.305176,-0.061035
4065506833,0.01513672,0.00128174,-0.99604797,0.610352,-0.305176,-0.061035
4070379708,0.01513672,0.00128174,-0.99604797,0.122070,0.244141,-0.122070
4075095000,0.01513672,0.00003052,-0.99819946,0.122070,0.244141,-0.122070
4080191541,0.01513672,0.00003052,-0.99819946,0.061035,0.305176,-0.183105
4087129750,0.01440430,-0.00028992,-0.99980164,0.061035,0.305176,-0.183105
4091875458,0.01440430,-0.00028992,-0.99980164,0.122070,0.244141,-0.061035
4097035625,0.01382446,0.00102234,-0.99661255,0.122070,0.244141,-0.061035
4102190083,0.01382446,0.00102234,-0.99661255,0.061035,0.061035,-0.061035
4107329458,0.01329041,0.00196838,-0.99804688,0.061035,0.061035,-0.061035
4112427000,0.01329041,0.00196838,-0.99804688,0.061035,0.061035,-0.122070
4117343750,0.01412964,0.00248718,-0.99836731,0.061035,0.061035,-0.122070
4122471250,0.01412964,0.00248718,-0.99836731,0.000000,0.122070,-0.122070
4127608250,0.01556396,0.00340271,-0.99726868,0.000000,0.122070,-0.122070
4130210333,0.01556396,0.00340271,-0.99726868,0.122070,0.122070,-0.122070
4137556166,0.01499939,0.00349426,-0.99876404,0.122070,0.122070,-0.122070
4142559083,0.01499939,0.00349426,-0.99876404,0.183105,0.122070,-0.183105
4145115625,0.01521301,0.00286865,-0.99790955,0.183105,0.122070,-0.183105
4152433041,0.01521301,0.00286865,-0.99790955,-0.061035,0.000000,-0.061035
4157154458,0.01589966,0.00247192,-0.99932861,-0.061035,0.000000,-0.061035
4162188833,0.01589966,0.00247192,-0.99932861,0.000000,0.183105,0.000000
4167333666,0.01496887,0.00103760,-1.00018311,0.000000,0.183105,0.000000
4172401708,0.01496887,0.00103760,-1.00018311,0.122070,0.122070,-0.061035
4177486333,0.01451111,-0.00044250,-0.99871826,0.122070,0.122070,-0.061035
4182616541,0.01451111,-0.00044250,-0.99871826,-0.061035,0.061035,-0.122070
4187521958,0.01423645,0.00061035,-0.99734497,-0.061035,0.061035,-0.122070
4192261166,0.01423645,0.00061035,-0.99734497,0.061035,0.244141,-0.061035
4197375250,0.01377869,0.00012207,-0.99740601,0.061035,0.244141,-0.061035
4202484000,0.01377869,0.00012207,-0.99740601,0.122070,0.244141,-0.122070
4207560208,0.01416016,0.00044250,-0.99845886,0.122070,0.244141,-0.122070
4212646458,0.01416016,0.00044250,-0.99845886,0.000000,0.183105,-0.122070
4217782583,0.01405334,0.00073242,-0.99743652,0.000000,0.183105,-0.122070
4222408583,0.01405334,0.00073242,-0.99743652,-0.061035,0.183105,-0.183105
4227462500,0.01489258,0.00132751,-0.99847412,-0.061035,0.183105,-0.183105
4232345166,0.01489258,0.00132751,-0.99847412,0.000000,0.183105,-0.061035
4237408041,0.01452637,0.00204468,-0.99768066,0.000000,0.183105,-0.061035
4242506958,0.01452637,0.00204468,-0.99768066,0.122070,0.122070,-0.122070
4247614125,0.01403809,0.00140381,-0.99838257,0.122070,0.122070,-0.122070
4252588875,0.01403809,0.00140381,-0.99838257,0.061035,0.244141,-0.061035
4257702333,0.01466370,0.00115967,-0.99798584,0.061035,0.244141,-0.061035
4262825041,0.01466370,0.00115967,-0.99798584,0.000000,0.122070,-0.122070
4267950375,0.01434326,0.00224304,-0.99676514,0.000000,0.122070,-0.122070
4272342958,0.01434326,0.00224304,-0.99676514,0.000000,0.061035,-0.122070
4277445708,0.01460266,0.00143433,-0.99864197,0.000000,0.061035,-0.122070
4282555416,0.01460266,0.00143433,-0.99864197,0.122070,0.183105,-0.122070
4287503666,0.01530457,0.00112915,-0.99798584,0.122070,0.183105,-0.122070
4292624083,0.01530457,0.00112915,-0.99798584,0.183105,0.183105,-0.122070
4297788083,0.01388550,0.00112915,-0.99642944,0.183105,0.183105,-0.122070
4302431875,0.01388550,0.00112915,-0.99642944,0.061035,0.122070,-0.122070
4307540708,0.01527405,-0.00007629,-0.99736023,0.061035,0.122070,-0.122070
4312659166,0.01527405,-0.00007629,-0.99736023,0.183105,0.122070,-0.122070
4317483958,0.01484680,0.00000000,-0.99729919,0.183105,0.122070,-0.122070
4322596708,0.01484680,0.00000000,-0.99729919,0.061035,0.061035,-0.183105
4327653041,0.01509094,0.00030518,-0.99731445,0.061035,0.061035,-0.183105
4332776583,0.01509094,0.00030518,-0.99731445,0.061035,0.061035,-0.122070
4337919625,0.01403809,0.00013733,-0.99851990,0.061035,0.061035,-0.122070
4342735666,0.01403809,0.00013733,-0.99851990,0.122070,0.183105,-0.122070
4347849375,0.01397705,0.00097656,-0.99795532,0.122070,0.183105,-0.122070
4352965166,0.01397705,0.00097656,-0.99795532,0.061035,0.244141,-0.061035
4358049625,0.01522827,0.00152588,-0.99803162,0.061035,0.244141,-0.061035
4362733541,0.01522827,0.00152588,-0.99803162,0.061035,0.244141,-0.122070
4367907416,0.01509094,0.00209045,-0.99829102,0.061035,0.244141,-0.122070
4372903750,0.01509094,0.00209045,-0.99829102,0.000000,0.122070,-0.183105
4378045166,0.01576233,0.00199890,-0.99781799,0.000000,0.122070,-0.183105
4383202916,0.01576233,0.00199890,-0.99781799,0.061035,0.122070,-0.183105
4388343166,0.01515198,0.00164795,-0.99851990,0.061035,0.122070,-0.183105
4390929166,0.01515198,0.00164795,-0.99851990,0.122070,0.183105,-0.061035
4398084000,0.01405334,0.00222778,-0.99853516,0.122070,0.183105,-0.061035
4403158333,0.01405334,0.00222778,-0.99853516,0.000000,0.061035,-0.244141
4407924583,0.01446533,0.00189209,-0.99824524,0.000000,0.061035,-0.244141
4412999500,0.01446533,0.00189209,-0.99824524,0.000000,0.061035,-0.061035
4417844708,0.01506042,0.00135803,-0.99813843,0.000000,0.061035,-0.061035
4422917500,0.01506042,0.00135803,-0.99813843,0.122070,0.122070,0.000000
4427976500,0.01499939,0.00102234,-0.99906921,0.122070,0.122070,0.000000
4433047166,0.01499939,0.00102234,-0.99906921,0.061035,0.061035,-0.183105
4438164583,0.01519775,0.00003052,-0.99723816,0.061035,0.061035,-0.183105
4443274375,0.01519775,0.00003052,-0.99723816,0.061035,0.061035,-0.183105
4448399000,0.01525879,0.00028992,-0.99676514,0.061035,0.061035,-0.183105
4453366875,0.01525879,0.00028992,-0.99676514,0.000000,0.000000,-0.183105
4458203333,0.01490784,0.00042725,-0.99792480,0.000000,0.000000,-0.183105
4463027875,0.01490784,0.00042725,-0.99792480,0.122070,0.122070,-0.183105
4468184333,0.01591492,-0.00001526,-0.99861145,0.122070,0.122070,-0.183105
4473061833,0.01591492,-0.00001526,-0.99861145,0.183105,0.183105,-0.122070
4478197750,0.01585388,0.00128174,-0.99919128,0.183105,0.183105,-0.122070
4483398833,0.01585388,0.00128174,-0.99919128,0.183105,0.000000,-0.122070
4488587208,0.01388550,0.00076294,-0.99780273,0.183105,0.000000,-0.122070
4491170125,0.01388550,0.00076294,-0.99780273,0.000000,0.122070,-0.122070
4497881208,0.01492310,0.00100708,-0.99806213,0.000000,0.122070,-0.122070
4502591875,0.01492310,0.00100708,-0.99806213,0.061035,0.122070,0.000000
4507453125,0.01492310,0.00209045,-0.99765015,0.061035,0.122070,0.000000
4512571791,0.01492310,0.00209045,-0.99765015,0.061035,0.183105,-0.061035
4517308666,0.01541138,0.00207520,-0.99722290,0.061035,0.183105,-0.061035
4522443416,0.01541138,0.00207520,-0.99722290,-0.061035,0.061035,-0.183105
4527539333,0.01411438,0.00212097,-0.99801636,-0.061035,0.061035,-0.183105
4532661666,0.01411438,0.00212097,-0.99801636,0.122070,0.000000,-0.061035
4537738583,0.01542664,0.00190735,-0.99752808,0.122070,0.000000,-0.061035
4542794541,0.01542664,0.00190735,-0.99752808,0.427246,0.061035,-0.183105
4547897291,0.01544189,0.00201416,-0.99510193,0.427246,0.061035,-0.183105
4552989708,0.01544189,0.00201416,-0.99510193,0.976562,-0.549316,-0.122070
4558038500,0.01458740,0.00170898,-0.99758911,0.976562,-0.549316,-0.122070
4563138041,0.01458740,0.00170898,-0.99758911,0.061035,0.183105,-0.122070
4568241541,0.01521301,0.00305176,-0.98844910,0.061035,0.183105,-0.122070
4573358458,0.01521301,0.00305176,-0.98844910,0.244141,0.427246,0.000000
4578460625,0.01441956,0.00309753,-1.00891113,0.244141,0.427246,0.000000
4583638541,0.01441956,0.00309753,-1.00891113,-0.122070,0.244141,0.000000
4588574416,0.01385498,0.00154114,-0.99421692,-0.122070,0.244141,0.000000
4593689208,0.01385498,0.00154114,-0.99421692,0.061035,0.061035,-0.122070
4598869541,0.01414490,0.00042725,-1.00456238,0.061035,0.061035,-0.122070
4603708458,0.01414490,0.00042725,-1.00456238,0.061035,0.183105,-0.061035
4608388791,0.01481628,-0.00010681,-0.99977112,0.061035,0.183105,-0.061035
4613503625,0.01481628,-0.00010681,-0.99977112,-0.061035,0.183105,-0.122070
4618163500,0.01567078,-0.00193787,-1.00024414,-0.061035,0.183105,-0.122070
4623260375,0.01567078,-0.00193787,-1.00024414,0.061035,0.244141,-0.183105
4628373875,0.01498413,-0.00123596,-1.00044250,0.061035,0.244141,-0.183105
4633564041,0.01498413,-0.00123596,-1.00044250,-0.122070,0.183105,-0.183105
4638489166,0.01408386,-0.00091553,-0.99719238,-0.122070,0.183105,-0.183105
4643600291,0.01408386,-0.00091553,-0.99719238,0.000000,0.183105,-0.122070
4648707250,0.01470947,-0.00083923,-0.99613953,0.000000,0.183105,-0.122070
4653632291,0.01470947,-0.00083923,-0.99613953,-0.122070,0.183105,-0.183105
4658718750,0.01490784,-0.00024414,-0.99766541,-0.122070,0.183105,-0.183105
4663516416,0.01490784,-0.00024414,-0.99766541,0.610352,-0.366211,-0.244141
4668300875,0.01452637,0.00086975,-0.99566650,0.610352,-0.366211,-0.244141
4673031041,0.01452637,0.00086975,-0.99566650,0.244141,0.183105,-0.122070
4677470250,0.01599121,0.00080872,-0.99600220,0.244141,0.183105,-0.122070
4682614291,0.01599121,0.00080872,-0.99600220,0.244141,0.244141,-0.183105
4687781000,0.01434326,0.00164795,-1.00175476,0.244141,0.244141,-0.183105
4692913458,0.01434326,0.00164795,-1.00175476,0.122070,0.061035,0.000000
4698072041,0.01388550,0.00131226,-0.99424744,0.122070,0.061035,0.000000
4703026583,0.01388550,0.00131226,-0.99424744,0.061035,0.000000,-0.122070
4708128375,0.01350403,0.00141907,-0.99960327,0.061035,0.000000,-0.122070
4712870583,0.01350403,0.00141907,-0.99960327,0.183105,0.000000,-0.061035
4718020208,0.01423645,0.00149536,-0.99822998,0.183105,0.000000,-0.061035
4723154166,0.01423645,0.00149536,-0.99822998,0.061035,0.061035,-0.061035
4728269916,0.01402283,0.00297546,-0.99795532,0.061035,0.061035,-0.061035
4733430375,0.01402283,0.00297546,-0.99795532,0.061035,0.122070,-0.183105
4738573958,0.01478577,0.00347900,-0.99775696,0.061035,0.122070,-0.183105
4743305833,0.01478577,0.00347900,-0.99775696,0.183105,0.122070,-0.061035
4748061208,0.01518250,0.00186157,-0.99699402,0.183105,0.122070,-0.061035
4753167500,0.01518250,0.00186157,-0.99699402,0.183105,0.122070,-0.061035
4757863875,0.01527405,0.00241089,-0.99865723,0.183105,0.122070,-0.061035
4762478416,0.01527405,0.00241089,-0.99865723,0.061035,0.122070,-0.061035
4767594333,0.01528931,0.00219727,-0.99874878,0.061035,0.122070,-0.061035
4772493708,0.01528931,0.00219727,-0.99874878,0.122070,0.244141,-0.122070
4777669291,0.01457214,0.00157166,-1.00010681,0.122070,0.244141,-0.122070
4782855333,0.01457214,0.00157166,-1.00010681,0.122070,0.122070,-0.122070
4787892500,0.01493835,0.00114441,-0.99989319,0.122070,0.122070,-0.122070
4793024125,0.01493835,0.00114441,-0.99989319,0.000000,0.061035,-0.122070
4798034500,0.01420593,0.00100708,-0.99868774,0.000000,0.061035,-0.122070
4802682458,0.01420593,0.00100708,-0.99868774,0.122070,0.000000,-0.122070
4807753250,0.01423645,0.00006104,-0.99844360,0.122070,0.000000,-0.122070
4812461750,0.01423645,0.00006104,-0.99844360,0.122070,0.183105,-0.122070
4817563291,0.01489258,-0.00044250,-0.99725342,0.122070,0.183105,-0.122070
4822653666,0.01489258,-0.00044250,-0.99725342,0.000000,0.061035,-0.183105
4827719750,0.01470947,-0.00006104,-0.99714661,0.000000,0.061035,-0.183105
4832837166,0.01470947,-0.00006104,-0.99714661,0.061035,0.122070,-0.061035
4837928416,0.01480103,-0.00015259,-0.99707031,0.061035,0.122070,-0.061035
4842723208,0.01480103,-0.00015259,-0.99707031,0.061035,0.183105,-0.061035
4847857416,0.01525879,0.00041199,-0.99798584,0.061035,0.183105,-0.061035
4852796791,0.01525879,0.00041199,-0.99798584,0.061035,0.244141,-0.122070
4857693958,0.01446533,0.00195312,-0.99877930,0.061035,0.244141,-0.122070
4862801875,0.01446533,0.00195312,-0.99877930,0.122070,0.061035,-0.122070
4867945208,0.01402283,0.00123596,-0.99861145,0.122070,0.061035,-0.122070
4872907125,0.01402283,0.00123596,-0.99861145,0.000000,0.122070,-0.122070
4877997250,0.01441956,0.00164795,-0.99868774,0.000000,0.122070,-0.122070
4883134541,0.01441956,0.00164795,-0.99868774,0.000000,0.122070,-0.122070
4888248500,0.01309204,0.00172424,-0.99807739,0.000000,0.122070,-0.122070
4892871666,0.01309204,0.00172424,-0.99807739,0.061035,0.244141,0.061035
4897834916,0.01455688,0.00099182,-0.99821472,0.061035,0.244141,0.061035
4902584083,0.01455688,0.00099182,-0.99821472,0.061035,0.122070,-0.122070
4907699916,0.01470947,0.00146484,-0.99838257,0.061035,0.122070,-0.122070
4912817750,0.01470947,0.00146484,-0.99838257,0.000000,0.000000,-0.183105
4917993750,0.01483154,0.00137329,-0.99818420,0.000000,0.000000,-0.183105
4923070708,0.01483154,0.00137329,-0.99818420,0.061035,0.000000,-0.061035
4928065500,0.01528931,0.00080872,-0.99691772,0.061035,0.000000,-0.061035
4933216125,0.01528931,0.00080872,-0.99691772,0.122070,0.061035,-0.183105
4937927083,0.01454163,0.00050354,-0.99835205,0.122070,0.061035,-0.183105
4943005166,0.01454163,0.00050354,-0.99835205,0.061035,0.122070,-0.061035
4947740750,0.01498413,0.00122070,-0.99780273,0.061035,0.122070,-0.061035
4952677041,0.01498413,0.00122070,-0.99780273,0.183105,0.000000,-0.061035
4957744333,0.01486206,0.00094604,-0.99745178,0.183105,0.000000,-0.061035
4962836875,0.01486206,0.00094604,-0.99745178,0.061035,0.061035,-0.122070
4968034375,0.01510620,0.00090027,-0.99819946,0.061035,0.061035,-0.122070
4972740833,0.01510620,0.00090027,-0.99819946,0.122070,0.244141,-0.061035
4977828708,0.01464844,0.00120544,-0.99810791,0.122070,0.244141,-0.061035
4982946958,0.01464844,0.00120544,-0.99810791,0.244141,0.122070,-0.183105
4988082375,0.01481628,0.00167847,-0.99781799,0.244141,0.122070,-0.183105
4993175291,0.01481628,0.00167847,-0.99781799,-0.061035,0.122070,-0.244141
4998285375,0.01499939,0.00289917,-0.99812317,-0.061035,0.122070,-0.244141
5003051458,0.01499939,0.00289917,-0.99812317,0.000000,0.122070,-0.183105
5008152208,0.01380920,0.00148010,-0.99851990,0.000000,0.122070,-0.183105
5013252000,0.01380920,0.00148010,-0.99851990,-0.061035,0.183105,-0.122070
5018085250,0.01513672,0.00141907,-0.99806213,-0.061035,0.183105,-0.122070
5023195333,0.01513672,0.00141907,-0.99806213,0.000000,0.000000,-0.122070
5028289541,0.01495361,0.00202942,-0.99795532,0.000000,0.000000,-0.122070
5033403083,0.01495361,0.00202942,-0.99795532,0.122070,0.305176,-0.122070
5038647833,0.01484680,0.00163269,-0.99781799,0.122070,0.305176,-0.122070
5043761625,0.01484680,0.00163269,-0.99781799,0.122070,0.244141,-0.061035
5048914416,0.01515198,0.00123596,-0.99746704,0.122070,0.244141,-0.061035
5054040625,0.01515198,0.00123596,-0.99746704,-0.061035,0.183105,-0.122070
5059143333,0.01492310,0.00048828,-0.99845886,-0.061035,0.183105,-0.122070
5064287875,0.01492310,0.00048828,-0.99845886,0.122070,0.122070,-0.061035
5069411416,0.01454163,0.00021362,-0.99760437,0.122070,0.122070,-0.061035
5074323833,0.01454163,0.00021362,-0.99760437,0.122070,0.183105,0.000000
5079456000,0.01358032,0.00053406,-0.99765015,0.122070,0.183105,0.000000
5084708791,0.01358032,0.00053406,-0.99765015,0.122070,0.305176,-0.061035
5089831625,0.01396179,0.00067139,-0.99856567,0.122070,0.305176,-0.061035
5095087125,0.01396179,0.00067139,-0.99856567,0.061035,0.183105,-0.061035
5097701708,0.01416016,0.00100708,-0.99786377,0.061035,0.183105,-0.061035
5102767958,0.01416016,0.00100708,-0.99786377,0.244141,0.122070,-0.061035
5107914708,0.01443481,0.00111389,-0.99752808,0.244141,0.122070,-0.061035
5113002083,0.01443481,0.00111389,-0.99752808,0.061035,0.000000,-0.122070
5118138625,0.01484680,0.00132751,-0.99856567,0.061035,0.000000,-0.122070
5122790958,0.01484680,0.00132751,-0.99856567,0.122070,0.183105,-0.183105
5127940208,0.01470947,0.00083923,-0.99876404,0.122070,0.183105,-0.183105
5133199500,0.01470947,0.00083923,-0.99876404,0.244141,-0.061035,-0.061035
5138245791,0.01496887,0.00158691,-0.99685669,0.244141,-0.061035,-0.061035
5143401041,0.01496887,0.00158691,-0.99685669,0.183105,0.061035,-0.061035
5148337750,0.01565552,0.00236511,-0.99237061,0.183105,0.061035,-0.061035
5153319166,0.01565552,0.00236511,-0.99237061,0.671387,-0.366211,-0.183105
5158462833,0.01467896,0.00244141,-1.00108337,0.671387,-0.366211,-0.183105
5163589083,0.01467896,0.00244141,-1.00108337,-0.061035,0.000000,-0.122070
5168284916,0.01457214,0.00239563,-0.98915100,-0.061035,0.000000,-0.122070
5173388083,0.01457214,0.00239563,-0.98915100,0.183105,0.305176,-0.183105
5178541583,0.01399231,0.00283813,-1.01152039,0.183105,0.305176,-0.183105
5183580625,0.01399231,0.00283813,-1.01152039,-0.061035,0.183105,-0.061035
5188675625,0.01354980,0.00280762,-0.99499512,-0.061035,0.183105,-0.061035
5193753250,0.01354980,0.00280762,-0.99499512,0.122070,0.183105,0.000000
5198891250,0.01524353,0.00198364,-1.00273132,0.122070,0.183105,0.000000
5204008250,0.01524353,0.00198364,-1.00273132,-0.122070,0.061035,0.000000
5208646041,0.01672363,0.00000000,-0.99961853,-0.122070,0.061035,0.000000
5213806666,0.01672363,0.00000000,-0.99961853,-0.122070,0.061035,-0.244141
5218932416,0.01715088,-0.00119019,-0.99911499,-0.122070,0.061035,-0.244141
5224056083,0.01715088,-0.00119019,-0.99911499,-0.183105,0.244141,-0.122070
5229152041,0.01654053,-0.00064087,-0.99934387,-0.183105,0.244141,-0.122070
5233848458,0.01654053,-0.00064087,-0.99934387,0.000000,0.366211,0.000000
5238965916,0.01490784,0.00000000,-0.99752808,0.000000,0.366211,0.000000
5244126958,0.01490784,0.00000000,-0.99752808,0.061035,0.122070,-0.122070
5249288083,0.01521301,-0.00018311,-0.99697876,0.061035,0.122070,-0.122070
5254439291,0.01521301,-0.00018311,-0.99697876,0.122070,0.000000,-0.122070
5259596208,0.01499939,-0.00053406,-0.99774170,0.122070,0.000000,-0.122070
5264716416,0.01499939,-0.00053406,-0.99774170,-0.427246,0.427246,-0.122070
5269793958,0.01509094,-0.00071716,-0.99429321,-0.427246,0.427246,-0.122070
5274881875,0.01509094,-0.00071716,-0.99429321,0.122070,0.061035,-0.244141
5279571791,0.01535034,-0.00079346,-1.00582886,0.122070,0.061035,-0.244141
5284731291,0.01535034,-0.00079346,-1.00582886,-0.061035,0.000000,-0.122070
5289228666,0.01512146,-0.00070190,-0.99116516,-0.061035,0.000000,-0.122070
5294311708,0.01512146,-0.00070190,-0.99116516,0.000000,0.183105,-0.122070
5299452000,0.01475525,0.00007629,-1.00160217,0.000000,0.183105,-0.122070
5304278708,0.01475525,0.00007629,-1.00160217,-0.061035,0.122070,-0.122070
5309001208,0.01467896,0.00109863,-0.99671936,-0.061035,0.122070,-0.122070
5314104416,0.01467896,0.00109863,-0.99671936,0.000000,0.244141,-0.061035
5319217166,0.01246643,0.00207520,-0.99824524,0.000000,0.244141,-0.061035
5324347208,0.01246643,0.00207520,-0.99824524,0.122070,0.183105,-0.122070
5329447000,0.01416016,0.00320435,-0.99790955,0.122070,0.183105,-0.122070
5334356208,0.01416016,0.00320435,-0.99790955,0.122070,0.061035,-0.122070
5339063125,0.01545715,0.00331116,-0.99734497,0.122070,0.061035,-0.122070
5344128333,0.01545715,0.00331116,-0.99734497,0.122070,0.000000,-0.122070
5349253125,0.01492310,0.00373840,-0.99684143,0.122070,0.000000,-0.122070
5353838708,0.01492310,0.00373840,-0.99684143,0.183105,0.061035,-0.122070
5358949333,0.01533508,0.00364685,-0.99681091,0.183105,0.061035,-0.122070
5364070708,0.01533508,0.00364685,-0.99681091,0.122070,0.183105,0.061035
5369199166,0.01631165,0.00282288,-0.99903870,0.122070,0.183105,0.061035
5373864083,0.01631165,0.00282288,-0.99903870,0.000000,0.000000,-0.061035
5378968791,0.01464844,0.00143433,-0.99876404,0.000000,0.000000,-0.061035
5384079333,0.01464844,0.00143433,-0.99876404,0.061035,0.305176,-0.122070
5389207500,0.01403809,0.00213623,-0.99914551,0.061035,0.305176,-0.122070
5394326166,0.01403809,0.00213623,-0.99914551,0.000000,0.122070,-0.122070
5399534500,0.01524353,0.00021362,-0.99761963,0.000000,0.122070,-0.122070
5404197541,0.01524353,0.00021362,-0.99761963,0.122070,0.122070,-0.122070
5409292625,0.01565552,0.00006104,-0.99865723,0.122070,0.122070,-0.122070
5414422375,0.01565552,0.00006104,-0.99865723,0.000000,0.122070,-0.183105
5419611625,0.01524353,-0.00004578,-0.99827576,0.000000,0.122070,-0.183105
5424642583,0.01524353,-0.00004578,-0.99827576,0.122070,0.122070,-0.122070
5429677000,0.01443481,-0.00108337,-0.99732971,0.122070,0.122070,-0.122070
5434815083,0.01443481,-0.00108337,-0.99732971,0.000000,0.183105,-0.061035
5439677791,0.01483154,-0.00054932,-0.99766541,0.000000,0.183105,-0.061035
5444770125,0.01483154,-0.00054932,-0.99766541,-0.061035,0.122070,-0.183105
5449912000,0.01455688,0.00103760,-0.99874878,-0.061035,0.122070,-0.183105
5454791916,0.01455688,0.00103760,-0.99874878,0.122070,0.183105,-0.061035
5459915666,0.01399231,0.00161743,-0.99909973,0.122070,0.183105,-0.061035
5465001375,0.01399231,0.00161743,-0.99909973,0.000000,0.183105,-0.122070
5470132375,0.01472473,0.00088501,-0.99882507,0.000000,0.183105,-0.122070
5475067166,0.01472473,0.00088501,-0.99882507,0.122070,0.122070,-0.122070
5480226125,0.01454163,0.00187683,-0.99897766,0.122070,0.122070,-0.122070
5485315541,0.01454163,0.00187683,-0.99897766,0.061035,0.061035,-0.061035
5490179583,0.01409912,0.00222778,-0.99890137,0.061035,0.061035,-0.061035
5494923541,0.01409912,0.00222778,-0.99890137,0.122070,0.244141,-0.061035
5500053833,0.01521301,0.00144958,-0.99894714,0.122070,0.244141,-0.061035
5505219041,0.01521301,0.00144958,-0.99894714,0.061035,0.122070,-0.122070
5509853958,0.01507568,0.00129700,-0.99790955,0.061035,0.122070,-0.122070
5515005875,0.01507568,0.00129700,-0.99790955,0.000000,0.122070,-0.061035
5519965625,0.01507568,0.00094604,-0.99763489,0.000000,0.122070,-0.061035
5525119708,0.01507568,0.00094604,-0.99763489,0.061035,0.183105,-0.122070
5530175375,0.01510620,0.00057983,-0.99778748,0.061035,0.183105,-0.122070
5535042416,0.01510620,0.00057983,-0.99778748,0.183105,0.244141,-0.061035
5540180041,0.01513672,0.00061035,-0.99800110,0.183105,0.244141,-0.061035
5545317333,0.01513672,0.00061035,-0.99800110,0.122070,0.061035,-0.122070
5550454041,0.01466370,0.00099182,-0.99748230,0.122070,0.061035,-0.122070
5555237291,0.01466370,0.00099182,-0.99748230,-0.061035,0.183105,-0.122070
5560354625,0.01509094,0.00048828,-0.99720764,-0.061035,0.183105,-0.122070
5565495041,0.01509094,0.00048828,-0.99720764,0.000000,0.061035,-0.183105
5570252500,0.01443481,0.00073242,-0.99716187,0.000000,0.061035,-0.183105
5575350416,0.01443481,0.00073242,-0.99716187,0.000000,0.061035,-0.244141
5580472833,0.01499939,0.00178528,-0.99674988,0.000000,0.061035,-0.244141
5585584041,0.01499939,0.00178528,-0.99674988,0.000000,0.183105,-0.122070
5589766875,0.01445007,0.00173950,-0.99713135,0.000000,0.183105,-0.122070
5594868833,0.01445007,0.00173950,-0.99713135,0.061035,0.061035,-0.122070
5599998333,0.01394653,0.00224304,-0.99873352,0.061035,0.061035,-0.122070
5605113791,0.01394653,0.00224304,-0.99873352,0.061035,0.000000,-0.061035
5610191916,0.01379395,0.00207520,-0.99736023,0.061035,0.000000,-0.061035
5615286458,0.01379395,0.00207520,-0.99736023,0.000000,0.244141,-0.122070
5620171250,0.01394653,0.00257874,-0.99771118,0.000000,0.244141,-0.122070
5625284125,0.01394653,0.00257874,-0.99771118,0.061035,0.122070,-0.061035
5630396333,0.01458740,0.00140381,-0.99861145,0.061035,0.122070,-0.061035
5635177625,0.01458740,0.00140381,-0.99861145,0.061035,0.183105,-0.061035
5640311500,0.01458740,0.00199890,-0.99836731,0.061035,0.183105,-0.061035
5645420833,0.01458740,0.00199890,-0.99836731,0.061035,0.122070,-0.183105
5650542125,0.01445007,0.00053406,-0.99766541,0.061035,0.122070,-0.183105
5655672666,0.01445007,0.00053406,-0.99766541,0.122070,0.305176,-0.061035
5660776083,0.01509094,0.00048828,-0.99789429,0.122070,0.305176,-0.061035
5665887791,0.01509094,0.00048828,-0.99789429,0.000000,0.061035,-0.183105
5671013916,0.01489258,0.00018311,-0.99887085,0.000000,0.061035,-0.183105
5676103541,0.01489258,0.00018311,-0.99887085,0.122070,0.305176,0.000000
5681270708,0.01602173,0.00039673,-0.99887085,0.122070,0.305176,0.000000
5686474416,0.01602173,0.00039673,-0.99887085,0.122070,0.244141,-0.122070
5689057041,0.01504517,-0.00018311,-0.99867249,0.122070,0.244141,-0.122070
5694182000,0.01504517,-0.00018311,-0.99867249,0.183105,0.305176,-0.061035
5699292250,0.01501465,0.00003052,-0.99723816,0.183105,0.305176,-0.061035
5704381666,0.01501465,0.00003052,-0.99723816,0.000000,0.122070,-0.244141
5709447041,0.01539612,0.00061035,-0.99821472,0.000000,0.122070,-0.244141
5714610916,0.01539612,0.00061035,-0.99821472,0.122070,0.061035,-0.122070
5719399083,0.01531982,0.00071716,-0.99775696,0.122070,0.061035,-0.122070
5724489666,0.01531982,0.00071716,-0.99775696,0.305176,0.000000,-0.061035
5729624458,0.01451111,0.00007629,-0.99565125,0.305176,0.000000,-0.061035
5734736375,0.01451111,0.00007629,-0.99565125,-0.305176,0.549316,-0.061035
5739855708,0.01451111,0.00076294,-0.99504089,-0.305176,0.549316,-0.061035
5744958083,0.01451111,0.00076294,-0.99504089,0.305176,0.000000,-0.122070
5750121583,0.01509094,0.00276184,-0.99954224,0.305176,0.000000,-0.122070
5755210208,0.01509094,0.00276184,-0.99954224,0.061035,-0.183105,-0.122070
5760262541,0.01481628,0.00422668,-0.99290466,0.061035,-0.183105,-0.122070
5765128125,0.01481628,0.00422668,-0.99290466,0.000000,0.244141,-0.061035
5770230416,0.01440430,0.00476074,-1.00444031,0.000000,0.244141,-0.061035
5774672541,0.01440430,0.00476074,-1.00444031,-0.061035,0.366211,-0.061035
5779763333,0.01469421,0.00343323,-1.00001526,-0.061035,0.366211,-0.061035
5787097666,0.01469421,0.00343323,-1.00001526,-0.061035,0.183105,-0.122070
5789659291,0.01536560,0.00196838,-0.99900818,-0.061035,0.183105,-0.122070
5797292083,0.01536560,0.00196838,-0.99900818,0.061035,0.244141,-0.061035
5799880916,0.01509094,-0.00047302,-0.99925232,0.061035,0.244141,-0.061035
5804993000,0.01509094,-0.00047302,-0.99925232,-0.122070,0.305176,-0.244141
5810081666,0.01542664,-0.00088501,-0.99862671,-0.122070,0.305176,-0.244141
5815232208,0.01542664,-0.00088501,-0.99862671,-0.122070,0.244141,0.000000
5819914875,0.01504517,-0.00050354,-0.99795532,-0.122070,0.244141,0.000000
5824649958,0.01504517,-0.00050354,-0.99795532,0.244141,0.183105,-0.183105
5829758750,0.01481628,-0.00061035,-0.99722290,0.244141,0.183105,-0.183105
5834897458,0.01481628,-0.00061035,-0.99722290,0.122070,0.305176,-0.122070
5839973541,0.01473999,-0.00067139,-0.99627686,0.122070,0.305176,-0.122070
5844858000,0.01473999,-0.00067139,-0.99627686,0.122070,0.183105,-0.183105
5849968708,0.01602173,-0.00064087,-0.99644470,0.122070,0.183105,-0.183105
5854786916,0.01602173,-0.00064087,-0.99644470,-0.183105,0.671387,-0.183105
5861922125,0.01460266,-0.00108337,-0.99679565,-0.183105,0.671387,-0.183105
5867067958,0.01460266,-0.00108337,-0.99679565,0.122070,-0.122070,-0.244141
5871909708,0.01394653,-0.00157166,-1.00204468,0.122070,-0.122070,-0.244141
5876641583,0.01394653,-0.00157166,-1.00204468,0.061035,0.244141,-0.183105
5881796166,0.01464844,0.00042725,-0.99258423,0.061035,0.244141,-0.183105
5886961166,0.01464844,0.00042725,-0.99258423,0.183105,0.183105,-0.061035
5892077083,0.01319885,0.00262451,-1.00061035,0.183105,0.183105,-0.061035
5894657250,0.01319885,0.00262451,-1.00061035,-0.061035,0.061035,-0.061035
5902014750,0.01416016,0.00259399,-0.99613953,-0.061035,0.061035,-0.061035
5906851541,0.01416016,0.00259399,-0.99613953,0.122070,0.061035,-0.122070
5911935291,0.01416016,0.00326538,-0.99909973,0.122070,0.061035,-0.122070
5917024583,0.01416016,0.00326538,-0.99909973,0.122070,0.244141,-0.061035
5921912125,0.01429749,0.00469971,-0.99729919,0.122070,0.244141,-0.061035
5927012583,0.01429749,0.00469971,-0.99729919,0.000000,0.183105,-0.122070
5929606708,0.01574707,0.00361633,-0.99794006,0.000000,0.183105,-0.122070
5934732458,0.01574707,0.00361633,-0.99794006,0.183105,0.122070,-0.061035
5942148125,0.01527405,0.00334167,-0.99717712,0.183105,0.122070,-0.061035
5944720125,0.01527405,0.00334167,-0.99717712,0.244141,0.061035,0.000000
5949873458,0.01478577,0.00309753,-0.99780273,0.244141,0.061035,0.000000
5955023458,0.01478577,0.00309753,-0.99780273,0.122070,0.122070,-0.061035
5959858500,0.01557922,0.00242615,-0.99856567,0.122070,0.122070,-0.061035
5964981833,0.01557922,0.00242615,-0.99856567,0.122070,0.244141,-0.122070
5970009041,0.01516724,0.00068665,-0.99855042,0.122070,0.244141,-0.122070
5975123625,0.01516724,0.00068665,-0.99855042,0.061035,0.183105,-0.122070
5979835583,0.01457214,0.00001526,-0.99787903,0.061035,0.183105,-0.122070
5984960416,0.01457214,0.00001526,-0.99787903,0.122070,0.244141,-0.061035
5990062791,0.01449585,-0.00065613,-0.99678040,0.122070,0.244141,-0.061035
5995154583,0.01449585,-0.00065613,-0.99678040,0.122070,0.183105,-0.122070
6000284125,0.01510620,-0.00009155,-0.99835205,0.122070,0.183105,-0.122070
6004961541,0.01510620,-0.00009155,-0.99835205,0.183105,0.305176,-0.122070
6010010083,0.01466370,0.00163269,-0.99876404,0.183105,0.305176,-0.122070
6015146708,0.01466370,0.00163269,-0.99876404,-0.122070,0.183105,-0.061035
6020249458,0.01609802,0.00148010,-0.99790955,-0.122070,0.183105,-0.061035
6025338041,0.01609802,0.00148010,-0.99790955,0.061035,0.183105,0.000000
6030212416,0.01580811,0.00108337,-0.99757385,0.061035,0.183105,0.000000
6035318333,0.01580811,0.00108337,-0.99757385,0.061035,0.183105,-0.183105
6040389916,0.01570129,0.00148010,-0.99719238,0.061035,0.183105,-0.183105
6045477833,0.01570129,0.00148010,-0.99719238,0.122070,0.183105,-0.122070
6050584791,0.01408386,0.00169373,-0.99691772,0.122070,0.183105,-0.122070
6055675250,0.01408386,0.00169373,-0.99691772,0.061035,0.183105,-0.183105
6060569708,0.01454163,0.00175476,-0.99806213,0.061035,0.183105,-0.183105
6065660416,0.01454163,0.00175476,-0.99806213,0.061035,0.244141,-0.183105
6070761583,0.01521301,0.00167847,-0.99876404,0.061035,0.244141,-0.183105
6075837000,0.01521301,0.00167847,-0.99876404,0.000000,0.183105,-0.183105
6080940916,0.01435852,0.00114441,-0.99792480,0.000000,0.183105,-0.183105
6086035500,0.01435852,0.00114441,-0.99792480,0.061035,0.122070,-0.122070
6090771833,0.01492310,0.00099182,-0.99708557,0.061035,0.122070,-0.122070
6095865458,0.01492310,0.00099182,-0.99708557,0.000000,0.183105,-0.183105
6100856000,0.01605225,-0.00024414,-0.99844360,0.000000,0.183105,-0.183105
6105985166,0.01605225,-0.00024414,-0.99844360,0.000000,0.183105,-0.061035
6111090250,0.01605225,0.00053406,-0.99742126,0.000000,0.183105,-0.061035
6116287333,0.01605225,0.00053406,-0.99742126,-0.061035,0.305176,-0.183105
6121417583,0.01528931,0.00131226,-0.99720764,-0.061035,0.305176,-0.183105
6126533541,0.01528931,0.00131226,-0.99720764,-0.061035,0.000000,-0.122070
6131662875,0.01631165,0.00068665,-0.99795532,-0.061035,0.000000,-0.122070
6136844125,0.01631165,0.00068665,-0.99795532,0.061035,0.244141,-0.122070
6141998208,0.01510620,0.00027466,-0.99807739,0.061035,0.244141,-0.122070
6147141250,0.01510620,0.00027466,-0.99807739,0.061035,0.061035,-0.122070
6152307208,0.01445007,0.00080872,-0.99851990,0.061035,0.061035,-0.122070
6157474166,0.01445007,0.00080872,-0.99851990,0.061035,0.183105,-0.061035
6162382416,0.01521301,0.00079346,-0.99772644,0.061035,0.183105,-0.061035
6167433708,0.01521301,0.00079346,-0.99772644,-0.061035,0.183105,-0.183105
6172589583,0.01493835,0.00215149,-0.99746704,-0.061035,0.183105,-0.183105
6175170291,0.01493835,0.00215149,-0.99746704,0.000000,0.122070,-0.061035
6180312166,0.01506042,0.00244141,-0.99890137,0.000000,0.122070,-0.061035
6187567375,0.01506042,0.00244141,-0.99890137,0.000000,0.183105,-0.061035
6192665708,0.01461792,0.00283813,-0.99923706,0.000000,0.183105,-0.061035
6197831458,0.01461792,0.00283813,-0.99923706,0.061035,0.061035,-0.122070
6202947500,0.01306152,0.00347900,-0.99777222,0.061035,0.061035,-0.122070
6208070416,0.01306152,0.00347900,-0.99777222,0.183105,0.183105,-0.122070
6212935125,0.01367188,0.00280762,-0.99751282,0.183105,0.183105,-0.122070
6218027500,0.01367188,0.00280762,-0.99751282,0.061035,0.122070,-0.061035
6223100208,0.01501465,0.00390625,-0.99786377,0.061035,0.122070,-0.061035
6225629750,0.01501465,0.00390625,-0.99786377,0.061035,0.122070,-0.183105
6230704458,0.01564026,0.00073242,-0.99752808,0.061035,0.122070,-0.183105
6235798125,0.01564026,0.00073242,-0.99752808,0.000000,0.183105,-0.122070
6240878000,0.01614380,-0.00001526,-0.99790955,0.000000,0.183105,-0.122070
6245963875,0.01614380,-0.00001526,-0.99790955,0.000000,0.122070,0.061035
6250851750,0.01565552,-0.00141907,-0.99790955,0.000000,0.122070,0.061035
6255967958,0.01565552,-0.00141907,-0.99790955,0.061035,0.183105,-0.122070
6261055458,0.01504517,-0.00111389,-0.99717712,0.061035,0.183105,-0.122070
6266128833,0.01504517,-0.00111389,-0.99717712,0.000000,0.122070,-0.061035
6271267916,0.01522827,-0.00038147,-0.99760437,0.000000,0.122070,-0.061035
6276370666,0.01522827,-0.00038147,-0.99760437,0.061035,0.183105,-0.122070
6281548375,0.01525879,-0.00135803,-0.99769592,0.061035,0.183105,-0.122070
6286675625,0.01525879,-0.00135803,-0.99769592,0.061035,0.122070,-0.244141
6291707250,0.01562500,-0.00073242,-0.99757385,0.061035,0.122070,-0.244141
6296117750,0.01562500,-0.00073242,-0.99757385,0.183105,0.122070,-0.122070
6301264500,0.01452637,0.00108337,-0.99789429,0.183105,0.122070,-0.122070
6306381583,0.01452637,0.00108337,-0.99789429,0.000000,0.122070,-0.183105
6311032166,0.01470947,0.00144958,-0.99858093,0.000000,0.122070,-0.183105
6315822208,0.01470947,0.00144958,-0.99858093,0.183105,0.122070,-0.122070
6320867041,0.01480103,0.00103760,-0.99682617,0.183105,0.122070,-0.122070
6325976958,0.01480103,0.00103760,-0.99682617,0.305176,-0.122070,-0.244141
6331110583,0.01477051,0.00186157,-0.99406433,0.305176,-0.122070,-0.244141
6336002458,0.01477051,0.00186157,-0.99406433,0.671387,-0.244141,-0.122070
6341093875,0.01455688,0.00263977,-0.99853516,0.671387,-0.244141,-0.122070
6345823500,0.01455688,0.00263977,-0.99853516,-0.061035,0.305176,-0.244141
6350942625,0.01318359,0.00392151,-0.98989868,-0.061035,0.305176,-0.244141
6355993250,0.01318359,0.00392151,-0.98989868,0.305176,0.244141,-0.183105
6361146083,0.01480103,0.00444031,-1.00871277,0.305176,0.244141,-0.183105
6366340791,0.01480103,0.00444031,-1.00871277,0.061035,0.244141,-0.061035
6371000041,0.01541138,0.00366211,-0.99247742,0.061035,0.244141,-0.061035
6376103458,0.01541138,0.00366211,-0.99247742,0.183105,0.122070,-0.061035
6381207500,0.01516724,0.00247192,-1.00439453,0.183105,0.122070,-0.061035
6385993625,0.01516724,0.00247192,-1.00439453,-0.061035,0.244141,-0.061035
6391072708,0.01620483,0.00080872,-0.99868774,-0.061035,0.244141,-0.061035
6396186833,0.01620483,0.00080872,-0.99868774,0.000000,0.305176,0.000000
6400939541,0.01588440,-0.00106812,-1.00015259,0.000000,0.305176,0.000000
6405974875,0.01588440,-0.00106812,-1.00015259,0.061035,0.244141,0.000000
6411097916,0.01553345,-0.00193787,-0.99986267,0.061035,0.244141,0.000000
6416211083,0.01553345,-0.00193787,-0.99986267,-0.061035,0.122070,-0.061035
6420867166,0.01475525,-0.00224304,-0.99826050,-0.061035,0.122070,-0.061035
6425979333,0.01475525,-0.00224304,-0.99826050,-0.122070,0.061035,0.000000
6431085875,0.01432800,-0.00167847,-0.99792480,-0.122070,0.061035,0.000000
6436023500,0.01432800,-0.00167847,-0.99792480,-0.061035,0.244141,-0.061035
6443298291,0.01475525,-0.00036621,-0.99670410,-0.061035,0.244141,-0.061035
6445933458,0.01475525,-0.00036621,-0.99670410,0.000000,0.122070,-0.183105
6451147708,0.01542664,-0.00015259,-0.99783325,0.000000,0.122070,-0.183105
6456320041,0.01542664,-0.00015259,-0.99783325,0.000000,0.061035,-0.183105
6461427250,0.01466370,-0.00039673,-0.99790955,0.000000,0.061035,-0.183105
6466564000,0.01466370,-0.00039673,-0.99790955,0.061035,0.122070,-0.183105
6471456041,0.01499939,0.00062561,-0.99641418,0.061035,0.122070,-0.183105
6475973916,0.01499939,0.00062561,-0.99641418,0.549316,-0.122070,-0.122070
6481086125,0.01448059,0.00068665,-0.99691772,0.549316,-0.122070,-0.122070
6486187208,0.01448059,0.00068665,-0.99691772,-0.122070,0.305176,-0.183105
6491242291,0.01361084,0.00007629,-0.99876404,-0.122070,0.305176,-0.183105
6496349208,0.01361084,0.00007629,-0.99876404,0.244141,0.122070,-0.061035
6500973458,0.01367188,0.00184631,-1.00410461,0.244141,0.122070,-0.061035
6508347625,0.01367188,0.00184631,-1.00410461,0.122070,0.061035,-0.122070
6513005625,0.01411438,0.00302124,-0.99185181,0.122070,0.061035,-0.122070
6518183583,0.01411438,0.00302124,-0.99185181,0.122070,0.183105,-0.122070
6523342583,0.01458740,0.00361633,-1.00028992,0.122070,0.183105,-0.122070
6528458250,0.01458740,0.00361633,-1.00028992,0.061035,0.061035,-0.122070
6533201166,0.01562500,0.00325012,-0.99778748,0.061035,0.061035,-0.122070
6538156875,0.01562500,0.00325012,-0.99778748,0.061035,0.122070,-0.183105
6543050375,0.01589966,0.00248718,-0.99787903,0.061035,0.122070,-0.183105
6548099958,0.01589966,0.00248718,-0.99787903,0.122070,0.061035,0.000000
6553269000,0.01571655,0.00239563,-0.99819946,0.122070,0.061035,0.000000
6558400333,0.01571655,0.00239563,-0.99819946,0.183105,0.305176,-0.122070
6563495791,0.01489258,0.00180054,-0.99841309,0.183105,0.305176,-0.122070
6566094333,0.01489258,0.00180054,-0.99841309,-0.061035,0.183105,-0.122070
6573669125,0.01417542,0.00189209,-0.99797058,-0.061035,0.183105,-0.122070
6576212958,0.01417542,0.00189209,-0.99797058,-0.061035,0.122070,-0.122070
6583206250,0.01405334,0.00091553,-0.99768066,-0.061035,0.122070,-0.122070
6588356125,0.01405334,0.00091553,-0.99768066,0.000000,0.305176,-0.122070
6593093875,0.01448059,0.00073242,-0.99815369,0.000000,0.305176,-0.122070
6598293916,0.01448059,0.00073242,-0.99815369,0.061035,0.183105,-0.122070
6603408791,0.01461792,0.00000000,-0.99775696,0.061035,0.183105,-0.122070
6608505833,0.01461792,0.00000000,-0.99775696,-0.122070,0.000000,-0.183105
6613753833,0.01516724,-0.00050354,-0.99880981,-0.122070,0.000000,-0.183105
6618931666,0.01516724,-0.00050354,-0.99880981,0.122070,0.122070,-0.061035
6623965208,0.01504517,0.00059509,-0.99865723,0.122070,0.122070,-0.061035
6629081166,0.01504517,0.00059509,-0.99865723,0.122070,0.122070,-0.061035
6631685541,0.01467896,0.00039673,-0.99775696,0.122070,0.122070,-0.061035
6636781750,0.01467896,0.00039673,-0.99775696,0.122070,0.122070,-0.305176
6641854833,0.01499939,0.00048828,-0.99797058,0.122070,0.122070,-0.305176
6646932083,0.01499939,0.00048828,-0.99797058,0.122070,0.183105,-0.061035
6652152750,0.01460266,0.00103760,-0.99946594,0.122070,0.183105,-0.061035
6657240375,0.01460266,0.00103760,-0.99946594,0.183105,0.244141,-0.183105
6662325333,0.01461792,0.00169373,-0.99781799,0.183105,0.244141,-0.183105
6667437333,0.01461792,0.00169373,-0.99781799,0.061035,0.122070,-0.122070
6672576916,0.01512146,0.00196838,-0.99661255,0.061035,0.122070,-0.122070
6677704041,0.01512146,0.00196838,-0.99661255,0.061035,0.122070,-0.183105
6682812791,0.01393127,0.00221252,-0.99832153,0.061035,0.122070,-0.183105
6687743500,0.01393127,0.00221252,-0.99832153,0.000000,0.061035,-0.183105
6692758291,0.01455688,0.00111389,-0.99792480,0.000000,0.061035,-0.183105
6697426208,0.01455688,0.00111389,-0.99792480,0.122070,0.244141,-0.061035
6702556708,0.01574707,0.00111389,-0.99841309,0.122070,0.244141,-0.061035
6707653500,0.01574707,0.00111389,-0.99841309,0.061035,0.183105,-0.061035
6712739208,0.01470947,-0.00015259,-0.99888611,0.061035,0.183105,-0.061035
6717884666,0.01470947,-0.00015259,-0.99888611,0.061035,0.061035,-0.061035
6722570416,0.01371765,0.00082397,-0.99769592,0.061035,0.061035,-0.061035
6727683583,0.01371765,0.00082397,-0.99769592,0.000000,0.122070,-0.183105
6732897833,0.01527405,0.00144958,-0.99914551,0.000000,0.122070,-0.183105
6738008166,0.01527405,0.00144958,-0.99914551,0.061035,0.183105,-0.122070
6742392458,0.01480103,0.00007629,-0.99748230,0.061035,0.183105,-0.122070
6747489250,0.01480103,0.00007629,-0.99748230,-0.122070,0.244141,-0.122070
6752363083,0.01507568,0.00149536,-0.99859619,-0.122070,0.244141,-0.122070
6757501208,0.01507568,0.00149536,-0.99859619,0.061035,0.183105,-0.183105
6762511416,0.01524353,0.00233459,-0.99757385,0.061035,0.183105,-0.183105
6767466750,0.01524353,0.00233459,-0.99757385,0.000000,0.061035,-0.122070
6772435541,0.01374817,0.00199890,-0.99612427,0.000000,0.061035,-0.122070
6777536250,0.01374817,0.00199890,-0.99612427,0.122070,0.244141,-0.183105
6782679833,0.01364136,0.00172424,-0.99807739,0.122070,0.244141,-0.183105
6787849333,0.01364136,0.00172424,-0.99807739,0.122070,0.122070,-0.061035
6792971750,0.01573181,0.00209045,-0.99836731,0.122070,0.122070,-0.061035
6798124833,0.01573181,0.00209045,-0.99836731,0.122070,0.183105,-0.183105
6803231875,0.01426697,0.00170898,-0.99787903,0.122070,0.183105,-0.183105
6808297500,0.01426697,0.00170898,-0.99787903,0.061035,0.122070,-0.122070
6813072875,0.01470947,0.00236511,-0.99856567,0.061035,0.122070,-0.122070
6818331416,0.01470947,0.00236511,-0.99856567,0.061035,0.000000,-0.183105
6823284916,0.01449585,0.00125122,-0.99717712,0.061035,0.000000,-0.183105
6828370375,0.01449585,0.00125122,-0.99717712,0.122070,0.122070,-0.061035
6833403833,0.01519775,0.00105286,-0.99781799,0.122070,0.122070,-0.061035
6838579208,0.01519775,0.00105286,-0.99781799,0.183105,0.122070,-0.122070
6843671125,0.01579285,0.00044250,-0.99838257,0.183105,0.122070,-0.122070
6848769500,0.01579285,0.00044250,-0.99838257,0.061035,0.183105,-0.183105
6853879333,0.01528931,-0.00009155,-0.99755859,0.061035,0.183105,-0.183105
6858985625,0.01528931,-0.00009155,-0.99755859,0.183105,0.183105,-0.061035
6864079708,0.01416016,-0.00036621,-0.99795532,0.183105,0.183105,-0.061035
6869083291,0.01416016,-0.00036621,-0.99795532,0.122070,0.122070,-0.183105
6874191583,0.01446533,-0.00018311,-0.99833679,0.122070,0.122070,-0.183105
6879328041,0.01446533,-0.00018311,-0.99833679,0.000000,0.244141,-0.061035
6881882583,0.01588440,0.00013733,-0.99728394,0.000000,0.244141,-0.061035
6886953791,0.01588440,0.00013733,-0.99728394,0.061035,0.183105,-0.061035
6892020375,0.01475525,0.00106812,-0.99658203,0.061035,0.183105,-0.061035
6897129583,0.01475525,0.00106812,-0.99658203,0.000000,0.122070,-0.183105
6904482958,0.01423645,0.00154114,-0.99783325,0.000000,0.122070,-0.183105
6907065916,0.01423645,0.00154114,-0.99783325,0.061035,0.122070,-0.122070
6912154125,0.01483154,0.00151062,-0.99829102,0.061035,0.122070,-0.122070
6917290666,0.01483154,0.00151062,-0.99829102,0.122070,0.122070,-0.061035
6922413750,0.01457214,0.00135803,-0.99655151,0.122070,0.122070,-0.061035
6927516333,0.01457214,0.00135803,-0.99655151,0.000000,0.000000,-0.061035
6932635166,0.01449585,0.00141907,-0.99726868,0.000000,0.000000,-0.061035
6937797208,0.01449585,0.00141907,-0.99726868,0.000000,0.122070,-0.061035
6942912625,0.01486206,0.00190735,-0.99653625,0.000000,0.122070,-0.061035
6948054791,0.01486206,0.00190735,-0.99653625,0.122070,0.061035,-0.061035
6952644791,0.01489258,0.00125122,-0.99810791,0.122070,0.061035,-0.061035
6957748250,0.01489258,0.00125122,-0.99810791,0.183105,0.122070,-0.122070
6962485875,0.01445007,0.00105286,-0.99803162,0.183105,0.122070,-0.122070
6967597583,0.01445007,0.00105286,-0.99803162,0.610352,-0.732422,-0.244141
6972703708,0.01362610,0.00270081,-0.99002075,0.610352,-0.732422,-0.244141
6977359583,0.01362610,0.00270081,-0.99002075,-0.061035,0.122070,-0.122070
6982198166,0.01519775,0.00282288,-0.99526978,-0.061035,0.122070,-0.122070
6987241791,0.01519775,0.00282288,-0.99526978,0.183105,0.183105,0.000000
6992325375,0.01414490,0.00250244,-1.00567627,0.183105,0.183105,0.000000
7000010666,0.01414490,0.00250244,-1.00567627,0.000000,0.122070,0.061035
7004623125,0.01475525,0.00439453,-0.99494934,0.000000,0.122070,0.061035
7009338750,0.01475525,0.00439453,-0.99494934,0.061035,0.183105,0.000000
7014464291,0.01477051,0.00329590,-1.00401306,0.061035,0.183105,0.000000
7019457750,0.01477051,0.00329590,-1.00401306,0.000000,0.244141,-0.061035
7024578083,0.01464844,-0.00032043,-0.99824524,0.000000,0.244141,-0.061035
7029684708,0.01464844,-0.00032043,-0.99824524,0.061035,0.305176,-0.122070
7034845833,0.01516724,-0.00001526,-1.00198364,0.061035,0.305176,-0.122070
7039055458,0.01516724,-0.00001526,-1.00198364,0.061035,0.183105,-0.061035
7044162416,0.01490784,-0.00151062,-1.00006104,0.061035,0.183105,-0.061035
7049292000,0.01490784,-0.00151062,-1.00006104,-0.061035,0.183105,-0.244141
7054446208,0.01547241,-0.00360107,-0.99755859,-0.061035,0.183105,-0.244141
7059555291,0.01547241,-0.00360107,-0.99755859,0.000000,0.305176,-0.183105
7064683916,0.01483154,-0.00230408,-0.99877930,0.000000,0.305176,-0.183105
7069375583,0.01483154,-0.00230408,-0.99877930,-0.183105,0.244141,-0.122070
7074503541,0.01414490,-0.00082397,-0.99781799,-0.183105,0.244141,-0.122070
7079613750,0.01414490,-0.00082397,-0.99781799,-0.061035,0.122070,-0.122070
7084732541,0.01567078,0.00028992,-0.99700928,-0.061035,0.122070,-0.122070
7089860083,0.01567078,0.00028992,-0.99700928,0.000000,0.244141,-0.122070
7095005875,0.01593018,-0.00003052,-0.99758911,0.000000,0.244141,-0.122070
7099809083,0.01593018,-0.00003052,-0.99758911,0.061035,0.061035,-0.244141
7104941208,0.01599121,0.00183105,-0.99612427,0.061035,0.061035,-0.244141
7110003291,0.01599121,0.00183105,-0.99612427,0.305176,-0.061035,-0.061035
7115111833,0.01591492,0.00161743,-0.99684143,0.305176,-0.061035,-0.061035
7117634666,0.01591492,0.00161743,-0.99684143,-0.366211,0.549316,-0.061035
7122725041,0.01437378,0.00007629,-0.99452209,-0.366211,0.549316,-0.061035
7127816375,0.01437378,0.00007629,-0.99452209,0.122070,0.305176,-0.061035
7132952666,0.01463318,0.00177002,-1.00622559,0.122070,0.305176,-0.061035
7138122000,0.01463318,0.00177002,-1.00622559,0.000000,0.061035,-0.183105
7143238708,0.01434326,0.00334167,-0.98948669,0.000000,0.061035,-0.183105
7148400166,0.01434326,0.00334167,-0.98948669,0.000000,0.061035,-0.122070
7153584458,0.01336670,0.00280762,-1.00270081,0.000000,0.061035,-0.122070
7158738083,0.01336670,0.00280762,-1.00270081,0.000000,0.122070,-0.061035
7163849791,0.01495361,0.00314331,-0.99545288,0.000000,0.122070,-0.061035
7168991625,0.01495361,0.00314331,-0.99545288,0.000000,0.183105,-0.061035
7174126458,0.01562500,0.00314331,-0.99723816,0.000000,0.183105,-0.061035
7179167500,0.01562500,0.00314331,-0.99723816,0.000000,0.122070,-0.183105
7184297666,0.01458740,0.00221252,-0.99928284,0.000000,0.122070,-0.183105
7189391250,0.01458740,0.00221252,-0.99928284,0.061035,0.061035,-0.122070
7194468708,0.01467896,0.00207520,-0.99771118,0.061035,0.061035,-0.122070
7199602166,0.01467896,0.00207520,-0.99771118,0.061035,0.244141,-0.244141
7204762708,0.01559448,0.00199890,-0.99835205,0.061035,0.244141,-0.244141
7209869708,0.01559448,0.00199890,-0.99835205,0.000000,0.122070,-0.122070
7214604708,0.01501465,0.00080872,-0.99914551,0.000000,0.122070,-0.122070
7219735708,0.01501465,0.00080872,-0.99914551,-0.061035,0.122070,0.000000
7224851583,0.01577759,0.00076294,-0.99752808,-0.061035,0.122070,0.000000
7229699833,0.01577759,0.00076294,-0.99752808,0.122070,0.061035,-0.183105
7234843333,0.01445007,-0.00030518,-0.99635315,0.122070,0.061035,-0.183105
7239961958,0.01445007,-0.00030518,-0.99635315,0.061035,0.183105,-0.061035
7245083291,0.01519775,0.00048828,-0.99772644,0.061035,0.183105,-0.061035
7250229791,0.01519775,0.00048828,-0.99772644,0.061035,0.061035,-0.122070
7252876708,0.01611328,0.00076294,-0.99853516,0.061035,0.061035,-0.122070
7259959250,0.01611328,0.00076294,-0.99853516,0.244141,0.122070,-0.061035
7264898166,0.01676941,0.00057983,-0.99853516,0.244141,0.122070,-0.061035
7270029375,0.01676941,0.00057983,-0.99853516,0.061035,0.305176,-0.183105
7275129291,0.01602173,0.00080872,-0.99769592,0.061035,0.305176,-0.183105
7280234500,0.01602173,0.00080872,-0.99769592,0.183105,0.122070,-0.122070
7285136541,0.01466370,0.00073242,-0.99870300,0.183105,0.122070,-0.122070
7290232250,0.01466370,0.00073242,-0.99870300,0.000000,0.122070,-0.061035
7294964458,0.01432800,0.00050354,-0.99922180,0.000000,0.122070,-0.061035
7300079000,0.01432800,0.00050354,-0.99922180,0.122070,0.183105,-0.183105
7304820375,0.01510620,0.00149536,-0.99749756,0.122070,0.183105,-0.183105
7309935916,0.01510620,0.00149536,-0.99749756,0.061035,0.061035,-0.122070
7315056291,0.01466370,0.00120544,-0.99801636,0.061035,0.061035,-0.122070
7320234833,0.01466370,0.00120544,-0.99801636,0.061035,0.000000,-0.122070
7325360250,0.01484680,0.00105286,-0.99774170,0.061035,0.000000,-0.122070
7330480041,0.01484680,0.00105286,-0.99774170,0.061035,0.305176,-0.061035
7333033333,0.01515198,0.00057983,-0.99763489,0.061035,0.305176,-0.061035
7338082250,0.01515198,0.00057983,-0.99763489,0.000000,0.061035,-0.122070
7343065791,0.01440430,0.00076294,-0.99790955,0.000000,0.061035,-0.122070
7348050000,0.01440430,0.00076294,-0.99790955,0.000000,0.061035,-0.122070
7353177833,0.01463318,0.00047302,-0.99656677,0.000000,0.061035,-0.122070
7360191875,0.01463318,0.00047302,-0.99656677,0.000000,0.244141,-0.183105
7365391666,0.01506042,0.00074768,-0.99739075,0.000000,0.244141,-0.183105
7370564208,0.01506042,0.00074768,-0.99739075,0.122070,0.183105,-0.183105
7373122166,0.01373291,0.00148010,-0.99816895,0.122070,0.183105,-0.183105
7378184958,0.01373291,0.00148010,-0.99816895,0.122070,-0.061035,-0.122070
7383297125,0.01467896,0.00105286,-0.99758911,0.122070,-0.061035,-0.122070
7388411291,0.01467896,0.00105286,-0.99758911,0.122070,0.122070,-0.183105
7393514333,0.01515198,0.00134277,-0.99674988,0.122070,0.122070,-0.183105
7398664666,0.01515198,0.00134277,-0.99674988,0.000000,0.183105,-0.122070
7403484666,0.01492310,0.00187683,-0.99798584,0.000000,0.183105,-0.122070
7408655750,0.01492310,0.00187683,-0.99798584,0.122070,0.000000,-0.122070
7413779125,0.01428223,0.00241089,-0.99737549,0.122070,0.000000,-0.122070
7418885291,0.01428223,0.00241089,-0.99737549,0.000000,0.183105,-0.122070
7426065791,0.01467896,0.00291443,-0.99874878,0.000000,0.183105,-0.122070
7431175291,0.01467896,0.00291443,-0.99874878,0.000000,0.244141,-0.061035
7433781166,0.01437378,0.00260925,-0.99884033,0.000000,0.244141,-0.061035
7438924125,0.01437378,0.00260925,-0.99884033,0.061035,0.122070,-0.122070
7444030125,0.01473999,0.00299072,-0.99803162,0.061035,0.122070,-0.122070
7449131166,0.01473999,0.00299072,-0.99803162,0.061035,0.061035,-0.122070
7454192041,0.01522827,0.00303650,-0.99745178,0.061035,0.061035,-0.122070
7459340625,0.01522827,0.00303650,-0.99745178,0.000000,0.061035,-0.244141
7464255916,0.01422119,0.00120544,-0.99679565,0.000000,0.061035,-0.244141
7469393083,0.01422119,0.00120544,-0.99679565,0.000000,0.122070,0.061035
7474314375,0.01438904,0.00074768,-0.99729919,0.000000,0.122070,0.061035
7479181208,0.01438904,0.00074768,-0.99729919,0.000000,0.061035,-0.183105
7484315916,0.01626587,0.00032043,-0.99751282,0.000000,0.061035,-0.183105
7489451083,0.01626587,0.00032043,-0.99751282,0.122070,0.122070,-0.061035
7494553208,0.01556396,0.00117493,-0.99938965,0.122070,0.122070,-0.061035
7499677583,0.01556396,0.00117493,-0.99938965,0.183105,0.122070,-0.183105
7504751750,0.01350403,-0.00012207,-0.99792480,0.183105,0.122070,-0.183105
7509574958,0.01350403,-0.00012207,-0.99792480,0.183105,0.305176,-0.122070
7514728291,0.01380920,-0.00027466,-0.99873352,0.183105,0.305176,-0.122070
7519499208,0.01380920,-0.00027466,-0.99873352,0.122070,0.122070,-0.122070
7524597083,0.01397705,0.00071716,-0.99824524,0.122070,0.122070,-0.122070
7529674541,0.01397705,0.00071716,-0.99824524,-0.061035,0.122070,-0.183105
7534890458,0.01316833,0.00143433,-0.99861145,-0.061035,0.122070,-0.183105
7540029791,0.01316833,0.00143433,-0.99861145,0.122070,0.183105,-0.061035
7545158333,0.01394653,0.00128174,-0.99798584,0.122070,0.183105,-0.061035
7549926583,0.01394653,0.00128174,-0.99798584,0.244141,0.061035,-0.122070
7555064583,0.01475525,0.00216675,-0.99636841,0.244141,0.061035,-0.122070
7560158333,0.01475525,0.00216675,-0.99636841,0.305176,-0.061035,-0.061035
7565284166,0.01399231,0.00300598,-0.99369812,0.305176,-0.061035,-0.061035
7570408333,0.01399231,0.00300598,-0.99369812,0.854492,-0.366211,-0.122070
7575521166,0.01385498,0.00393677,-0.99830627,0.854492,-0.366211,-0.122070
7580630625,0.01385498,0.00393677,-0.99830627,0.000000,0.305176,0.000000
7585739958,0.01504517,0.00401306,-0.99214172,0.000000,0.305176,0.000000
7590860125,0.01504517,0.00401306,-0.99214172,-0.061035,0.366211,0.000000
7596038750,0.01509094,0.00427246,-1.00825500,-0.061035,0.366211,0.000000
7598639208,0.01509094,0.00427246,-1.00825500,0.000000,0.122070,-0.061035
7605461000,0.01464844,0.00335693,-0.99407959,0.000000,0.122070,-0.061035
7610519458,0.01464844,0.00335693,-0.99407959,0.061035,0.122070,-0.122070
7615149041,0.01499939,0.00042725,-1.00369263,0.061035,0.122070,-0.122070
7620330041,0.01499939,0.00042725,-1.00369263,0.183105,0.122070,-0.122070
7625480875,0.01455688,-0.00163269,-0.99847412,0.183105,0.122070,-0.122070
7630589583,0.01455688,-0.00163269,-0.99847412,-0.061035,0.183105,-0.183105
7635722958,0.01467896,-0.00177002,-0.99935913,-0.061035,0.183105,-0.183105
7640851541,0.01467896,-0.00177002,-0.99935913,0.000000,0.183105,-0.122070
7645960791,0.01489258,-0.00318909,-0.99862671,0.000000,0.183105,-0.122070
7651082375,0.01489258,-0.00318909,-0.99862671,-0.122070,0.122070,-0.122070
7656225958,0.01467896,-0.00132751,-0.99829102,-0.122070,0.122070,-0.122070
7658854958,0.01467896,-0.00132751,-0.99829102,0.000000,0.305176,-0.122070
7666144166,0.01522827,-0.00077820,-0.99795532,0.000000,0.305176,-0.122070
7671290083,0.01522827,-0.00077820,-0.99795532,0.061035,0.122070,-0.183105
7673850458,0.01539612,-0.00099182,-0.99682617,0.061035,0.122070,-0.183105
7678932833,0.01539612,-0.00099182,-0.99682617,0.183105,0.061035,-0.122070
7684111791,0.01533508,-0.00056458,-0.99684143,0.183105,0.061035,-0.122070
7688905958,0.01533508,-0.00056458,-0.99684143,-0.549316,0.366211,-0.305176
7693944250,0.01518250,0.00047302,-0.99417114,-0.549316,0.366211,-0.305176
7699036166,0.01518250,0.00047302,-0.99417114,-0.061035,0.183105,-0.122070
7704177583,0.01469421,0.00119019,-1.00642395,-0.061035,0.183105,-0.122070
7709281791,0.01469421,0.00119019,-1.00642395,-0.061035,-0.061035,-0.183105
7714382208,0.01530457,0.00207520,-0.98893738,-0.061035,-0.061035,-0.183105
7719507500,0.01530457,0.00207520,-0.98893738,0.122070,0.000000,-0.061035
7724610791,0.01495361,0.00279236,-1.00100708,0.122070,0.000000,-0.061035
7729669500,0.01495361,0.00279236,-1.00100708,0.000000,0.183105,-0.061035
7734799458,0.01383972,0.00392151,-0.99603271,0.000000,0.183105,-0.061035
7739796416,0.01383972,0.00392151,-0.99603271,-0.061035,0.183105,-0.122070
7744879333,0.01515198,0.00413513,-0.99877930,-0.061035,0.183105,-0.122070
7749968916,0.01515198,0.00413513,-0.99877930,0.244141,0.183105,-0.122070
7755054375,0.01531982,0.00421143,-0.99851990,0.244141,0.183105,-0.122070
7760127208,0.01531982,0.00421143,-0.99851990,0.122070,0.244141,-0.061035
7765153541,0.01466370,0.00263977,-0.99813843,0.122070,0.244141,-0.061035
7770293250,0.01466370,0.00263977,-0.99813843,0.061035,0.122070,0.000000
7775150458,0.01493835,0.00202942,-0.99859619,0.061035,0.122070,0.000000
7780100250,0.01493835,0.00202942,-0.99859619,0.122070,0.305176,-0.122070
7784982458,0.01541138,0.00141907,-0.99760437,0.122070,0.305176,-0.122070
7790100541,0.01541138,0.00141907,-0.99760437,0.061035,0.122070,-0.061035
7795263458,0.01554871,0.00096130,-0.99804688,0.061035,0.122070,-0.061035
7799936208,0.01554871,0.00096130,-0.99804688,0.000000,0.305176,-0.122070
7805001625,0.01454163,0.00018311,-0.99798584,0.000000,0.305176,-0.122070
7810106125,0.01454163,0.00018311,-0.99798584,0.244141,0.244141,0.061035
7815207000,0.01429749,-0.00074768,-0.99761963,0.244141,0.244141,0.061035
7820290208,0.01429749,-0.00074768,-0.99761963,-0.122070,0.061035,-0.122070
7825287750,0.01495361,-0.00025940,-0.99850464,-0.122070,0.061035,-0.122070
7830375666,0.01495361,-0.00025940,-0.99850464,0.122070,0.244141,-0.061035
7835492958,0.01493835,-0.00077820,-0.99822998,0.122070,0.244141,-0.061035
7840661625,0.01493835,-0.00077820,-0.99822998,0.000000,0.183105,-0.183105
7845787583,0.01470947,0.00025940,-0.99798584,0.000000,0.183105,-0.183105
7850947958,0.01470947,0.00025940,-0.99798584,0.000000,0.061035,-0.183105
7856070583,0.01423645,0.00077820,-0.99798584,0.000000,0.061035,-0.183105
7861196291,0.01423645,0.00077820,-0.99798584,0.000000,0.122070,-0.122070
7866352916,0.01504517,0.00112915,-0.99841309,0.000000,0.122070,-0.122070
7871503666,0.01504517,0.00112915,-0.99841309,0.122070,0.061035,-0.122070
7876495458,0.01481628,0.00140381,-0.99723816,0.122070,0.061035,-0.122070
7881183000,0.01481628,0.00140381,-0.99723816,0.000000,0.183105,0.000000
7885989958,0.01480103,0.00216675,-0.99835205,0.000000,0.183105,0.000000
7891063041,0.01480103,0.00216675,-0.99835205,0.122070,0.122070,-0.183105
7895814458,0.01445007,0.00236511,-0.99905396,0.122070,0.122070,-0.183105
7900190125,0.01445007,0.00236511,-0.99905396,0.000000,0.061035,-0.122070
7905326791,0.01560974,0.00292969,-0.99821472,0.000000,0.061035,-0.122070
7910219541,0.01560974,0.00292969,-0.99821472,0.183105,0.122070,-0.122070
7915347916,0.01449585,0.00239563,-0.99803162,0.183105,0.122070,-0.122070
7919855458,0.01449585,0.00239563,-0.99803162,0.122070,0.122070,-0.244141
7924958500,0.01507568,0.00131226,-0.99734497,0.122070,0.122070,-0.244141
7930039916,0.01507568,0.00131226,-0.99734497,0.000000,0.061035,-0.183105
7935178916,0.01496887,0.00013733,-0.99824524,0.000000,0.061035,-0.183105
7939914250,0.01496887,0.00013733,-0.99824524,0.000000,0.122070,-0.122070
7945018416,0.01498413,-0.00051880,-0.99829102,0.000000,0.122070,-0.122070
7950121875,0.01498413,-0.00051880,-0.99829102,0.061035,0.061035,-0.244141
7955133000,0.01437378,-0.00051880,-0.99832153,0.061035,0.061035,-0.244141
7959965166,0.01437378,-0.00051880,-0.99832153,0.061035,0.183105,-0.061035
7965089458,0.01362610,-0.00022888,-0.99830627,0.061035,0.183105,-0.061035
7969848541,0.01362610,-0.00022888,-0.99830627,0.122070,0.122070,-0.122070
7974950291,0.01544189,0.00097656,-0.99732971,0.122070,0.122070,-0.122070
7979770458,0.01544189,0.00097656,-0.99732971,0.183105,0.244141,0.000000
7984906000,0.01464844,0.00094604,-0.99833679,0.183105,0.244141,0.000000
7992129583,0.01464844,0.00094604,-0.99833679,0.183105,0.061035,-0.061035
7994681416,0.01400757,0.00221252,-0.99848938,0.183105,0.061035,-0.061035
7999825833,0.01400757,0.00221252,-0.99848938,0.061035,0.183105,-0.122070
8004734875,0.01420593,0.00271606,-0.99746704,0.061035,0.183105,-0.122070
8012384041,0.01420593,0.00271606,-0.99746704,0.061035,0.183105,-0.061035
8014949666,0.01412964,0.00358582,-0.99703979,0.061035,0.183105,-0.061035
8020083041,0.01412964,0.00358582,-0.99703979,0.122070,0.244141,0.000000
8025204958,0.01524353,0.00231934,-0.99754333,0.122070,0.244141,0.000000
8030294416,0.01524353,0.00231934,-0.99754333,0.000000,0.244141,-0.061035
8035172500,0.01570129,0.00239563,-0.99711609,0.000000,0.244141,-0.061035
8040123041,0.01570129,0.00239563,-0.99711609,0.061035,0.183105,0.000000
8045249625,0.01565552,0.00245667,-0.99809265,0.061035,0.183105,0.000000
8049903041,0.01565552,0.00245667,-0.99809265,-0.061035,0.122070,-0.183105
8055008250,0.01556396,0.00155640,-0.99798584,-0.061035,0.122070,-0.183105
8059848708,0.01556396,0.00155640,-0.99798584,0.183105,0.122070,-0.061035
8064982875,0.01506042,0.00088501,-0.99824524,0.183105,0.122070,-0.061035
8069862625,0.01506042,0.00088501,-0.99824524,0.000000,0.122070,-0.244141
8074970500,0.01492310,-0.00015259,-0.99734497,0.000000,0.122070,-0.244141
8079930750,0.01492310,-0.00015259,-0.99734497,0.122070,0.122070,-0.183105
8085112166,0.01539612,-0.00054932,-0.99792480,0.122070,0.122070,-0.183105
8090253166,0.01539612,-0.00054932,-0.99792480,0.244141,-0.061035,-0.122070
8095387916,0.01594543,0.00057983,-0.99707031,0.244141,-0.061035,-0.122070
8100240916,0.01594543,0.00057983,-0.99707031,0.122070,0.000000,-0.183105
8105405333,0.01464844,0.00061035,-0.99467468,0.122070,0.000000,-0.183105
8110548541,0.01464844,0.00061035,-0.99467468,0.915527,-0.122070,-0.305176
8115746708,0.01342773,0.00184631,-0.99826050,0.915527,-0.122070,-0.305176
8120816958,0.01342773,0.00184631,-0.99826050,0.061035,-0.061035,-0.061035
8125857541,0.01307678,0.00283813,-0.99037170,0.061035,-0.061035,-0.061035
8130956791,0.01307678,0.00283813,-0.99037170,0.061035,0.244141,-0.122070
8136156958,0.01458740,0.00405884,-1.00643921,0.061035,0.244141,-0.122070
8141327333,0.01458740,0.00405884,-1.00643921,-0.244141,0.061035,-0.122070
8146414541,0.01368713,0.00309753,-0.99717712,-0.244141,0.061035,-0.122070
8151413250,0.01368713,0.00309753,-0.99717712,0.000000,0.122070,-0.183105
8156544541,0.01379395,0.00227356,-1.00302124,0.000000,0.122070,-0.183105
8161694625,0.01379395,0.00227356,-1.00302124,-0.061035,0.183105,0.000000
8166846708,0.01509094,0.00073242,-1.00187683,-0.061035,0.183105,0.000000
8171971291,0.01509094,0.00073242,-1.00187683,-0.061035,0.000000,0.000000
8177081625,0.01554871,-0.00148010,-0.99905396,-0.061035,0.000000,0.000000
8181897916,0.01554871,-0.00148010,-0.99905396,-0.122070,0.244141,-0.244141
8187018125,0.01510620,-0.00254822,-0.99668884,-0.122070,0.244141,-0.244141
