timestamp_ns,accel_x,accel_y,accel_z,gyro_x,gyro_y,gyro_z
94464791,0.00233459,0.00823975,-1.00640869,0.000000,0.000000,0.000000
110455750,0.00189209,0.00779724,-1.00659180,0.366211,0.000000,-0.061035
110460000,0.00189209,0.00779724,-1.00659180,0.366211,0.061035,-0.122070
113118291,0.00163269,0.00802612,-1.00540161,0.366211,0.061035,-0.122070
121116166,0.00164795,0.00752258,-1.00639343,0.183105,-0.061035,-0.122070
129222125,0.00164795,0.00752258,-1.00639343,0.244141,0.061035,-0.244141
135087916,0.00119019,0.00727844,-1.00784302,0.244141,0.061035,-0.244141
140861583,0.00282288,0.00677490,-1.00675964,0.244141,0.000000,-0.061035
148536958,0.00282288,0.00677490,-1.00675964,0.183105,-0.122070,0.000000
151049583,0.00260925,0.00701904,-1.00550842,0.183105,-0.122070,0.000000
158597875,0.00260925,0.00701904,-1.00550842,0.305176,0.000000,-0.183105
161126250,0.00230408,0.00701904,-1.00656128,0.305176,0.000000,-0.183105
168685458,0.00230408,0.00701904,-1.00656128,0.427246,0.000000,-0.183105
171231166,0.00053406,0.00852966,-1.00683594,0.427246,0.000000,-0.183105
178772291,0.00053406,0.00852966,-1.00683594,0.244141,0.122070,-0.122070
181288083,0.00061035,0.00910950,-1.00660706,0.244141,0.122070,-0.122070
188825875,0.00061035,0.00910950,-1.00660706,0.366211,0.183105,-0.122070
191344916,0.00036621,0.00849915,-1.00666809,0.366211,0.183105,-0.122070
198880541,0.00036621,0.00849915,-1.00666809,0.427246,-0.061035,-0.061035
201415791,0.00068665,0.00773621,-1.00740051,0.427246,-0.061035,-0.061035
208996416,0.00068665,0.00773621,-1.00740051,0.488281,0.000000,-0.061035
211519500,0.00135803,0.00955200,-1.00701904,0.488281,0.000000,-0.061035
219115250,0.00135803,0.00955200,-1.00701904,0.305176,0.061035,-0.061035
221657875,0.00137329,0.01016235,-1.00537109,0.305176,0.061035,-0.061035
226719666,0.00137329,0.01016235,-1.00537109,0.244141,0.000000,-0.122070
231763583,0.00167847,0.00914001,-1.00627136,0.244141,0.000000,-0.122070
236799625,0.00167847,0.00914001,-1.00627136,0.183105,0.061035,0.000000
241847958,0.00184631,0.00798035,-1.00604248,0.183105,0.061035,0.000000
246902000,0.00184631,0.00798035,-1.00604248,0.366211,0.000000,-0.122070
251964708,0.00079346,0.00747681,-1.00686646,0.366211,0.000000,-0.122070
256987916,0.00079346,0.00747681,-1.00686646,0.366211,0.000000,-0.061035
262010083,0.00215149,0.00810242,-1.00605774,0.366211,0.000000,-0.061035
267034583,0.00215149,0.00810242,-1.00605774,0.427246,-0.061035,-0.061035
272057250,0.00175476,0.00793457,-1.00543213,0.427246,-0.061035,-0.061035
277080750,0.00175476,0.00793457,-1.00543213,0.183105,-0.061035,-0.061035
282108500,0.00083923,0.00769043,-1.00634766,0.183105,-0.061035,-0.061035
287128541,0.00083923,0.00769043,-1.00634766,0.244141,0.000000,-0.061035
292152583,0.00160217,0.00801086,-1.00561523,0.244141,0.000000,-0.061035
297180250,0.00160217,0.00801086,-1.00561523,0.488281,0.000000,-0.061035
302210166,0.00180054,0.00737000,-1.00721741,0.488281,0.000000,-0.061035
307257916,0.00180054,0.00737000,-1.00721741,0.305176,0.183105,0.000000
312302708,0.00216675,0.00794983,-1.00531006,0.305176,0.183105,0.000000
317348333,0.00216675,0.00794983,-1.00531006,0.366211,0.122070,-0.183105
322395000,0.00222778,0.00752258,-1.00627136,0.366211,0.122070,-0.183105
327452958,0.00222778,0.00752258,-1.00627136,0.305176,0.061035,-0.122070
332509208,0.00216675,0.00823975,-1.00729370,0.305176,0.061035,-0.122070
337571416,0.00216675,0.00823975,-1.00729370,0.244141,0.122070,-0.122070
342620250,0.00253296,0.00805664,-1.00549316,0.244141,0.122070,-0.122070
347677833,0.00253296,0.00805664,-1.00549316,0.427246,0.061035,0.000000
352746958,0.00170898,0.00865173,-1.00665283,0.427246,0.061035,0.000000
357804083,0.00170898,0.00865173,-1.00665283,0.427246,0.122070,-0.061035
362870375,0.00122070,0.00851440,-1.00614929,0.427246,0.122070,-0.061035
367918250,0.00122070,0.00851440,-1.00614929,0.183105,0.061035,-0.122070
372960500,0.00076294,0.00823975,-1.00675964,0.183105,0.061035,-0.122070
377998250,0.00076294,0.00823975,-1.00675964,0.305176,0.122070,-0.122070
380520416,0.00074768,0.00862122,-1.00637817,0.305176,0.122070,-0.122070
388066500,0.00074768,0.00862122,-1.00637817,0.183105,0.000000,-0.061035
390586083,0.00093079,0.00880432,-1.00674438,0.183105,0.000000,-0.061035
398134541,0.00093079,0.00880432,-1.00674438,0.305176,0.244141,-0.183105
400656208,0.00059509,0.00849915,-1.00556946,0.305176,0.244141,-0.183105
408222791,0.00059509,0.00849915,-1.00556946,0.305176,0.061035,-0.061035
410748500,0.00119019,0.00918579,-1.00605774,0.305176,0.061035,-0.061035
418448208,0.00119019,0.00918579,-1.00605774,0.183105,0.061035,-0.244141
421004083,0.00137329,0.00881958,-1.00683594,0.183105,0.061035,-0.244141
428590166,0.00137329,0.00881958,-1.00683594,0.244141,0.122070,-0.061035
431121833,0.00125122,0.00758362,-1.00498962,0.244141,0.122070,-0.061035
438358875,0.00125122,0.00758362,-1.00498962,0.183105,-0.061035,-0.122070
440558291,0.00296021,0.00721741,-1.00637817,0.183105,-0.061035,-0.122070
448161583,0.00296021,0.00721741,-1.00637817,0.305176,0.122070,-0.061035
450693708,0.00270081,0.00642395,-1.00587463,0.305176,0.122070,-0.061035
458291916,0.00270081,0.00642395,-1.00587463,0.305176,0.061035,-0.122070
460838791,0.00100708,0.00660706,-1.00628662,0.305176,0.061035,-0.122070
468277666,0.00100708,0.00660706,-1.00628662,0.122070,0.000000,-0.061035
470818291,0.00158691,0.00680542,-1.00627136,0.122070,0.000000,-0.061035
478193125,0.00158691,0.00680542,-1.00627136,0.305176,-0.061035,-0.061035
480780833,0.00067139,0.00769043,-1.00517273,0.305176,-0.061035,-0.061035
488389708,0.00067139,0.00769043,-1.00517273,0.366211,0.183105,-0.183105
490941416,0.00141907,0.00868225,-1.00671387,0.366211,0.183105,-0.183105
498505541,0.00141907,0.00868225,-1.00671387,0.183105,-0.061035,0.000000
501066166,0.00091553,0.00987244,-1.00639343,0.183105,-0.061035,0.000000
508755458,0.00091553,0.00987244,-1.00639343,0.427246,-0.061035,-0.061035
511335958,0.00097656,0.00955200,-1.00630188,0.427246,-0.061035,-0.061035
518938958,0.00097656,0.00955200,-1.00630188,0.305176,0.183105,-0.122070
521496625,0.00140381,0.00915527,-1.00634766,0.305176,0.183105,-0.122070
529101083,0.00140381,0.00915527,-1.00634766,0.366211,0.000000,0.000000
531643541,0.00155640,0.00773621,-1.00723267,0.366211,0.000000,0.000000
539079291,0.00155640,0.00773621,-1.00723267,0.122070,-0.122070,-0.183105
541654958,0.00163269,0.00714111,-1.00502014,0.122070,-0.122070,-0.183105
546763041,0.00163269,0.00714111,-1.00502014,0.366211,0.000000,-0.061035
551841583,0.00167847,0.00895691,-1.00613403,0.366211,0.000000,-0.061035
556947875,0.00167847,0.00895691,-1.00613403,0.305176,-0.061035,-0.122070
562036583,0.00202942,0.00817871,-1.00598145,0.305176,-0.061035,-0.122070
569260291,0.00202942,0.00817871,-1.00598145,0.366211,0.183105,-0.061035
571815333,0.00152588,0.00657654,-1.00701904,0.366211,0.183105,-0.061035
576891083,0.00152588,0.00657654,-1.00701904,0.366211,-0.122070,-0.122070
581955458,0.00233459,0.00688171,-1.00694275,0.366211,-0.122070,-0.122070
587050916,0.00233459,0.00688171,-1.00694275,0.366211,0.061035,0.000000
592131791,0.00257874,0.00791931,-1.00613403,0.366211,0.061035,0.000000
597213708,0.00257874,0.00791931,-1.00613403,0.427246,0.061035,-0.061035
602303833,0.00152588,0.00839233,-1.00708008,0.427246,0.061035,-0.061035
607388291,0.00152588,0.00839233,-1.00708008,0.427246,0.000000,-0.061035
612471916,0.00210571,0.00779724,-1.00622559,0.427246,0.000000,-0.061035
617552041,0.00210571,0.00779724,-1.00622559,0.183105,0.122070,-0.122070
622218666,0.00143433,0.00827026,-1.00543213,0.183105,0.122070,-0.122070
627312208,0.00143433,0.00827026,-1.00543213,0.244141,0.122070,-0.061035
632403833,0.00036621,0.00827026,-1.00648499,0.244141,0.122070,-0.061035
637475583,0.00036621,0.00827026,-1.00648499,0.366211,0.000000,0.000000
642262541,0.00041199,0.00840759,-1.00637817,0.366211,0.000000,0.000000
647334791,0.00041199,0.00840759,-1.00637817,0.244141,0.000000,0.000000
652180458,0.00094604,0.00906372,-1.00720215,0.244141,0.000000,0.000000
657263875,0.00094604,0.00906372,-1.00720215,0.366211,0.061035,-0.122070
662356833,0.00082397,0.00816345,-1.00576782,0.366211,0.061035,-0.122070
667433625,0.00082397,0.00816345,-1.00576782,0.366211,0.000000,-0.061035
672229375,0.00161743,0.00808716,-1.00692749,0.366211,0.000000,-0.061035
677323791,0.00161743,0.00808716,-1.00692749,0.305176,0.122070,0.000000
682400208,0.00169373,0.00831604,-1.00643921,0.305176,0.122070,0.000000
687470875,0.00169373,0.00831604,-1.00643921,0.366211,0.122070,-0.061035
692551333,0.00135803,0.00781250,-1.00634766,0.366211,0.122070,-0.061035
697625000,0.00135803,0.00781250,-1.00634766,0.305176,0.000000,-0.122070
702698375,0.00242615,0.00703430,-1.00595093,0.305176,0.000000,-0.122070
707764791,0.00242615,0.00703430,-1.00595093,0.305176,0.061035,-0.122070
712842125,0.00219727,0.00720215,-1.00625610,0.305176,0.061035,-0.122070
717907458,0.00219727,0.00720215,-1.00625610,0.244141,0.000000,-0.122070
723024833,0.00212097,0.00762939,-1.00645447,0.244141,0.000000,-0.122070
727983875,0.00212097,0.00762939,-1.00645447,0.305176,0.122070,-0.061035
733066666,0.00178528,0.00737000,-1.00648499,0.305176,0.122070,-0.061035
738076333,0.00178528,0.00737000,-1.00648499,0.366211,0.000000,0.000000
742745500,0.00178528,0.00779724,-1.00697327,0.366211,0.000000,0.000000
747824125,0.00178528,0.00779724,-1.00697327,0.427246,0.061035,-0.122070
752889208,0.00117493,0.00839233,-1.00637817,0.427246,0.061035,-0.122070
757962250,0.00117493,0.00839233,-1.00637817,0.366211,0.000000,0.000000
760535541,0.00112915,0.00833130,-1.00691223,0.366211,0.000000,0.000000
768125416,0.00112915,0.00833130,-1.00691223,0.366211,0.122070,-0.122070
770664416,0.00004578,0.00814819,-1.00650024,0.366211,0.122070,-0.122070
778160875,0.00004578,0.00814819,-1.00650024,0.244141,0.122070,-0.061035
780708458,0.00071716,0.00862122,-1.00592041,0.244141,0.122070,-0.061035
787876125,0.00071716,0.00862122,-1.00592041,0.244141,0.000000,-0.061035
792038250,0.00067139,0.00880432,-1.00608826,0.244141,0.000000,-0.061035
797122208,0.00067139,0.00880432,-1.00608826,0.183105,-0.061035,-0.061035
802187375,0.00115967,0.00802612,-1.00559998,0.183105,-0.061035,-0.061035
807271208,0.00115967,0.00802612,-1.00559998,0.366211,-0.061035,0.000000
812355416,0.00126648,0.00711060,-1.00587463,0.366211,-0.061035,0.000000
817435541,0.00126648,0.00711060,-1.00587463,0.244141,0.000000,-0.061035
822225125,0.00161743,0.00747681,-1.00471497,0.244141,0.000000,-0.061035
827325583,0.00161743,0.00747681,-1.00471497,0.244141,0.061035,-0.183105
832394041,0.00135803,0.00794983,-1.00712585,0.244141,0.061035,-0.183105
837477666,0.00135803,0.00794983,-1.00712585,0.244141,0.061035,-0.122070
842519458,0.00131226,0.00726318,-1.00619507,0.244141,0.061035,-0.122070
847597583,0.00131226,0.00726318,-1.00619507,0.366211,0.061035,-0.122070
852567916,0.00205994,0.00761414,-1.00715637,0.366211,0.061035,-0.122070
857654541,0.00205994,0.00761414,-1.00715637,0.488281,0.122070,-0.061035
862739750,0.00260925,0.00770569,-1.00697327,0.488281,0.122070,-0.061035
867298000,0.00260925,0.00770569,-1.00697327,0.305176,0.000000,-0.061035
872504541,0.00181580,0.00798035,-1.00563049,0.305176,0.000000,-0.061035
877595416,0.00181580,0.00798035,-1.00563049,0.427246,0.183105,-0.122070
882671750,0.00080872,0.00790405,-1.00672913,0.427246,0.183105,-0.122070
887528500,0.00080872,0.00790405,-1.00672913,0.366211,0.061035,-0.061035
892595791,0.00126648,0.00747681,-1.00547791,0.366211,0.061035,-0.061035
897661125,0.00126648,0.00747681,-1.00547791,0.244141,0.122070,-0.061035
902725125,0.00102234,0.00781250,-1.00703430,0.244141,0.122070,-0.061035
907789750,0.00102234,0.00781250,-1.00703430,0.305176,-0.122070,-0.061035
912855041,0.00155640,0.00765991,-1.00576782,0.305176,-0.122070,-0.061035
917901291,0.00155640,0.00765991,-1.00576782,0.305176,0.122070,-0.122070
922803750,0.00216675,0.00744629,-1.00642395,0.305176,0.122070,-0.122070
927885166,0.00216675,0.00744629,-1.00642395,0.305176,0.000000,-0.061035
932779541,0.00144958,0.00846863,-1.00730896,0.305176,0.000000,-0.061035
937819416,0.00144958,0.00846863,-1.00730896,0.427246,0.000000,0.000000
942851125,0.00177002,0.00889587,-1.00682068,0.427246,0.000000,0.000000
947879000,0.00177002,0.00889587,-1.00682068,0.427246,-0.122070,0.122070
952901708,0.00141907,0.00875854,-1.00645447,0.427246,-0.122070,0.122070
957924750,0.00141907,0.00875854,-1.00645447,0.305176,0.061035,0.000000
962944750,0.00100708,0.00793457,-1.00628662,0.305176,0.061035,0.000000
967966208,0.00100708,0.00793457,-1.00628662,0.305176,-0.061035,0.000000
972991791,0.00163269,0.00732422,-1.00698853,0.305176,-0.061035,0.000000
978046250,0.00163269,0.00732422,-1.00698853,0.305176,0.000000,-0.061035
980606166,0.00099182,0.00787354,-1.00666809,0.305176,0.000000,-0.061035
988180833,0.00099182,0.00787354,-1.00666809,0.305176,0.061035,-0.061035
990700416,0.00132751,0.00779724,-1.00616455,0.305176,0.061035,-0.061035
998292916,0.00132751,0.00779724,-1.00616455,0.366211,0.061035,-0.061035
1000813583,0.00111389,0.00714111,-1.00607300,0.366211,0.061035,-0.061035
1008378958,0.00111389,0.00714111,-1.00607300,0.427246,0.061035,-0.183105
1010892625,0.00184631,0.00787354,-1.00492859,0.427246,0.061035,-0.183105
1018448833,0.00184631,0.00787354,-1.00492859,0.488281,0.122070,0.122070
1020961125,0.00161743,0.00778198,-1.00556946,0.488281,0.122070,0.122070
1028498583,0.00161743,0.00778198,-1.00556946,0.366211,0.061035,-0.122070
1031012375,0.00134277,0.00788879,-1.00572205,0.366211,0.061035,-0.122070
1038528375,0.00134277,0.00788879,-1.00572205,0.305176,0.000000,-0.122070
1041060083,0.00096130,0.00798035,-1.00759888,0.305176,0.000000,-0.122070
1048604208,0.00096130,0.00798035,-1.00759888,0.305176,-0.061035,-0.183105
1051123333,0.00053406,0.00738525,-1.00546265,0.305176,-0.061035,-0.183105
1058678375,0.00053406,0.00738525,-1.00546265,0.244141,-0.061035,0.000000
1061212875,0.00148010,0.00796509,-1.00679016,0.244141,-0.061035,0.000000
1068781250,0.00148010,0.00796509,-1.00679016,0.305176,0.061035,0.061035
1071317458,0.00257874,0.00830078,-1.00474548,0.305176,0.061035,0.061035
1078894625,0.00257874,0.00830078,-1.00474548,0.427246,0.000000,-0.061035
1081433916,0.00152588,0.00793457,-1.00660706,0.427246,0.000000,-0.061035
1089008333,0.00152588,0.00793457,-1.00660706,0.427246,0.061035,0.061035
1091548041,0.00111389,0.00793457,-1.00674438,0.427246,0.061035,0.061035
1099139958,0.00111389,0.00793457,-1.00674438,0.427246,0.061035,0.000000
1101677291,0.00053406,0.00814819,-1.00605774,0.427246,0.061035,0.000000
1109267166,0.00053406,0.00814819,-1.00605774,0.427246,0.122070,-0.183105
1111813875,0.00067139,0.00814819,-1.00608826,0.427246,0.122070,-0.183105
1116934083,0.00067139,0.00814819,-1.00608826,0.427246,0.061035,-0.061035
1122040083,0.00161743,0.00878906,-1.00671387,0.427246,0.061035,-0.061035
1127117250,0.00161743,0.00878906,-1.00671387,0.427246,0.183105,-0.061035
1131977833,0.00164795,0.00794983,-1.00593567,0.427246,0.183105,-0.061035
1137021000,0.00164795,0.00794983,-1.00593567,0.305176,0.061035,0.000000
1142080791,0.00245667,0.00756836,-1.00567627,0.305176,0.061035,0.000000
1146878750,0.00245667,0.00756836,-1.00567627,0.183105,0.061035,-0.061035
1151952291,0.00204468,0.00796509,-1.00576782,0.183105,0.061035,-0.061035
1157008583,0.00204468,0.00796509,-1.00576782,0.366211,0.000000,-0.061035
1162078500,0.00088501,0.00726318,-1.00700378,0.366211,0.000000,-0.061035
1169225625,0.00088501,0.00726318,-1.00700378,0.305176,0.061035,-0.122070
1171639375,0.00114441,0.00711060,-1.00569153,0.305176,0.061035,-0.122070
1179243750,0.00114441,0.00711060,-1.00569153,0.305176,-0.061035,-0.061035
1181807125,0.00085449,0.00737000,-1.00527954,0.305176,-0.061035,-0.061035
1186912541,0.00085449,0.00737000,-1.00527954,0.305176,-0.061035,-0.122070
1191979416,0.00134277,0.00794983,-1.00509644,0.305176,-0.061035,-0.122070
1197052833,0.00134277,0.00794983,-1.00509644,0.305176,0.000000,-0.061035
1201963125,0.00122070,0.00794983,-1.00703430,0.305176,0.000000,-0.061035
1207034291,0.00122070,0.00794983,-1.00703430,0.305176,0.122070,0.000000
1212100041,0.00068665,0.00807190,-1.00524902,0.305176,0.122070,0.000000
1217105750,0.00068665,0.00807190,-1.00524902,0.244141,0.122070,0.000000
1222182333,0.00103760,0.00776672,-1.00617981,0.244141,0.122070,0.000000
1226955791,0.00103760,0.00776672,-1.00617981,0.427246,0.122070,-0.061035
1232016625,0.00163269,0.00793457,-1.00627136,0.427246,0.122070,-0.061035
1237082208,0.00163269,0.00793457,-1.00627136,0.305176,0.061035,0.000000
1242162625,0.00134277,0.00822449,-1.00692749,0.305176,0.061035,0.000000
1247005666,0.00134277,0.00822449,-1.00692749,0.305176,0.183105,-0.061035
1252077416,0.00094604,0.00808716,-1.00657654,0.305176,0.183105,-0.061035
1257148583,0.00094604,0.00808716,-1.00657654,0.244141,0.183105,-0.061035
1262228250,0.00096130,0.00804138,-1.00738525,0.244141,0.183105,-0.061035
1267304333,0.00096130,0.00804138,-1.00738525,0.305176,0.000000,-0.122070
1272369750,0.00129700,0.00793457,-1.00662231,0.305176,0.000000,-0.122070
1277434291,0.00129700,0.00793457,-1.00662231,0.244141,0.061035,-0.061035
1282409625,0.00105286,0.00721741,-1.00596619,0.244141,0.061035,-0.061035
1287077041,0.00105286,0.00721741,-1.00596619,0.366211,0.000000,0.000000
1292153375,0.00071716,0.00814819,-1.00801086,0.366211,0.000000,0.000000
1297272375,0.00071716,0.00814819,-1.00801086,0.427246,0.122070,-0.061035
1302335750,0.00219727,0.00810242,-1.00640869,0.427246,0.122070,-0.061035
1306983250,0.00219727,0.00810242,-1.00640869,0.366211,0.122070,-0.122070
1312029500,0.00170898,0.00816345,-1.00625610,0.366211,0.122070,-0.122070
1317077500,0.00170898,0.00816345,-1.00625610,0.305176,0.122070,0.061035
1321988750,0.00138855,0.00831604,-1.00614929,0.305176,0.122070,0.061035
1327069833,0.00138855,0.00831604,-1.00614929,0.244141,0.000000,-0.061035
1331888750,0.00135803,0.00813293,-1.00595093,0.244141,0.000000,-0.061035
1336968166,0.00135803,0.00813293,-1.00595093,0.366211,0.000000,-0.183105
1342070750,0.00178528,0.00817871,-1.00592041,0.366211,0.000000,-0.183105
1347232958,0.00178528,0.00817871,-1.00592041,0.366211,0.061035,-0.183105
1352338958,0.00138855,0.00817871,-1.00614929,0.366211,0.061035,-0.183105
1357425208,0.00138855,0.00817871,-1.00614929,0.427246,-0.061035,-0.061035
1362535791,0.00141907,0.00758362,-1.00630188,0.427246,-0.061035,-0.061035
1367621333,0.00141907,0.00758362,-1.00630188,0.366211,0.061035,-0.183105
1372694833,0.00132751,0.00834656,-1.00602722,0.366211,0.061035,-0.183105
1377758541,0.00132751,0.00834656,-1.00602722,0.305176,0.061035,0.000000
1382832666,0.00183105,0.00816345,-1.00607300,0.305176,0.061035,0.000000
1387922541,0.00183105,0.00816345,-1.00607300,0.244141,0.061035,-0.183105
1393034000,0.00242615,0.00840759,-1.00578308,0.244141,0.061035,-0.183105
1398106916,0.00242615,0.00840759,-1.00578308,0.305176,0.000000,0.000000
1400725125,0.00157166,0.00798035,-1.00617981,0.305176,0.000000,0.000000
1408403000,0.00157166,0.00798035,-1.00617981,0.366211,0.000000,0.000000
1411066791,0.00173950,0.00741577,-1.00668335,0.366211,0.000000,0.000000
1418716250,0.00173950,0.00741577,-1.00668335,0.244141,-0.122070,-0.122070
1421282583,0.00183105,0.00750732,-1.00508118,0.244141,-0.122070,-0.122070
1428919625,0.00183105,0.00750732,-1.00508118,0.305176,0.061035,-0.122070
1431481916,0.00164795,0.00787354,-1.00688171,0.305176,0.061035,-0.122070
1438884375,0.00164795,0.00787354,-1.00688171,0.244141,0.000000,-0.244141
1441451166,0.00068665,0.00849915,-1.00563049,0.244141,0.000000,-0.244141
1449074500,0.00068665,0.00849915,-1.00563049,0.305176,0.183105,-0.122070
1451643375,0.00160217,0.00874329,-1.00746155,0.305176,0.183105,-0.122070
1458868083,0.00160217,0.00874329,-1.00746155,0.427246,0.122070,-0.122070
1461435541,0.00157166,0.00833130,-1.00590515,0.427246,0.122070,-0.122070
1469049083,0.00157166,0.00833130,-1.00590515,0.305176,0.061035,-0.061035
1471603291,0.00123596,0.00881958,-1.00611877,0.305176,0.061035,-0.061035
1479041833,0.00123596,0.00881958,-1.00611877,0.366211,0.061035,-0.122070
1481587791,0.00061035,0.00865173,-1.00624084,0.366211,0.061035,-0.122070
1488907833,0.00061035,0.00865173,-1.00624084,0.305176,0.000000,-0.061035
1491336125,0.00228882,0.00749207,-1.00556946,0.305176,0.000000,-0.061035
1498618041,0.00228882,0.00749207,-1.00556946,0.244141,0.000000,0.061035
1501181041,0.00155640,0.00752258,-1.00526428,0.244141,0.000000,0.061035
1508836500,0.00155640,0.00752258,-1.00526428,0.305176,0.000000,-0.061035
1511416250,0.00158691,0.00880432,-1.00593567,0.305176,0.000000,-0.061035
1519080750,0.00158691,0.00880432,-1.00593567,0.244141,0.000000,-0.061035
1521666916,0.00204468,0.00848389,-1.00637817,0.244141,0.000000,-0.061035
1529280875,0.00204468,0.00848389,-1.00637817,0.488281,-0.122070,-0.061035
1531833166,0.00253296,0.00759888,-1.00599670,0.488281,-0.122070,-0.061035
1536935583,0.00253296,0.00759888,-1.00599670,0.244141,0.122070,0.061035
1541609375,0.00205994,0.00791931,-1.00675964,0.244141,0.122070,0.061035
1549238750,0.00205994,0.00791931,-1.00675964,0.427246,0.000000,-0.061035
1551798791,0.00239563,0.00756836,-1.00625610,0.427246,0.000000,-0.061035
1559421583,0.00239563,0.00756836,-1.00625610,0.366211,0.122070,-0.061035
1561977041,0.00251770,0.00807190,-1.00563049,0.366211,0.122070,-0.061035
1569599083,0.00251770,0.00807190,-1.00563049,0.244141,0.000000,-0.183105
1572145291,0.00180054,0.00820923,-1.00610352,0.244141,0.000000,-0.183105
1579746750,0.00180054,0.00820923,-1.00610352,0.244141,0.061035,-0.061035
1582301625,0.00120544,0.00778198,-1.00563049,0.244141,0.061035,-0.061035
1587421708,0.00120544,0.00778198,-1.00563049,0.305176,-0.061035,-0.061035
1592527041,0.00143433,0.00813293,-1.00688171,0.305176,-0.061035,-0.061035
1597600958,0.00143433,0.00813293,-1.00688171,0.305176,0.061035,0.000000
1602695333,0.00123596,0.00793457,-1.00579834,0.305176,0.061035,0.000000
1607802125,0.00123596,0.00793457,-1.00579834,0.366211,0.000000,-0.061035
1612943916,0.00169373,0.00865173,-1.00668335,0.366211,0.000000,-0.061035
1618062625,0.00169373,0.00865173,-1.00668335,0.305176,0.000000,-0.061035
1623160041,0.00151062,0.00759888,-1.00483704,0.305176,0.000000,-0.061035
1628250500,0.00151062,0.00759888,-1.00483704,0.427246,0.122070,0.000000
1630804041,0.00155640,0.00704956,-1.00666809,0.427246,0.122070,0.000000
1638433625,0.00155640,0.00704956,-1.00666809,0.427246,-0.061035,-0.122070
1640996625,0.00271606,0.00827026,-1.00656128,0.427246,-0.061035,-0.122070
1648586833,0.00271606,0.00827026,-1.00656128,0.305176,-0.061035,-0.122070
1651140125,0.00263977,0.00762939,-1.00581360,0.305176,-0.061035,-0.122070
1658738375,0.00263977,0.00762939,-1.00581360,0.244141,0.061035,-0.061035
1660942458,0.00294495,0.00782776,-1.00630188,0.244141,0.061035,-0.061035
1668552125,0.00294495,0.00782776,-1.00630188,0.366211,-0.061035,-0.122070
1671097583,0.00219727,0.00833130,-1.00636292,0.366211,-0.061035,-0.122070
1678697625,0.00219727,0.00833130,-1.00636292,0.305176,0.000000,-0.122070
1681243333,0.00146484,0.00727844,-1.00634766,0.305176,0.000000,-0.122070
1688860250,0.00146484,0.00727844,-1.00634766,0.366211,0.061035,-0.122070
1691414375,0.00189209,0.00772095,-1.00596619,0.366211,0.061035,-0.122070
1699016916,0.00189209,0.00772095,-1.00596619,0.427246,0.061035,-0.122070
1701606416,0.00256348,0.00874329,-1.00660706,0.427246,0.061035,-0.122070
1708885375,0.00256348,0.00874329,-1.00660706,0.427246,0.061035,-0.061035
1711438000,0.00143433,0.00747681,-1.00677490,0.427246,0.061035,-0.061035
1719030250,0.00143433,0.00747681,-1.00677490,0.122070,0.000000,0.000000
1721568583,0.00054932,0.00811768,-1.00573730,0.122070,0.000000,0.000000
1729156083,0.00054932,0.00811768,-1.00573730,0.244141,0.183105,-0.122070
1731708833,0.00210571,0.00830078,-1.00740051,0.244141,0.183105,-0.122070
1739306541,0.00210571,0.00830078,-1.00740051,0.305176,0.122070,-0.061035
1741858291,0.00224304,0.00834656,-1.00605774,0.305176,0.122070,-0.061035
1749458000,0.00224304,0.00834656,-1.00605774,0.244141,0.061035,-0.244141
1751955791,0.00183105,0.00885010,-1.00732422,0.244141,0.061035,-0.244141
1759574458,0.00183105,0.00885010,-1.00732422,0.244141,0.000000,0.000000
1762117625,0.00091553,0.00843811,-1.00650024,0.244141,0.000000,0.000000
1769727333,0.00091553,0.00843811,-1.00650024,0.244141,0.000000,0.000000
1772274833,0.00132751,0.00830078,-1.00617981,0.244141,0.000000,0.000000
1779862708,0.00132751,0.00830078,-1.00617981,0.244141,0.000000,0.000000
1782446250,0.00205994,0.00859070,-1.00584412,0.244141,0.000000,0.000000
1787539458,0.00205994,0.00859070,-1.00584412,0.244141,0.000000,-0.061035
1792247791,0.00108337,0.00756836,-1.00596619,0.244141,0.000000,-0.061035
1799872500,0.00108337,0.00756836,-1.00596619,0.305176,0.122070,0.000000
1802489291,0.00080872,0.00814819,-1.00625610,0.305176,0.122070,0.000000
1807598458,0.00080872,0.00814819,-1.00625610,0.427246,0.061035,-0.244141
1812705166,0.00173950,0.00862122,-1.00526428,0.427246,0.061035,-0.244141
1817690541,0.00173950,0.00862122,-1.00526428,0.244141,0.122070,-0.061035
1822873000,0.00190735,0.00762939,-1.00720215,0.244141,0.122070,-0.061035
1827559250,0.00190735,0.00762939,-1.00720215,0.427246,0.122070,0.000000
1832637958,0.00181580,0.00704956,-1.00622559,0.427246,0.122070,0.000000
1837751000,0.00181580,0.00704956,-1.00622559,0.244141,0.061035,-0.061035
1842847625,0.00173950,0.00752258,-1.00639343,0.244141,0.061035,-0.061035
1847935166,0.00173950,0.00752258,-1.00639343,0.305176,-0.061035,-0.122070
1853015291,0.00239563,0.00753784,-1.00578308,0.305176,-0.061035,-0.122070
1858091791,0.00239563,0.00753784,-1.00578308,0.366211,-0.122070,-0.122070
1863163458,0.00155640,0.00877380,-1.00730896,0.366211,-0.122070,-0.122070
1868237500,0.00155640,0.00877380,-1.00730896,0.183105,0.122070,0.000000
1870808291,0.00254822,0.00791931,-1.00721741,0.183105,0.122070,0.000000
1878424291,0.00254822,0.00791931,-1.00721741,0.366211,0.061035,-0.183105
1880965583,0.00169373,0.00717163,-1.00625610,0.366211,0.061035,-0.183105
1888630500,0.00169373,0.00717163,-1.00625610,0.183105,0.122070,-0.061035
1891252791,0.00170898,0.00782776,-1.00651550,0.183105,0.122070,-0.061035
1898924750,0.00170898,0.00782776,-1.00651550,0.366211,0.122070,-0.122070
1901493541,0.00195312,0.00833130,-1.00581360,0.366211,0.122070,-0.122070
1909199125,0.00195312,0.00833130,-1.00581360,0.305176,0.122070,-0.183105
1911766875,0.00192261,0.00845337,-1.00646973,0.305176,0.122070,-0.183105
1919386916,0.00192261,0.00845337,-1.00646973,0.427246,0.061035,-0.122070
1921942083,0.00123596,0.00811768,-1.00610352,0.427246,0.061035,-0.122070
1929562208,0.00123596,0.00811768,-1.00610352,0.244141,0.061035,-0.122070
1932114166,0.00091553,0.00802612,-1.00610352,0.244141,0.061035,-0.122070
1939735250,0.00091553,0.00802612,-1.00610352,0.244141,0.061035,-0.183105
1942284416,0.00123596,0.00828552,-1.00604248,0.244141,0.061035,-0.183105
1947403166,0.00123596,0.00828552,-1.00604248,0.366211,0.122070,-0.061035
1952482916,0.00230408,0.00770569,-1.00506592,0.366211,0.122070,-0.061035
1957564625,0.00230408,0.00770569,-1.00506592,0.305176,0.000000,-0.122070
1962654791,0.00132751,0.00691223,-1.00680542,0.305176,0.000000,-0.122070
1967728708,0.00132751,0.00691223,-1.00680542,0.427246,0.122070,-0.122070
1972795500,0.00120544,0.00837708,-1.00570679,0.427246,0.122070,-0.122070
1977858916,0.00120544,0.00837708,-1.00570679,0.183105,0.061035,-0.061035
1982925000,0.00125122,0.00851440,-1.00744629,0.183105,0.061035,-0.061035
1987740291,0.00125122,0.00851440,-1.00744629,0.183105,0.183105,0.000000
1992812500,0.00129700,0.00772095,-1.00674438,0.183105,0.183105,0.000000
1997887750,0.00129700,0.00772095,-1.00674438,0.183105,0.000000,0.000000
2002346083,0.00224304,0.00773621,-1.00706482,0.183105,0.000000,0.000000
2007428416,0.00224304,0.00773621,-1.00706482,0.366211,0.061035,-0.122070
2012757250,0.00152588,0.00733948,-1.00582886,0.366211,0.061035,-0.122070
2017386625,0.00152588,0.00733948,-1.00582886,0.244141,0.122070,-0.061035
2022486500,0.00205994,0.00816345,-1.00685120,0.244141,0.122070,-0.061035
2027576250,0.00205994,0.00816345,-1.00685120,0.244141,0.061035,0.000000
2032669041,0.00108337,0.00823975,-1.00677490,0.244141,0.061035,0.000000
2037743666,0.00108337,0.00823975,-1.00677490,0.305176,0.183105,0.061035
2042926916,-0.00009155,0.00848389,-1.00663757,0.305176,0.183105,0.061035
2048046375,-0.00009155,0.00848389,-1.00663757,0.366211,0.061035,-0.183105
2053143291,0.00102234,0.00822449,-1.00663757,0.366211,0.061035,-0.183105
2058216916,0.00102234,0.00822449,-1.00663757,0.244141,0.061035,-0.183105
2063333416,0.00184631,0.00866699,-1.00646973,0.244141,0.061035,-0.183105
2068406375,0.00184631,0.00866699,-1.00646973,0.305176,-0.122070,-0.183105
2070944416,0.00120544,0.00839233,-1.00660706,0.305176,-0.122070,-0.183105
2078572416,0.00120544,0.00839233,-1.00660706,0.366211,0.000000,-0.061035
2081131666,0.00193787,0.00827026,-1.00596619,0.366211,0.000000,-0.061035
2088752083,0.00193787,0.00827026,-1.00596619,0.244141,0.061035,0.000000
2091318500,0.00192261,0.00918579,-1.00607300,0.244141,0.061035,0.000000
2098925416,0.00192261,0.00918579,-1.00607300,0.305176,0.183105,-0.122070
2101465625,0.00227356,0.00787354,-1.00662231,0.305176,0.183105,-0.122070
2109073250,0.00227356,0.00787354,-1.00662231,0.244141,-0.061035,0.000000
2111635000,0.00186157,0.00753784,-1.00627136,0.244141,-0.061035,0.000000
2118922416,0.00186157,0.00753784,-1.00627136,0.305176,0.000000,-0.122070
2121465833,0.00158691,0.00767517,-1.00683594,0.305176,0.000000,-0.122070
2129083250,0.00158691,0.00767517,-1.00683594,0.244141,0.122070,-0.183105
2131624666,0.00128174,0.00842285,-1.00517273,0.244141,0.122070,-0.183105
2138871708,0.00128174,0.00842285,-1.00517273,0.244141,0.000000,0.000000
2141411041,0.00195312,0.00769043,-1.00598145,0.244141,0.000000,0.000000
2148571625,0.00195312,0.00769043,-1.00598145,0.366211,0.122070,0.061035
2151108916,0.00256348,0.00837708,-1.00570679,0.366211,0.122070,0.061035
2158593583,0.00256348,0.00837708,-1.00570679,0.549316,0.061035,-0.061035
2161134708,0.00181580,0.00801086,-1.00714111,0.549316,0.061035,-0.061035
2168693750,0.00181580,0.00801086,-1.00714111,0.244141,0.122070,-0.183105
2171230250,0.00160217,0.00825500,-1.00582886,0.244141,0.122070,-0.183105
2178790125,0.00160217,0.00825500,-1.00582886,0.366211,0.000000,-0.061035
2181120083,0.00183105,0.00802612,-1.00578308,0.366211,0.000000,-0.061035
2188726500,0.00183105,0.00802612,-1.00578308,0.305176,0.000000,-0.122070
2191266208,0.00088501,0.00804138,-1.00675964,0.305176,0.000000,-0.122070
2198868583,0.00088501,0.00804138,-1.00675964,0.305176,0.061035,-0.061035
2201429500,0.00082397,0.00872803,-1.00624084,0.305176,0.061035,-0.061035
2208877125,0.00082397,0.00872803,-1.00624084,0.427246,0.000000,-0.122070
2211429083,0.00151062,0.00837708,-1.00732422,0.427246,0.000000,-0.122070
2219043166,0.00151062,0.00837708,-1.00732422,0.183105,0.061035,-0.305176
2221593916,0.00106812,0.00794983,-1.00596619,0.183105,0.061035,-0.305176
2229134041,0.00106812,0.00794983,-1.00596619,0.244141,0.061035,-0.061035
2231676750,0.00100708,0.00782776,-1.00637817,0.244141,0.061035,-0.061035
2238883625,0.00100708,0.00782776,-1.00637817,0.366211,0.000000,-0.061035
2241423625,0.00067139,0.00831604,-1.00585938,0.366211,0.000000,-0.061035
2249024416,0.00067139,0.00831604,-1.00585938,0.244141,0.122070,-0.122070
2251561541,0.00144958,0.00857544,-1.00546265,0.244141,0.122070,-0.122070
2259163750,0.00144958,0.00857544,-1.00546265,0.427246,0.000000,-0.061035
2261706666,0.00170898,0.00765991,-1.00689697,0.427246,0.000000,-0.061035
2269265583,0.00170898,0.00765991,-1.00689697,0.305176,0.000000,-0.183105
2271803958,0.00221252,0.00764465,-1.00633240,0.305176,0.000000,-0.183105
2279403291,0.00221252,0.00764465,-1.00633240,0.305176,0.061035,-0.122070
2281951500,0.00097656,0.00794983,-1.00680542,0.305176,0.061035,-0.122070
2289561500,0.00097656,0.00794983,-1.00680542,0.244141,0.061035,-0.122070
2292121208,0.00129700,0.00819397,-1.00558472,0.244141,0.061035,-0.122070
2299733000,0.00129700,0.00819397,-1.00558472,0.244141,0.061035,-0.183105
2302299041,0.00109863,0.00828552,-1.00654602,0.244141,0.061035,-0.183105
2307376166,0.00109863,0.00828552,-1.00654602,0.305176,-0.061035,-0.061035
2312456125,0.00131226,0.00811768,-1.00540161,0.305176,-0.061035,-0.061035
2317528958,0.00131226,0.00811768,-1.00540161,0.183105,0.000000,0.000000
2322620291,0.00135803,0.00724792,-1.00601196,0.183105,0.000000,0.000000
2327717208,0.00135803,0.00724792,-1.00601196,0.305176,-0.061035,-0.061035
2332786625,0.00152588,0.00895691,-1.00605774,0.305176,-0.061035,-0.061035
2337851250,0.00152588,0.00895691,-1.00605774,0.427246,0.000000,-0.061035
2342928833,0.00219727,0.00796509,-1.00576782,0.427246,0.000000,-0.061035
2347991875,0.00219727,0.00796509,-1.00576782,0.488281,0.061035,-0.122070
2353061416,0.00126648,0.00823975,-1.00718689,0.488281,0.061035,-0.122070
2357981250,0.00126648,0.00823975,-1.00718689,0.305176,0.061035,-0.122070
2362573833,0.00187683,0.00798035,-1.00503540,0.305176,0.061035,-0.122070
2367494083,0.00187683,0.00798035,-1.00503540,0.427246,0.000000,-0.122070
2372565375,0.00109863,0.00823975,-1.00683594,0.427246,0.000000,-0.122070
2377641166,0.00109863,0.00823975,-1.00683594,0.183105,0.000000,0.000000
2382703000,0.00041199,0.00796509,-1.00617981,0.183105,0.000000,0.000000
2387790000,0.00041199,0.00796509,-1.00617981,0.488281,0.061035,-0.122070
2392898625,0.00141907,0.00764465,-1.00732422,0.488281,0.061035,-0.122070
2397963541,0.00141907,0.00764465,-1.00732422,0.305176,0.183105,0.000000
2402870500,0.00112915,0.00794983,-1.00617981,0.305176,0.183105,0.000000
2407525625,0.00112915,0.00794983,-1.00617981,0.305176,0.061035,-0.183105
2412600750,0.00051880,0.00782776,-1.00625610,0.305176,0.061035,-0.183105
2417542333,0.00051880,0.00782776,-1.00625610,0.488281,0.061035,0.061035
2422377791,0.00111389,0.00839233,-1.00688171,0.488281,0.061035,0.061035
2427479750,0.00111389,0.00839233,-1.00688171,0.183105,0.000000,-0.122070
2432556583,0.00059509,0.00750732,-1.00640869,0.183105,0.000000,-0.122070
2439911791,0.00059509,0.00750732,-1.00640869,0.305176,0.061035,-0.061035
2442472833,0.00144958,0.00726318,-1.00665283,0.305176,0.061035,-0.061035
2447551041,0.00144958,0.00726318,-1.00665283,0.549316,0.061035,-0.122070
2452664541,0.00138855,0.00822449,-1.00590515,0.549316,0.061035,-0.122070
2457772083,0.00138855,0.00822449,-1.00590515,0.366211,0.122070,-0.122070
2462880666,0.00201416,0.00889587,-1.00679016,0.366211,0.122070,-0.122070
2467998375,0.00201416,0.00889587,-1.00679016,0.366211,-0.061035,-0.061035
2472812208,0.00051880,0.00875854,-1.00630188,0.366211,-0.061035,-0.061035
2477980833,0.00051880,0.00875854,-1.00630188,0.305176,0.061035,-0.122070
2482702166,0.00059509,0.00857544,-1.00607300,0.305176,0.061035,-0.122070
2487802500,0.00059509,0.00857544,-1.00607300,0.183105,0.122070,0.000000
2492883333,0.00202942,0.00817871,-1.00708008,0.183105,0.122070,0.000000
2497951666,0.00202942,0.00817871,-1.00708008,0.488281,0.122070,0.000000
2503019291,0.00231934,0.00833130,-1.00611877,0.488281,0.122070,0.000000
2508113000,0.00231934,0.00833130,-1.00611877,0.244141,0.000000,-0.122070
2513196000,0.00035095,0.00732422,-1.00715637,0.244141,0.000000,-0.122070
2518276125,0.00035095,0.00732422,-1.00715637,0.122070,0.061035,-0.183105
2523324916,0.00219727,0.00799561,-1.00500488,0.122070,0.061035,-0.183105
2528027666,0.00219727,0.00799561,-1.00500488,0.366211,0.122070,0.000000
2533096333,0.00201416,0.00787354,-1.00650024,0.366211,0.122070,0.000000
2538177708,0.00201416,0.00787354,-1.00650024,0.244141,0.061035,-0.122070
2543250833,0.00163269,0.00685120,-1.00593567,0.244141,0.061035,-0.122070
2547970833,0.00163269,0.00685120,-1.00593567,0.427246,-0.061035,-0.122070
2553003750,0.00196838,0.00665283,-1.00688171,0.427246,-0.061035,-0.122070
2558054125,0.00196838,0.00665283,-1.00688171,0.122070,0.122070,-0.122070
2563098791,0.00175476,0.00788879,-1.00624084,0.122070,0.122070,-0.122070
2568155583,0.00175476,0.00788879,-1.00624084,0.427246,0.061035,-0.061035
2573214750,0.00143433,0.00810242,-1.00689697,0.427246,0.061035,-0.061035
2578281791,0.00143433,0.00810242,-1.00689697,0.061035,0.000000,-0.183105
2583352416,0.00097656,0.00808716,-1.00669861,0.061035,0.000000,-0.183105
2588259375,0.00097656,0.00808716,-1.00669861,0.305176,0.122070,-0.244141
2593341041,0.00090027,0.00804138,-1.00576782,0.305176,0.122070,-0.244141
2598433666,0.00090027,0.00804138,-1.00576782,0.305176,0.122070,-0.122070
2600981000,0.00131226,0.00823975,-1.00666809,0.305176,0.122070,-0.122070
2608574416,0.00131226,0.00823975,-1.00666809,0.305176,0.122070,-0.061035
2613328750,0.00167847,0.00808716,-1.00639343,0.305176,0.122070,-0.061035
2618168791,0.00167847,0.00808716,-1.00639343,0.305176,0.122070,-0.122070
2622788083,0.00119019,0.00833130,-1.00550842,0.305176,0.122070,-0.122070
2627850916,0.00119019,0.00833130,-1.00550842,0.183105,0.000000,0.000000
2632626958,0.00054932,0.00743103,-1.00590515,0.183105,0.000000,0.000000
2637688250,0.00054932,0.00743103,-1.00590515,0.427246,-0.061035,-0.061035
2642747916,0.00070190,0.00773621,-1.00595093,0.427246,-0.061035,-0.061035
2647820625,0.00070190,0.00773621,-1.00595093,0.183105,-0.061035,-0.061035
2652536416,0.00061035,0.00770569,-1.00614929,0.183105,-0.061035,-0.061035
2657599250,0.00061035,0.00770569,-1.00614929,0.427246,-0.061035,-0.122070
2662299166,0.00288391,0.00798035,-1.00637817,0.427246,-0.061035,-0.122070
2667380291,0.00288391,0.00798035,-1.00637817,0.427246,0.183105,0.000000
2672251250,0.00202942,0.00770569,-1.00851440,0.427246,0.183105,0.000000
2679848375,0.00202942,0.00770569,-1.00851440,0.122070,0.122070,0.000000
2682386041,0.00120544,0.00755310,-1.00576782,0.122070,0.122070,0.000000
2687461291,0.00120544,0.00755310,-1.00576782,0.183105,-0.061035,-0.183105
2692064916,0.00151062,0.00758362,-1.00486755,0.183105,-0.061035,-0.183105
2699676791,0.00151062,0.00758362,-1.00486755,0.366211,0.061035,0.000000
2702219791,0.00186157,0.00799561,-1.00592041,0.366211,0.061035,0.000000
2709818333,0.00186157,0.00799561,-1.00592041,0.366211,0.122070,-0.061035
2712386166,0.00213623,0.00805664,-1.00691223,0.366211,0.122070,-0.061035
2717461875,0.00213623,0.00805664,-1.00691223,0.366211,0.061035,-0.061035
2722541208,0.00045776,0.00793457,-1.00711060,0.366211,0.061035,-0.061035
2727434041,0.00045776,0.00793457,-1.00711060,0.244141,0.122070,-0.061035
2732521541,0.00144958,0.00808716,-1.00598145,0.244141,0.122070,-0.061035
2737589625,0.00144958,0.00808716,-1.00598145,0.305176,0.061035,-0.122070
2742659541,0.00141907,0.00820923,-1.00608826,0.305176,0.061035,-0.122070
2747725666,0.00141907,0.00820923,-1.00608826,0.183105,0.122070,0.000000
2752793583,0.00187683,0.00794983,-1.00598145,0.183105,0.122070,0.000000
2757868000,0.00187683,0.00794983,-1.00598145,0.366211,0.122070,0.000000
2762932416,0.00160217,0.00816345,-1.00653076,0.366211,0.122070,0.000000
2768013291,0.00160217,0.00816345,-1.00653076,0.366211,0.000000,-0.061035
2772818041,0.00166321,0.00764465,-1.00543213,0.366211,0.000000,-0.061035
2777881125,0.00166321,0.00764465,-1.00543213,0.122070,0.061035,-0.061035
2782944583,0.00090027,0.00723267,-1.00662231,0.122070,0.061035,-0.061035
2788039500,0.00090027,0.00723267,-1.00662231,0.183105,0.122070,-0.183105
2793107666,0.00112915,0.00784302,-1.00651550,0.183105,0.122070,-0.183105
2798170125,0.00112915,0.00784302,-1.00651550,0.305176,0.000000,-0.061035
2803009833,0.00125122,0.00813293,-1.00692749,0.305176,0.000000,-0.061035
2808072000,0.00125122,0.00813293,-1.00692749,0.305176,0.000000,-0.122070
2813131125,0.00125122,0.00798035,-1.00721741,0.305176,0.000000,-0.122070
2818190125,0.00125122,0.00798035,-1.00721741,0.244141,-0.061035,-0.061035
2823265333,0.00154114,0.00814819,-1.00601196,0.244141,-0.061035,-0.061035
2828340166,0.00154114,0.00814819,-1.00601196,0.305176,0.061035,-0.122070
2833453916,0.00131226,0.00758362,-1.00575256,0.305176,0.061035,-0.122070
2838533666,0.00131226,0.00758362,-1.00575256,0.244141,0.000000,-0.061035
2843611791,0.00169373,0.00796509,-1.00495911,0.244141,0.000000,-0.061035
2848689458,0.00169373,0.00796509,-1.00495911,0.305176,0.061035,0.000000
2853761916,0.00131226,0.00807190,-1.00686646,0.305176,0.061035,0.000000
2858860333,0.00131226,0.00807190,-1.00686646,0.488281,0.061035,-0.061035
2863954208,0.00148010,0.00814819,-1.00588989,0.488281,0.061035,-0.061035
2869025291,0.00148010,0.00814819,-1.00588989,0.305176,0.000000,-0.061035
2871578083,0.00157166,0.00765991,-1.00517273,0.305176,0.000000,-0.061035
2879194208,0.00157166,0.00765991,-1.00517273,0.305176,0.061035,-0.122070
2881758041,0.00210571,0.00752258,-1.00767517,0.305176,0.061035,-0.122070
2889453833,0.00210571,0.00752258,-1.00767517,0.183105,0.061035,0.061035
2892026375,0.00257874,0.00761414,-1.00569153,0.183105,0.061035,0.061035
2899706375,0.00257874,0.00761414,-1.00569153,0.427246,0.183105,0.000000
2902294541,0.00109863,0.00859070,-1.00723267,0.427246,0.183105,0.000000
2909944583,0.00109863,0.00859070,-1.00723267,0.305176,0.122070,-0.122070
2912499875,0.00122070,0.00837708,-1.00559998,0.305176,0.122070,-0.122070
2917586791,0.00122070,0.00837708,-1.00559998,0.366211,0.122070,-0.061035
2922659791,0.00164795,0.00808716,-1.00727844,0.366211,0.122070,-0.061035
2927742708,0.00164795,0.00808716,-1.00727844,0.366211,0.061035,-0.061035
2932827666,0.00103760,0.00785828,-1.00628662,0.366211,0.061035,-0.061035
2937939708,0.00103760,0.00785828,-1.00628662,0.366211,0.061035,-0.061035
2943020500,0.00096130,0.00823975,-1.00622559,0.366211,0.061035,-0.061035
2948090000,0.00096130,0.00823975,-1.00622559,0.488281,0.061035,-0.061035
2953155083,0.00125122,0.00907898,-1.00643921,0.488281,0.061035,-0.061035
2958238958,0.00125122,0.00907898,-1.00643921,0.427246,0.183105,-0.061035
2963308166,0.00112915,0.00784302,-1.00546265,0.427246,0.183105,-0.061035
2967887875,0.00112915,0.00784302,-1.00546265,0.305176,0.061035,-0.183105
2972969541,0.00198364,0.00781250,-1.00685120,0.305176,0.061035,-0.183105
2977870583,0.00198364,0.00781250,-1.00685120,0.427246,0.000000,0.000000
2982929500,0.00065613,0.00765991,-1.00616455,0.427246,0.000000,0.000000
2987997375,0.00065613,0.00765991,-1.00616455,0.244141,0.000000,-0.122070
2992588875,0.00138855,0.00762939,-1.00636292,0.244141,0.000000,-0.122070
2999712375,0.00138855,0.00762939,-1.00636292,0.305176,0.000000,-0.061035
3002257250,0.00244141,0.00859070,-1.00628662,0.305176,0.000000,-0.061035
3009863875,0.00244141,0.00859070,-1.00628662,0.427246,0.061035,-0.061035
3012442750,0.00151062,0.00852966,-1.00613403,0.427246,0.061035,-0.061035
3017517708,0.00151062,0.00852966,-1.00613403,0.305176,0.061035,-0.122070
3022203791,0.00144958,0.00744629,-1.00582886,0.305176,0.061035,-0.122070
3029820625,0.00144958,0.00744629,-1.00582886,0.305176,0.061035,-0.061035
3031923375,0.00149536,0.00816345,-1.00547791,0.305176,0.061035,-0.061035
3039557625,0.00149536,0.00816345,-1.00547791,0.305176,0.061035,-0.061035
3042117125,0.00115967,0.00843811,-1.00738525,0.305176,0.061035,-0.061035
3049745708,0.00115967,0.00843811,-1.00738525,0.366211,0.000000,-0.122070
3052295458,0.00169373,0.00793457,-1.00482178,0.366211,0.000000,-0.122070
3059600375,0.00169373,0.00793457,-1.00482178,0.427246,0.061035,0.000000
3062141541,0.00167847,0.00737000,-1.00656128,0.427246,0.061035,0.000000
3069748500,0.00167847,0.00737000,-1.00656128,0.488281,0.061035,-0.061035
3072300791,0.00154114,0.00827026,-1.00503540,0.488281,0.061035,-0.061035
3079450500,0.00154114,0.00827026,-1.00503540,0.061035,0.000000,0.000000
3082011333,0.00082397,0.00862122,-1.00628662,0.061035,0.000000,0.000000
3089581250,0.00082397,0.00862122,-1.00628662,0.427246,0.061035,0.000000
3092125958,0.00144958,0.00886536,-1.00654602,0.427246,0.061035,0.000000
3099746041,0.00144958,0.00886536,-1.00654602,0.427246,0.183105,0.000000
3102297625,0.00180054,0.00823975,-1.00675964,0.427246,0.183105,0.000000
3107417458,0.00180054,0.00823975,-1.00675964,0.366211,0.061035,-0.061035
3112288666,0.00134277,0.00801086,-1.00637817,0.366211,0.061035,-0.061035
3117416458,0.00134277,0.00801086,-1.00637817,0.244141,0.122070,-0.183105
3122133708,0.00105286,0.00775146,-1.00538635,0.244141,0.122070,-0.183105
3129718333,0.00105286,0.00775146,-1.00538635,0.244141,0.061035,0.000000
3132312041,0.00079346,0.00779724,-1.00613403,0.244141,0.061035,0.000000
3137411791,0.00079346,0.00779724,-1.00613403,0.183105,0.061035,-0.183105
3142541291,0.00077820,0.00814819,-1.00559998,0.183105,0.061035,-0.183105
3147632500,0.00077820,0.00814819,-1.00559998,0.366211,0.061035,-0.122070
3152735083,0.00102234,0.00877380,-1.00697327,0.366211,0.061035,-0.122070
3157909625,0.00102234,0.00877380,-1.00697327,0.305176,-0.061035,-0.122070
3163046958,0.00115967,0.00811768,-1.00657654,0.305176,-0.061035,-0.122070
3168139416,0.00115967,0.00811768,-1.00657654,0.305176,0.000000,-0.061035
3173243833,0.00117493,0.00843811,-1.00714111,0.305176,0.000000,-0.061035
3178328291,0.00117493,0.00843811,-1.00714111,0.305176,0.061035,0.061035
3183238250,0.00054932,0.00758362,-1.00691223,0.305176,0.061035,0.061035
3188302250,0.00054932,0.00758362,-1.00691223,0.366211,-0.061035,-0.122070
3193360416,0.00064087,0.00932312,-1.00637817,0.366211,-0.061035,-0.122070
3198274375,0.00064087,0.00932312,-1.00637817,0.305176,0.122070,0.000000
3203451208,0.00085449,0.00859070,-1.00666809,0.305176,0.122070,0.000000
3208544833,0.00085449,0.00859070,-1.00666809,0.305176,-0.061035,0.000000
3213642541,0.00148010,0.00852966,-1.00549316,0.305176,-0.061035,0.000000
3218749833,0.00148010,0.00852966,-1.00549316,0.305176,0.000000,0.000000
3223896000,0.00138855,0.00817871,-1.00639343,0.305176,0.000000,0.000000
3228979958,0.00138855,0.00817871,-1.00639343,0.305176,0.000000,-0.061035
3231508625,0.00196838,0.00802612,-1.00680542,0.305176,0.000000,-0.061035
3238879541,0.00196838,0.00802612,-1.00680542,0.183105,0.000000,-0.061035
3243596583,0.00178528,0.00764465,-1.00608826,0.183105,0.000000,-0.061035
3248658625,0.00178528,0.00764465,-1.00608826,0.305176,0.000000,-0.183105
3253728750,0.00103760,0.00793457,-1.00581360,0.305176,0.000000,-0.183105
3258817916,0.00103760,0.00793457,-1.00581360,0.305176,0.000000,-0.122070
3263902750,0.00173950,0.00811768,-1.00576782,0.305176,0.000000,-0.122070
3268485333,0.00173950,0.00811768,-1.00576782,0.244141,0.061035,-0.061035
3273568791,0.00201416,0.00752258,-1.00660706,0.244141,0.061035,-0.061035
3278634458,0.00201416,0.00752258,-1.00660706,0.366211,0.061035,-0.122070
3283589583,0.00172424,0.00753784,-1.00656128,0.366211,0.061035,-0.122070
3288675541,0.00172424,0.00753784,-1.00656128,0.366211,0.183105,-0.061035
3293796958,0.00140381,0.00840759,-1.00639343,0.366211,0.183105,-0.061035
3298868500,0.00140381,0.00840759,-1.00639343,0.427246,0.183105,-0.061035
3301422541,0.00154114,0.00761414,-1.00643921,0.427246,0.183105,-0.061035
3308898416,0.00154114,0.00761414,-1.00643921,0.488281,0.183105,0.000000
3311461458,0.00166321,0.00769043,-1.00657654,0.488281,0.183105,0.000000
3319078208,0.00166321,0.00769043,-1.00657654,0.488281,0.122070,-0.122070
3321636416,0.00164795,0.00859070,-1.00500488,0.488281,0.122070,-0.122070
3329080833,0.00164795,0.00859070,-1.00500488,0.366211,0.122070,0.061035
3331630000,0.00161743,0.00773621,-1.00633240,0.366211,0.122070,0.061035
3338897833,0.00161743,0.00773621,-1.00633240,0.305176,-0.122070,0.000000
3341454958,0.00155640,0.00807190,-1.00627136,0.305176,-0.122070,0.000000
3349088333,0.00155640,0.00807190,-1.00627136,0.305176,0.000000,-0.122070
3351646250,0.00091553,0.00743103,-1.00566101,0.305176,0.000000,-0.122070
3358886125,0.00091553,0.00743103,-1.00566101,0.366211,0.061035,0.061035
3363586083,0.00114441,0.00791931,-1.00588989,0.366211,0.061035,0.061035
3368663833,0.00114441,0.00791931,-1.00588989,0.427246,-0.061035,-0.122070
3373746166,0.00103760,0.00772095,-1.00564575,0.427246,-0.061035,-0.122070
3378819458,0.00103760,0.00772095,-1.00564575,0.244141,0.000000,-0.061035
3383903416,0.00192261,0.00796509,-1.00584412,0.244141,0.000000,-0.061035
3388630041,0.00192261,0.00796509,-1.00584412,0.305176,0.122070,0.000000
3393710791,0.00164795,0.00820923,-1.00596619,0.305176,0.122070,0.000000
3398781041,0.00164795,0.00820923,-1.00596619,0.427246,0.061035,0.000000
3403854666,0.00132751,0.00752258,-1.00617981,0.427246,0.061035,0.000000
3408898500,0.00132751,0.00752258,-1.00617981,0.366211,0.061035,0.000000
3414008208,0.00207520,0.00779724,-1.00714111,0.366211,0.061035,0.000000
3419094916,0.00207520,0.00779724,-1.00714111,0.366211,-0.061035,-0.183105
3421654625,0.00335693,0.00831604,-1.00578308,0.366211,-0.061035,-0.183105
3428964416,0.00335693,0.00831604,-1.00578308,0.183105,0.122070,-0.183105
3431535125,0.00251770,0.00775146,-1.00730896,0.183105,0.122070,-0.183105
3438857791,0.00251770,0.00775146,-1.00730896,0.366211,0.061035,0.061035
3441459750,0.00193787,0.00842285,-1.00523376,0.366211,0.061035,0.061035
3449091875,0.00193787,0.00842285,-1.00523376,0.244141,0.000000,-0.122070
3451824500,0.00108337,0.00747681,-1.00665283,0.244141,0.000000,-0.122070
3459182750,0.00108337,0.00747681,-1.00665283,0.366211,0.122070,-0.061035
3461729458,0.00205994,0.00819397,-1.00575256,0.366211,0.122070,-0.061035
3469353750,0.00205994,0.00819397,-1.00575256,0.305176,0.000000,-0.244141
3471899375,0.00192261,0.00860596,-1.00575256,0.305176,0.000000,-0.244141
3479416791,0.00192261,0.00860596,-1.00575256,0.366211,0.000000,-0.061035
3481961750,0.00199890,0.00827026,-1.00660706,0.366211,0.000000,-0.061035
3489584291,0.00199890,0.00827026,-1.00660706,0.305176,0.122070,0.061035
3492164791,0.00114441,0.00796509,-1.00648499,0.305176,0.122070,0.061035
3499146708,0.00114441,0.00796509,-1.00648499,0.427246,-0.061035,0.000000
3501700208,0.00117493,0.00804138,-1.00683594,0.427246,-0.061035,0.000000
3508929166,0.00117493,0.00804138,-1.00683594,0.427246,0.061035,0.000000
3511501666,0.00244141,0.00813293,-1.00671387,0.427246,0.061035,0.000000
3519103958,0.00244141,0.00813293,-1.00671387,0.366211,0.122070,-0.061035
3521658458,0.00117493,0.00793457,-1.00567627,0.366211,0.122070,-0.061035
3529287458,0.00117493,0.00793457,-1.00567627,0.244141,-0.122070,-0.244141
3531847625,0.00131226,0.00816345,-1.00590515,0.244141,-0.122070,-0.244141
3539485083,0.00131226,0.00816345,-1.00590515,0.244141,-0.061035,-0.061035
3542065916,0.00190735,0.00775146,-1.00640869,0.244141,-0.061035,-0.061035
3549093666,0.00190735,0.00775146,-1.00640869,0.366211,0.183105,0.000000
3553760875,0.00225830,0.00788879,-1.00674438,0.366211,0.183105,0.000000
3558856041,0.00225830,0.00788879,-1.00674438,0.366211,0.000000,0.000000
3563944333,0.00144958,0.00817871,-1.00634766,0.366211,0.000000,0.000000
3569033583,0.00144958,0.00817871,-1.00634766,0.366211,0.061035,-0.183105
3573703791,0.00122070,0.00747681,-1.00695801,0.366211,0.061035,-0.183105
3578794375,0.00122070,0.00747681,-1.00695801,0.366211,0.000000,0.061035
3583900458,0.00106812,0.00779724,-1.00541687,0.366211,0.000000,0.061035
3589033500,0.00106812,0.00779724,-1.00541687,0.244141,0.061035,-0.122070
3591601083,0.00143433,0.00767517,-1.00651550,0.244141,0.061035,-0.122070
3598962583,0.00143433,0.00767517,-1.00651550,0.305176,0.122070,0.000000
3601527416,0.00154114,0.00868225,-1.00701904,0.305176,0.122070,0.000000
3608953541,0.00154114,0.00868225,-1.00701904,0.366211,0.000000,-0.122070
3611526125,0.00172424,0.00830078,-1.00694275,0.366211,0.000000,-0.122070
3619145291,0.00172424,0.00830078,-1.00694275,0.427246,0.000000,0.000000
3621718666,0.00177002,0.00854492,-1.00665283,0.427246,0.000000,0.000000
3629365708,0.00177002,0.00854492,-1.00665283,0.244141,0.000000,-0.061035
3631934250,0.00146484,0.00784302,-1.00592041,0.244141,0.000000,-0.061035
3639596791,0.00146484,0.00784302,-1.00592041,0.305176,0.000000,0.000000
3642164541,0.00105286,0.00785828,-1.00672913,0.305176,0.000000,0.000000
3649767208,0.00105286,0.00785828,-1.00672913,0.305176,0.061035,-0.061035
3652337708,0.00106812,0.00831604,-1.00630188,0.305176,0.061035,-0.061035
3657434000,0.00106812,0.00831604,-1.00630188,0.427246,0.122070,-0.122070
3662756000,0.00129700,0.00828552,-1.00717163,0.427246,0.122070,-0.122070
3667827708,0.00129700,0.00828552,-1.00717163,0.244141,0.000000,-0.122070
3672896250,0.00077820,0.00819397,-1.00642395,0.244141,0.000000,-0.122070
3677982083,0.00077820,0.00819397,-1.00642395,0.366211,0.000000,0.000000
3682692875,0.00074768,0.00775146,-1.00669861,0.366211,0.000000,0.000000
3687803000,0.00074768,0.00775146,-1.00669861,0.122070,0.061035,-0.183105
3692806916,0.00221252,0.00801086,-1.00622559,0.122070,0.061035,-0.183105
3697935625,0.00221252,0.00801086,-1.00622559,0.427246,0.061035,0.061035
3703045625,0.00164795,0.00804138,-1.00567627,0.427246,0.061035,0.061035
3708186833,0.00164795,0.00804138,-1.00567627,0.366211,0.000000,-0.061035
3713261458,0.00119019,0.00744629,-1.00559998,0.366211,0.000000,-0.061035
3718300541,0.00119019,0.00744629,-1.00559998,0.305176,-0.061035,-0.122070
3723392791,0.00140381,0.00842285,-1.00617981,0.305176,-0.061035,-0.122070
3728461458,0.00140381,0.00842285,-1.00617981,0.366211,0.000000,-0.122070
3733527166,0.00196838,0.00790405,-1.00642395,0.366211,0.000000,-0.122070
3738567541,0.00196838,0.00790405,-1.00642395,0.305176,0.000000,-0.122070
3743602375,0.00128174,0.00898743,-1.00491333,0.305176,0.000000,-0.122070
3748633083,0.00128174,0.00898743,-1.00491333,0.305176,0.061035,-0.061035
3753657041,0.00129700,0.00817871,-1.00674438,0.305176,0.061035,-0.061035
3758718875,0.00129700,0.00817871,-1.00674438,0.427246,0.000000,0.000000
3763763458,0.00184631,0.00863647,-1.00553894,0.427246,0.000000,0.000000
3768495000,0.00184631,0.00863647,-1.00553894,0.366211,0.000000,-0.122070
3773524291,0.00109863,0.00831604,-1.00628662,0.366211,0.000000,-0.122070
3778575958,0.00109863,0.00831604,-1.00628662,0.244141,0.122070,-0.122070
3783660416,0.00115967,0.00854492,-1.00634766,0.244141,0.122070,-0.122070
3788701875,0.00115967,0.00854492,-1.00634766,0.305176,0.183105,0.000000
3793742375,0.00224304,0.00871277,-1.00570679,0.305176,0.183105,0.000000
3798783541,0.00224304,0.00871277,-1.00570679,0.366211,0.000000,-0.061035
3803658125,0.00157166,0.00796509,-1.00741577,0.366211,0.000000,-0.061035
3808679625,0.00157166,0.00796509,-1.00741577,0.305176,-0.061035,-0.061035
3813746708,0.00181580,0.00843811,-1.00541687,0.305176,-0.061035,-0.061035
3818595333,0.00181580,0.00843811,-1.00541687,0.244141,0.000000,-0.061035
3823623625,0.00120544,0.00778198,-1.00729370,0.244141,0.000000,-0.061035
3828314875,0.00120544,0.00778198,-1.00729370,0.244141,0.244141,-0.122070
3832852000,0.00105286,0.00878906,-1.00541687,0.244141,0.244141,-0.122070
3837430375,0.00105286,0.00878906,-1.00541687,0.244141,0.061035,0.000000
3842468375,0.00158691,0.00851440,-1.00688171,0.244141,0.061035,0.000000
3847506833,0.00158691,0.00851440,-1.00688171,0.305176,-0.183105,-0.122070
3852504916,0.00221252,0.00645447,-1.00587463,0.305176,-0.183105,-0.122070
3857537541,0.00221252,0.00645447,-1.00587463,0.305176,0.061035,-0.061035
3862351916,0.00169373,0.00860596,-1.00634766,0.305176,0.061035,-0.061035
3867387875,0.00169373,0.00860596,-1.00634766,0.244141,-0.061035,0.061035
3872419833,0.00148010,0.00834656,-1.00732422,0.244141,-0.061035,0.061035
3877481958,0.00148010,0.00834656,-1.00732422,0.244141,-0.061035,-0.061035
3882568375,0.00177002,0.00770569,-1.00584412,0.244141,-0.061035,-0.061035
3887638500,0.00177002,0.00770569,-1.00584412,0.305176,0.122070,-0.061035
3892757875,0.00184631,0.00776672,-1.00622559,0.305176,0.122070,-0.061035
3897876250,0.00184631,0.00776672,-1.00622559,0.305176,0.122070,0.000000
3902935208,0.00141907,0.00822449,-1.00643921,0.305176,0.122070,0.000000
3907995875,0.00141907,0.00822449,-1.00643921,0.244141,-0.061035,0.000000
3913056416,0.00030518,0.00724792,-1.00581360,0.244141,-0.061035,0.000000
3918113208,0.00030518,0.00724792,-1.00581360,0.244141,0.061035,-0.061035
3923177708,0.00184631,0.00733948,-1.00607300,0.244141,0.061035,-0.061035
3928255500,0.00184631,0.00733948,-1.00607300,0.183105,0.061035,-0.061035
3933330791,0.00169373,0.00859070,-1.00700378,0.183105,0.061035,-0.061035
3938407166,0.00169373,0.00859070,-1.00700378,0.366211,0.000000,-0.061035
3943527000,0.00254822,0.00764465,-1.00665283,0.366211,0.000000,-0.061035
3948660875,0.00254822,0.00764465,-1.00665283,0.366211,0.061035,0.000000
3953756583,0.00148010,0.00801086,-1.00622559,0.366211,0.061035,0.000000
3958778041,0.00148010,0.00801086,-1.00622559,0.427246,0.000000,-0.122070
3963893791,0.00163269,0.00804138,-1.00672913,0.427246,0.000000,-0.122070
3968995291,0.00163269,0.00804138,-1.00672913,0.427246,0.061035,-0.061035
3971539166,0.00073242,0.00773621,-1.00640869,0.427246,0.061035,-0.061035
3979152125,0.00073242,0.00773621,-1.00640869,0.366211,0.122070,0.000000
3981715416,0.00067139,0.00801086,-1.00688171,0.366211,0.122070,0.000000
3989336166,0.00067139,0.00801086,-1.00688171,0.305176,0.061035,-0.061035
3991892541,0.00129700,0.00833130,-1.00563049,0.305176,0.061035,-0.061035
3999535333,0.00129700,0.00833130,-1.00563049,0.366211,0.061035,-0.061035
4002098750,0.00122070,0.00837708,-1.00665283,0.366211,0.061035,-0.061035
4009676458,0.00122070,0.00837708,-1.00665283,0.427246,0.000000,-0.122070
4012254708,0.00123596,0.00833130,-1.00610352,0.427246,0.000000,-0.122070
4019686541,0.00123596,0.00833130,-1.00610352,0.183105,0.061035,-0.122070
4022256333,0.00122070,0.00810242,-1.00613403,0.183105,0.061035,-0.122070
4029885916,0.00122070,0.00810242,-1.00613403,0.488281,0.061035,-0.061035
4032444333,0.00177002,0.00909424,-1.00625610,0.488281,0.061035,-0.061035
4037523125,0.00177002,0.00909424,-1.00625610,0.122070,0.000000,0.000000
4042222541,0.00225830,0.00845337,-1.00535583,0.122070,0.000000,0.000000
4049852666,0.00225830,0.00845337,-1.00535583,0.244141,0.122070,0.000000
4052419875,0.00170898,0.00770569,-1.00669861,0.244141,0.122070,0.000000
4057512583,0.00170898,0.00770569,-1.00669861,0.305176,0.000000,-0.061035
4062607541,0.00172424,0.00827026,-1.00566101,0.305176,0.000000,-0.061035
4067697291,0.00172424,0.00827026,-1.00566101,0.366211,0.000000,-0.183105
4072770916,0.00108337,0.00848389,-1.00518799,0.366211,0.000000,-0.183105
4077871916,0.00108337,0.00848389,-1.00518799,0.366211,0.000000,0.000000
4082929000,0.00212097,0.00724792,-1.00598145,0.366211,0.000000,0.000000
4088023791,0.00212097,0.00724792,-1.00598145,0.305176,0.061035,-0.122070
4093104208,0.00149536,0.00807190,-1.00720215,0.305176,0.061035,-0.122070
4098175583,0.00149536,0.00807190,-1.00720215,0.183105,0.061035,-0.183105
4103006291,0.00032043,0.00735474,-1.00633240,0.183105,0.061035,-0.183105
4108078458,0.00032043,0.00735474,-1.00633240,0.244141,0.000000,-0.061035
4112827416,0.00154114,0.00808716,-1.00601196,0.244141,0.000000,-0.061035
4117895500,0.00154114,0.00808716,-1.00601196,0.183105,0.000000,-0.122070
4122984375,0.00202942,0.00842285,-1.00637817,0.183105,0.000000,-0.122070
4128068250,0.00202942,0.00842285,-1.00637817,0.305176,0.000000,-0.122070
4133139083,0.00288391,0.00857544,-1.00523376,0.305176,0.000000,-0.122070
4138219666,0.00288391,0.00857544,-1.00523376,0.244141,0.061035,-0.122070
4143298500,0.00273132,0.00901794,-1.00585938,0.244141,0.061035,-0.122070
4148385125,0.00273132,0.00901794,-1.00585938,0.366211,0.122070,-0.061035
4153456666,0.00196838,0.00923157,-1.00614929,0.366211,0.122070,-0.061035
4158540166,0.00196838,0.00923157,-1.00614929,0.183105,0.000000,0.000000
4163627583,0.00202942,0.00889587,-1.00653076,0.183105,0.000000,0.000000
4168730791,0.00202942,0.00889587,-1.00653076,0.366211,0.061035,-0.122070
4173556916,0.00190735,0.00868225,-1.00640869,0.366211,0.061035,-0.122070
4178663166,0.00190735,0.00868225,-1.00640869,0.366211,0.000000,0.000000
4183796416,0.00128174,0.00720215,-1.00526428,0.366211,0.000000,0.000000
4188916125,0.00128174,0.00720215,-1.00526428,0.366211,0.122070,-0.061035
4191479916,0.00097656,0.00723267,-1.00657654,0.366211,0.122070,-0.061035
4199093541,0.00097656,0.00723267,-1.00657654,0.305176,0.061035,-0.061035
4201653083,0.00201416,0.00856018,-1.00590515,0.305176,0.061035,-0.061035
4209394583,0.00201416,0.00856018,-1.00590515,0.183105,0.122070,0.000000
4211973500,0.00169373,0.00827026,-1.00595093,0.183105,0.122070,0.000000
4219584333,0.00169373,0.00827026,-1.00595093,0.427246,0.061035,0.000000
4222183250,0.00140381,0.00743103,-1.00559998,0.427246,0.061035,0.000000
4229800583,0.00140381,0.00743103,-1.00559998,0.427246,0.061035,-0.061035
4232347666,0.00216675,0.00830078,-1.00608826,0.427246,0.061035,-0.061035
4239940833,0.00216675,0.00830078,-1.00608826,0.244141,0.122070,0.000000
4242196000,0.00210571,0.00805664,-1.00608826,0.244141,0.122070,0.000000
4249818000,0.00210571,0.00805664,-1.00608826,0.244141,0.061035,-0.122070
4252376416,0.00073242,0.00827026,-1.00650024,0.244141,0.061035,-0.122070
4259996458,0.00073242,0.00827026,-1.00650024,0.305176,-0.061035,0.000000
4262554875,0.00161743,0.00744629,-1.00642395,0.305176,-0.061035,0.000000
4267579458,0.00161743,0.00744629,-1.00642395,0.366211,-0.122070,-0.061035
4272200833,0.00164795,0.00729370,-1.00624084,0.366211,-0.122070,-0.061035
4279582958,0.00164795,0.00729370,-1.00624084,0.244141,0.000000,-0.122070
4282137666,0.00111389,0.00782776,-1.00605774,0.244141,0.000000,-0.122070
4289572958,0.00111389,0.00782776,-1.00605774,0.244141,0.061035,0.000000
4292171208,0.00180054,0.00791931,-1.00697327,0.244141,0.061035,0.000000
4299792916,0.00180054,0.00791931,-1.00697327,0.305176,0.061035,0.000000
4302355000,0.00170898,0.00856018,-1.00697327,0.305176,0.061035,0.000000
4309976500,0.00170898,0.00856018,-1.00697327,0.366211,-0.061035,-0.061035
4312577583,0.00122070,0.00784302,-1.00651550,0.366211,-0.061035,-0.061035
4319855416,0.00122070,0.00784302,-1.00651550,0.244141,0.122070,-0.061035
4322426125,0.00076294,0.00776672,-1.00637817,0.244141,0.122070,-0.061035
4327525333,0.00076294,0.00776672,-1.00637817,0.244141,0.000000,0.000000
4332593333,0.00138855,0.00756836,-1.00679016,0.244141,0.000000,0.000000
4337665541,0.00138855,0.00756836,-1.00679016,0.305176,-0.061035,-0.061035
4342749625,0.00152588,0.00848389,-1.00592041,0.305176,-0.061035,-0.061035
4349869500,0.00152588,0.00848389,-1.00592041,0.366211,0.000000,-0.122070
4352412708,0.00091553,0.00749207,-1.00668335,0.366211,0.000000,-0.122070
4360015166,0.00091553,0.00749207,-1.00668335,0.366211,-0.061035,-0.122070
4362570291,0.00137329,0.00755310,-1.00474548,0.366211,-0.061035,-0.122070
4367636250,0.00137329,0.00755310,-1.00474548,0.366211,-0.061035,-0.061035
4372708000,0.00106812,0.00755310,-1.00680542,0.366211,-0.061035,-0.061035
4377792375,0.00106812,0.00755310,-1.00680542,0.305176,0.000000,-0.244141
4382927500,0.00102234,0.00833130,-1.00621033,0.305176,0.000000,-0.244141
4388187750,0.00102234,0.00833130,-1.00621033,0.305176,0.000000,0.000000
4393273250,0.00122070,0.00755310,-1.00675964,0.305176,0.000000,0.000000
4398347458,0.00122070,0.00755310,-1.00675964,0.183105,0.122070,-0.061035
4403424208,0.00233459,0.00804138,-1.00645447,0.183105,0.122070,-0.061035
4408495958,0.00233459,0.00804138,-1.00645447,0.122070,0.000000,0.000000
4413553458,0.00164795,0.00759888,-1.00651550,0.122070,0.000000,0.000000
4418621833,0.00164795,0.00759888,-1.00651550,0.366211,0.061035,-0.122070
4423296208,0.00183105,0.00860596,-1.00588989,0.366211,0.061035,-0.122070
4428385375,0.00183105,0.00860596,-1.00588989,0.366211,0.183105,-0.122070
4433472166,0.00198364,0.00830078,-1.00608826,0.366211,0.183105,-0.122070
4438544166,0.00198364,0.00830078,-1.00608826,0.366211,0.061035,0.000000
4443635583,0.00178528,0.00752258,-1.00616455,0.366211,0.061035,0.000000
4448717333,0.00178528,0.00752258,-1.00616455,0.244141,0.061035,-0.183105
4453784458,0.00122070,0.00726318,-1.00521851,0.244141,0.061035,-0.183105
4458877708,0.00122070,0.00726318,-1.00521851,0.244141,0.061035,0.000000
4461437375,0.00125122,0.00720215,-1.00630188,0.244141,0.061035,0.000000
4469055791,0.00125122,0.00720215,-1.00630188,0.427246,0.061035,-0.122070
4471624833,0.00129700,0.00790405,-1.00688171,0.427246,0.061035,-0.122070
4478800625,0.00129700,0.00790405,-1.00688171,0.366211,0.000000,0.000000
4483893833,0.00054932,0.00842285,-1.00595093,0.366211,0.000000,0.000000
4488875666,0.00054932,0.00842285,-1.00595093,0.244141,-0.122070,0.000000
4491425166,0.00157166,0.00772095,-1.00636292,0.244141,-0.122070,0.000000
4499044541,0.00157166,0.00772095,-1.00636292,0.366211,0.000000,0.000000
4501590333,0.00201416,0.00801086,-1.00616455,0.366211,0.000000,0.000000
4509218291,0.00201416,0.00801086,-1.00616455,0.305176,0.000000,-0.122070
4511791416,0.00154114,0.00785828,-1.00817871,0.305176,0.000000,-0.122070
4519405333,0.00154114,0.00785828,-1.00817871,0.305176,0.122070,-0.061035
4521952500,0.00129700,0.00801086,-1.00590515,0.305176,0.122070,-0.061035
4529579041,0.00129700,0.00801086,-1.00590515,0.305176,0.122070,0.000000
4532145375,0.00032043,0.00726318,-1.00677490,0.305176,0.122070,0.000000
4539587041,0.00032043,0.00726318,-1.00677490,0.244141,0.000000,-0.061035
4542143166,0.00039673,0.00756836,-1.00637817,0.244141,0.000000,-0.061035
4549741833,0.00039673,0.00756836,-1.00637817,0.366211,0.061035,-0.061035
4552284291,0.00149536,0.00753784,-1.00575256,0.366211,0.061035,-0.061035
4559879458,0.00149536,0.00753784,-1.00575256,0.366211,0.061035,-0.122070
4562429125,0.00148010,0.00846863,-1.00642395,0.366211,0.061035,-0.122070
4569708833,0.00148010,0.00846863,-1.00642395,0.366211,0.000000,-0.122070
4572247583,0.00125122,0.00827026,-1.00592041,0.366211,0.000000,-0.122070
4579383416,0.00125122,0.00827026,-1.00592041,0.244141,-0.061035,-0.183105
4581930500,0.00134277,0.00810242,-1.00711060,0.244141,-0.061035,-0.183105
4589587458,0.00134277,0.00810242,-1.00711060,0.244141,0.122070,0.000000
4592163208,0.00216675,0.00720215,-1.00643921,0.244141,0.122070,0.000000
4599809833,0.00216675,0.00720215,-1.00643921,0.183105,0.061035,-0.061035
4602375458,0.00192261,0.00798035,-1.00723267,0.183105,0.061035,-0.061035
4610001666,0.00192261,0.00798035,-1.00723267,0.244141,0.000000,-0.061035
4612561458,0.00093079,0.00852966,-1.00659180,0.244141,0.000000,-0.061035
4617641583,0.00093079,0.00852966,-1.00659180,0.366211,0.061035,-0.061035
4622723083,0.00067139,0.00753784,-1.00721741,0.366211,0.061035,-0.061035
4627802333,0.00067139,0.00753784,-1.00721741,0.244141,0.000000,-0.122070
4632884916,0.00036621,0.00816345,-1.00627136,0.244141,0.000000,-0.122070
4637959916,0.00036621,0.00816345,-1.00627136,0.244141,0.061035,-0.061035
4643037458,0.00225830,0.00810242,-1.00608826,0.244141,0.061035,-0.061035
4648113833,0.00225830,0.00810242,-1.00608826,0.366211,0.000000,-0.061035
4653017750,0.00218201,0.00808716,-1.00627136,0.366211,0.000000,-0.061035
4658090375,0.00218201,0.00808716,-1.00627136,0.305176,0.061035,0.000000
4663188208,0.00180054,0.00849915,-1.00492859,0.305176,0.061035,0.000000
4668273041,0.00180054,0.00849915,-1.00492859,0.244141,0.000000,-0.122070
4673339250,0.00112915,0.00836182,-1.00595093,0.244141,0.000000,-0.122070
4678425875,0.00112915,0.00836182,-1.00595093,0.366211,0.122070,-0.061035
4683534333,0.00112915,0.00759888,-1.00643921,0.366211,0.122070,-0.061035
4688432000,0.00112915,0.00759888,-1.00643921,0.366211,-0.061035,0.000000
4693499083,0.00042725,0.00811768,-1.00653076,0.366211,-0.061035,0.000000
4698360875,0.00042725,0.00811768,-1.00653076,0.244141,0.061035,-0.061035
4703012291,0.00192261,0.00790405,-1.00646973,0.244141,0.061035,-0.061035
4708087375,0.00192261,0.00790405,-1.00646973,0.488281,0.122070,-0.061035
4713145416,0.00218201,0.00761414,-1.00640869,0.488281,0.122070,-0.061035
4718211083,0.00218201,0.00761414,-1.00640869,0.549316,0.183105,0.000000
4723275333,0.00132751,0.00741577,-1.00573730,0.549316,0.183105,0.000000
4728356541,0.00132751,0.00741577,-1.00573730,0.366211,0.061035,-0.183105
4733378458,0.00199890,0.00810242,-1.00431824,0.366211,0.061035,-0.183105
4738536583,0.00199890,0.00810242,-1.00431824,0.305176,0.000000,-0.061035
4743665916,0.00137329,0.00762939,-1.00779724,0.305176,0.000000,-0.061035
4748662291,0.00137329,0.00762939,-1.00779724,0.366211,0.122070,-0.061035
4753763291,0.00170898,0.00743103,-1.00567627,0.366211,0.122070,-0.061035
4758873375,0.00170898,0.00743103,-1.00567627,0.427246,0.000000,-0.061035
4761421791,0.00230408,0.00791931,-1.00610352,0.427246,0.000000,-0.061035
4769012541,0.00230408,0.00791931,-1.00610352,0.366211,0.122070,0.061035
4771559833,0.00207520,0.00762939,-1.00505066,0.366211,0.122070,0.061035
4779195041,0.00207520,0.00762939,-1.00505066,0.244141,0.061035,-0.061035
4781763625,0.00141907,0.00820923,-1.00660706,0.244141,0.061035,-0.061035
4788998000,0.00141907,0.00820923,-1.00660706,0.305176,0.000000,0.061035
4791587041,0.00108337,0.00808716,-1.00631714,0.305176,0.000000,0.061035
4799261375,0.00108337,0.00808716,-1.00631714,0.305176,0.061035,-0.122070
4801851375,0.00173950,0.00726318,-1.00581360,0.305176,0.061035,-0.122070
4809549708,0.00173950,0.00726318,-1.00581360,0.366211,0.122070,-0.061035
4812143250,0.00077820,0.00782776,-1.00639343,0.366211,0.122070,-0.061035
4819774916,0.00077820,0.00782776,-1.00639343,0.183105,-0.122070,0.000000
4821903958,0.00120544,0.00752258,-1.00680542,0.183105,-0.122070,0.000000
4829526375,0.00120544,0.00752258,-1.00680542,0.244141,0.061035,-0.183105
4831803166,0.00199890,0.00854492,-1.00650024,0.244141,0.061035,-0.183105
4839432500,0.00199890,0.00854492,-1.00650024,0.244141,0.122070,-0.061035
4842001708,0.00192261,0.00813293,-1.00738525,0.244141,0.122070,-0.061035
4849622375,0.00192261,0.00813293,-1.00738525,0.427246,0.000000,0.000000
4852170666,0.00210571,0.00735474,-1.00708008,0.427246,0.000000,0.000000
4859794791,0.00210571,0.00735474,-1.00708008,0.305176,0.000000,-0.061035
4862356416,0.00224304,0.00811768,-1.00686646,0.305176,0.000000,-0.061035
4869660791,0.00224304,0.00811768,-1.00686646,0.305176,0.000000,-0.122070
4871843500,0.00169373,0.00843811,-1.00621033,0.305176,0.000000,-0.122070
4879083833,0.00169373,0.00843811,-1.00621033,0.366211,0.061035,-0.061035
4881647791,0.00155640,0.00804138,-1.00669861,0.366211,0.061035,-0.061035
4888881708,0.00155640,0.00804138,-1.00669861,0.366211,0.000000,0.000000
4891443125,0.00170898,0.00857544,-1.00521851,0.366211,0.000000,0.000000
4899060541,0.00170898,0.00857544,-1.00521851,0.366211,0.183105,-0.122070
4901615458,0.00141907,0.00769043,-1.00660706,0.366211,0.183105,-0.122070
4909141750,0.00141907,0.00769043,-1.00660706,0.610352,0.183105,-0.061035
4911673416,0.00111389,0.00708008,-1.00625610,0.610352,0.183105,-0.061035
4919291166,0.00111389,0.00708008,-1.00625610,0.366211,0.061035,-0.061035
4921846500,0.00080872,0.00791931,-1.00680542,0.366211,0.061035,-0.061035
4929434291,0.00080872,0.00791931,-1.00680542,0.244141,0.000000,-0.122070
4931988125,0.00152588,0.00823975,-1.00648499,0.244141,0.000000,-0.122070
4939589041,0.00152588,0.00823975,-1.00648499,0.305176,0.061035,-0.061035
4942130250,0.00155640,0.00794983,-1.00588989,0.305176,0.061035,-0.061035
4949743041,0.00155640,0.00794983,-1.00588989,0.366211,0.061035,-0.122070
4952296333,0.00114441,0.00810242,-1.00683594,0.366211,0.061035,-0.122070
4959928291,0.00114441,0.00810242,-1.00683594,0.244141,0.000000,-0.183105
4962477375,0.00207520,0.00814819,-1.00630188,0.244141,0.000000,-0.183105
4970110166,0.00207520,0.00814819,-1.00630188,0.305176,0.122070,-0.122070
4972681125,0.00207520,0.00801086,-1.00756836,0.305176,0.122070,-0.122070
4979939250,0.00207520,0.00801086,-1.00756836,0.122070,0.061035,0.000000
4982481458,0.00073242,0.00808716,-1.00605774,0.122070,0.061035,0.000000
4990141208,0.00073242,0.00808716,-1.00605774,0.244141,0.000000,-0.122070
4992703125,0.00151062,0.00814819,-1.00604248,0.244141,0.000000,-0.122070
4997770833,0.00151062,0.00814819,-1.00604248,0.366211,-0.122070,0.000000
5002859375,0.00158691,0.00805664,-1.00682068,0.366211,-0.122070,0.000000
5007953916,0.00158691,0.00805664,-1.00682068,0.244141,0.000000,-0.061035
5013038541,0.00088501,0.00796509,-1.00587463,0.244141,0.000000,-0.061035
5018118250,0.00088501,0.00796509,-1.00587463,0.549316,0.000000,-0.122070
5023234333,0.00111389,0.00764465,-1.00709534,0.549316,0.000000,-0.122070
5028339208,0.00111389,0.00764465,-1.00709534,0.305176,0.000000,-0.122070
5033408666,0.00151062,0.00775146,-1.00601196,0.305176,0.000000,-0.122070
5038483458,0.00151062,0.00775146,-1.00601196,0.183105,0.061035,-0.244141
5043617125,0.00103760,0.00701904,-1.00648499,0.183105,0.061035,-0.244141
5048371541,0.00103760,0.00701904,-1.00648499,0.366211,0.000000,0.000000
5053443291,0.00105286,0.00718689,-1.00660706,0.366211,0.000000,0.000000
5058405083,0.00105286,0.00718689,-1.00660706,0.305176,0.000000,-0.122070
5063469916,0.00028992,0.00767517,-1.00653076,0.305176,0.000000,-0.122070
5068553875,0.00028992,0.00767517,-1.00653076,0.366211,0.183105,-0.183105
5073647750,0.00134277,0.00724792,-1.00634766,0.366211,0.183105,-0.183105
5078715958,0.00134277,0.00724792,-1.00634766,0.305176,0.122070,-0.061035
5083791041,0.00190735,0.00778198,-1.00526428,0.305176,0.122070,-0.061035
5088867833,0.00190735,0.00778198,-1.00526428,0.366211,0.122070,-0.061035
5093974250,0.00146484,0.00788879,-1.00619507,0.366211,0.122070,-0.061035
5099051875,0.00146484,0.00788879,-1.00619507,0.244141,0.122070,-0.061035
5101594458,0.00141907,0.00862122,-1.00605774,0.244141,0.122070,-0.061035
5109197958,0.00141907,0.00862122,-1.00605774,0.427246,0.000000,-0.122070
5111739375,0.00111389,0.00781250,-1.00740051,0.427246,0.000000,-0.122070
5118988458,0.00111389,0.00781250,-1.00740051,0.366211,0.061035,-0.061035
5123638291,0.00173950,0.00778198,-1.00492859,0.366211,0.061035,-0.061035
5128704791,0.00173950,0.00778198,-1.00492859,0.305176,0.061035,0.000000
5133768791,0.00109863,0.00877380,-1.00617981,0.305176,0.061035,0.000000
5138825875,0.00109863,0.00877380,-1.00617981,0.305176,0.000000,0.000000
5143903500,0.00248718,0.00840759,-1.00540161,0.305176,0.000000,0.000000
5148984291,0.00248718,0.00840759,-1.00540161,0.488281,0.122070,0.000000
5151527625,0.00151062,0.00794983,-1.00714111,0.488281,0.122070,0.000000
5159117958,0.00151062,0.00794983,-1.00714111,0.427246,-0.061035,-0.061035
5161655000,0.00189209,0.00819397,-1.00556946,0.427246,-0.061035,-0.061035
5169245583,0.00189209,0.00819397,-1.00556946,0.366211,0.061035,0.000000
5171782166,0.00178528,0.00831604,-1.00627136,0.366211,0.061035,0.000000
5179395416,0.00178528,0.00831604,-1.00627136,0.122070,0.061035,-0.061035
5181958708,0.00146484,0.00828552,-1.00593567,0.122070,0.061035,-0.061035
5189563666,0.00146484,0.00828552,-1.00593567,0.305176,0.122070,-0.122070
5192108625,0.00175476,0.00828552,-1.00552368,0.305176,0.122070,-0.122070
5199635291,0.00175476,0.00828552,-1.00552368,0.427246,0.061035,0.061035
5202180791,0.00193787,0.00778198,-1.00614929,0.427246,0.061035,0.061035
5209780750,0.00193787,0.00778198,-1.00614929,0.366211,0.061035,-0.122070
5212329250,0.00051880,0.00796509,-1.00598145,0.366211,0.061035,-0.122070
5219670958,0.00051880,0.00796509,-1.00598145,0.427246,-0.061035,-0.061035
5222248166,0.00166321,0.00752258,-1.00526428,0.427246,-0.061035,-0.061035
5229979125,0.00166321,0.00752258,-1.00526428,0.122070,0.000000,0.000000
5232548500,0.00074768,0.00788879,-1.00588989,0.122070,0.000000,0.000000
5240212625,0.00074768,0.00788879,-1.00588989,0.183105,-0.061035,0.000000
5242805666,0.00108337,0.00808716,-1.00500488,0.183105,-0.061035,0.000000
5247878166,0.00108337,0.00808716,-1.00500488,0.366211,0.000000,-0.122070
5252963000,0.00114441,0.00682068,-1.00689697,0.366211,0.000000,-0.122070
5258061791,0.00114441,0.00682068,-1.00689697,0.244141,0.000000,0.061035
5263133875,0.00146484,0.00819397,-1.00572205,0.244141,0.000000,0.061035
5268221875,0.00146484,0.00819397,-1.00572205,0.366211,0.061035,-0.061035
5273308375,0.00126648,0.00801086,-1.00772095,0.366211,0.061035,-0.061035
5278054250,0.00126648,0.00801086,-1.00772095,0.183105,0.000000,0.000000
5283140500,0.00106812,0.00822449,-1.00572205,0.183105,0.000000,0.000000
5288105541,0.00106812,0.00822449,-1.00572205,0.488281,0.000000,-0.061035
5293190958,0.00125122,0.00883484,-1.00776672,0.488281,0.000000,-0.061035
5298262583,0.00125122,0.00883484,-1.00776672,0.488281,0.122070,0.000000
5303358666,0.00212097,0.00862122,-1.00703430,0.488281,0.122070,0.000000
5308221750,0.00212097,0.00862122,-1.00703430,0.427246,0.000000,-0.061035
5313350583,0.00154114,0.00802612,-1.00640869,0.427246,0.000000,-0.061035
5318340291,0.00154114,0.00802612,-1.00640869,0.549316,0.183105,-0.061035
5323452583,0.00267029,0.00820923,-1.00648499,0.549316,0.183105,-0.061035
5328261583,0.00267029,0.00820923,-1.00648499,0.305176,0.122070,-0.122070
5333212708,0.00218201,0.00773621,-1.00636292,0.305176,0.122070,-0.122070
5338271958,0.00218201,0.00773621,-1.00636292,0.244141,0.000000,-0.061035
5343351500,0.00003052,0.00788879,-1.00714111,0.244141,0.000000,-0.061035
5348417250,0.00003052,0.00788879,-1.00714111,0.305176,0.122070,0.000000
5353465833,0.00151062,0.00737000,-1.00628662,0.305176,0.122070,0.000000
5358544416,0.00151062,0.00737000,-1.00628662,0.366211,0.061035,-0.061035
5363604958,0.00141907,0.00813293,-1.00679016,0.366211,0.061035,-0.061035
5368548791,0.00141907,0.00813293,-1.00679016,0.366211,0.122070,-0.061035
5373474541,0.00103760,0.00794983,-1.00643921,0.366211,0.122070,-0.061035
5378783625,0.00103760,0.00794983,-1.00643921,0.366211,0.122070,-0.061035
5383600541,0.00094604,0.00823975,-1.00654602,0.366211,0.122070,-0.061035
5388714625,0.00094604,0.00823975,-1.00654602,0.305176,0.061035,0.000000
5393878125,0.00111389,0.00743103,-1.00650024,0.305176,0.061035,0.000000
5399017666,0.00111389,0.00743103,-1.00650024,0.366211,0.061035,-0.122070
5401572916,0.00122070,0.00798035,-1.00697327,0.366211,0.061035,-0.122070
5408665250,0.00122070,0.00798035,-1.00697327,0.427246,-0.061035,-0.122070
5413764791,0.00122070,0.00735474,-1.00709534,0.427246,-0.061035,-0.122070
5418840000,0.00122070,0.00735474,-1.00709534,0.305176,0.183105,-0.061035
5423445208,0.00219727,0.00767517,-1.00633240,0.305176,0.183105,-0.061035
5428602041,0.00219727,0.00767517,-1.00633240,0.427246,0.000000,-0.061035
5433716375,0.00166321,0.00756836,-1.00775146,0.427246,0.000000,-0.061035
5438793083,0.00166321,0.00756836,-1.00775146,0.244141,0.183105,-0.183105
5443875541,0.00141907,0.00804138,-1.00738525,0.244141,0.183105,-0.183105
5448951625,0.00141907,0.00804138,-1.00738525,0.366211,0.061035,0.061035
5454033166,0.00195312,0.00831604,-1.00646973,0.366211,0.061035,0.061035
5458856666,0.00195312,0.00831604,-1.00646973,0.366211,0.000000,0.000000
5463934875,0.00221252,0.00802612,-1.00637817,0.366211,0.000000,0.000000
5468999375,0.00221252,0.00802612,-1.00637817,0.183105,0.000000,-0.061035
5471569083,0.00134277,0.00802612,-1.00639343,0.183105,0.000000,-0.061035
5479220208,0.00134277,0.00802612,-1.00639343,0.183105,0.000000,-0.061035
5481759000,0.00160217,0.00903320,-1.00645447,0.183105,0.000000,-0.061035
5489402291,0.00160217,0.00903320,-1.00645447,0.366211,0.122070,-0.122070
5491941958,0.00164795,0.00775146,-1.00573730,0.366211,0.122070,-0.122070
5499538666,0.00164795,0.00775146,-1.00573730,0.366211,0.000000,0.000000
5502093583,0.00238037,0.00842285,-1.00642395,0.366211,0.000000,0.000000
5509681000,0.00238037,0.00842285,-1.00642395,0.427246,0.061035,-0.122070
5512225458,0.00201416,0.00717163,-1.00581360,0.427246,0.061035,-0.122070
5519821500,0.00201416,0.00717163,-1.00581360,0.244141,0.000000,-0.122070
5522365916,0.00117493,0.00709534,-1.00650024,0.244141,0.000000,-0.122070
5529990833,0.00117493,0.00709534,-1.00650024,0.305176,0.061035,-0.183105
5532544250,0.00134277,0.00758362,-1.00627136,0.305176,0.061035,-0.183105
5540166791,0.00134277,0.00758362,-1.00627136,0.244141,0.000000,0.061035
5542731833,0.00151062,0.00839233,-1.00663757,0.244141,0.000000,0.061035
5550335541,0.00151062,0.00839233,-1.00663757,0.305176,0.000000,-0.061035
5552882000,0.00230408,0.00799561,-1.00807190,0.305176,0.000000,-0.061035
5557962041,0.00230408,0.00799561,-1.00807190,0.305176,0.000000,0.000000
5563047083,0.00119019,0.00833130,-1.00689697,0.305176,0.000000,0.000000
5568132083,0.00119019,0.00833130,-1.00689697,0.305176,0.061035,-0.061035
5573218958,0.00138855,0.00784302,-1.00604248,0.305176,0.061035,-0.061035
5578023666,0.00138855,0.00784302,-1.00604248,0.244141,0.000000,-0.183105
5583097083,0.00096130,0.00762939,-1.00595093,0.244141,0.000000,-0.183105
5588167375,0.00096130,0.00762939,-1.00595093,0.305176,0.061035,-0.061035
5593308541,0.00096130,0.00784302,-1.00619507,0.305176,0.061035,-0.061035
5598389208,0.00096130,0.00784302,-1.00619507,0.427246,0.061035,-0.061035
5603481041,0.00090027,0.00796509,-1.00695801,0.427246,0.061035,-0.061035
5608578416,0.00090027,0.00796509,-1.00695801,0.366211,0.061035,-0.061035
5613660625,0.00083923,0.00846863,-1.00558472,0.366211,0.061035,-0.061035
5618727000,0.00083923,0.00846863,-1.00558472,0.305176,0.000000,0.000000
5623809250,0.00169373,0.00839233,-1.00714111,0.305176,0.000000,0.000000
5628888250,0.00169373,0.00839233,-1.00714111,0.366211,0.000000,-0.183105
5633986625,0.00184631,0.00820923,-1.00611877,0.366211,0.000000,-0.183105
5639086208,0.00184631,0.00820923,-1.00611877,0.366211,0.183105,0.000000
5644013875,0.00115967,0.00750732,-1.00639343,0.366211,0.183105,0.000000
5649100791,0.00115967,0.00750732,-1.00639343,0.366211,-0.061035,-0.061035
5651645500,0.00117493,0.00807190,-1.00428772,0.366211,-0.061035,-0.061035
5659241708,0.00117493,0.00807190,-1.00428772,0.427246,0.122070,-0.183105
5661784791,0.00149536,0.00732422,-1.00714111,0.427246,0.122070,-0.183105
5669393916,0.00149536,0.00732422,-1.00714111,0.244141,0.000000,-0.061035
5671938125,0.00172424,0.00703430,-1.00636292,0.244141,0.000000,-0.061035
5679462166,0.00172424,0.00703430,-1.00636292,0.244141,0.061035,-0.061035
5682010083,0.00192261,0.00805664,-1.00636292,0.244141,0.061035,-0.061035
5689585791,0.00192261,0.00805664,-1.00636292,0.183105,0.122070,-0.061035
5692125750,0.00189209,0.00808716,-1.00622559,0.183105,0.122070,-0.061035
5699705416,0.00189209,0.00808716,-1.00622559,0.366211,0.183105,0.000000
5702250333,0.00195312,0.00727844,-1.00677490,0.366211,0.183105,0.000000
5709849875,0.00195312,0.00727844,-1.00677490,0.427246,0.000000,0.061035
5712331666,0.00120544,0.00741577,-1.00697327,0.427246,0.000000,0.061035
5719651208,0.00120544,0.00741577,-1.00697327,0.244141,0.000000,-0.183105
5722188291,0.00135803,0.00808716,-1.00601196,0.244141,0.000000,-0.183105
5729786333,0.00135803,0.00808716,-1.00601196,0.305176,-0.061035,-0.122070
5732324666,0.00080872,0.00823975,-1.00604248,0.305176,-0.061035,-0.122070
5739911000,0.00080872,0.00823975,-1.00604248,0.244141,0.061035,0.061035
5742446458,0.00103760,0.00878906,-1.00621033,0.244141,0.061035,0.061035
5750040041,0.00103760,0.00878906,-1.00621033,0.244141,0.061035,-0.122070
5752579791,0.00177002,0.00808716,-1.00692749,0.244141,0.061035,-0.122070
5760174375,0.00177002,0.00808716,-1.00692749,0.366211,0.122070,-0.122070
5762743208,0.00181580,0.00822449,-1.00700378,0.366211,0.122070,-0.122070
5769671458,0.00181580,0.00822449,-1.00700378,0.366211,0.061035,-0.122070
5772208708,0.00103760,0.00805664,-1.00509644,0.366211,0.061035,-0.122070
5778893083,0.00103760,0.00805664,-1.00509644,0.305176,0.061035,-0.122070
5783957791,0.00202942,0.00793457,-1.00593567,0.305176,0.061035,-0.122070
5789043708,0.00202942,0.00793457,-1.00593567,0.305176,0.000000,0.061035
5794128250,0.00205994,0.00883484,-1.00570679,0.305176,0.000000,0.061035
5799190250,0.00205994,0.00883484,-1.00570679,0.244141,0.122070,-0.061035
5801742625,0.00152588,0.00827026,-1.00631714,0.244141,0.122070,-0.061035
5809352458,0.00152588,0.00827026,-1.00631714,0.366211,0.122070,0.061035
5811899583,0.00111389,0.00888062,-1.00529480,0.366211,0.122070,0.061035
5819198500,0.00111389,0.00888062,-1.00529480,0.305176,0.061035,0.000000
5821758791,0.00070190,0.00836182,-1.00610352,0.305176,0.061035,0.000000
5829374208,0.00070190,0.00836182,-1.00610352,0.427246,0.122070,-0.061035
5831919250,0.00093079,0.00784302,-1.00572205,0.427246,0.122070,-0.061035
5839503750,0.00093079,0.00784302,-1.00572205,0.366211,0.000000,-0.183105
5842041958,0.00114441,0.00750732,-1.00660706,0.366211,0.000000,-0.183105
5849641125,0.00114441,0.00750732,-1.00660706,0.366211,0.122070,-0.061035
5852190458,0.00100708,0.00840759,-1.00714111,0.366211,0.122070,-0.061035
5859789083,0.00100708,0.00840759,-1.00714111,0.244141,-0.061035,-0.061035
5862342375,0.00198364,0.00836182,-1.00573730,0.244141,-0.061035,-0.061035
5869882625,0.00198364,0.00836182,-1.00573730,0.183105,0.000000,-0.183105
5872429791,0.00103760,0.00782776,-1.00685120,0.183105,0.000000,-0.183105
5880046375,0.00103760,0.00782776,-1.00685120,0.305176,0.000000,0.000000
5882597625,0.00073242,0.00805664,-1.00581360,0.305176,0.000000,0.000000
5890198250,0.00073242,0.00805664,-1.00581360,0.305176,-0.061035,0.000000
5892747750,0.00152588,0.00759888,-1.00621033,0.305176,-0.061035,0.000000
5900352291,0.00152588,0.00759888,-1.00621033,0.244141,0.061035,-0.183105
5902913166,0.00180054,0.00750732,-1.00578308,0.244141,0.061035,-0.183105
5907994750,0.00180054,0.00750732,-1.00578308,0.488281,0.000000,-0.122070
5912814916,0.00154114,0.00790405,-1.00666809,0.488281,0.000000,-0.122070
5919945875,0.00154114,0.00790405,-1.00666809,0.427246,0.000000,-0.122070
5922486250,0.00161743,0.00752258,-1.00582886,0.427246,0.000000,-0.122070
5929611708,0.00161743,0.00752258,-1.00582886,0.244141,0.122070,0.000000
5932152208,0.00169373,0.00773621,-1.00595093,0.244141,0.122070,0.000000
5939743625,0.00169373,0.00773621,-1.00595093,0.183105,-0.061035,-0.061035
5942295416,0.00111389,0.00831604,-1.00744629,0.183105,-0.061035,-0.061035
5949893958,0.00111389,0.00831604,-1.00744629,0.427246,0.122070,0.061035
5952426500,0.00062561,0.00794983,-1.00613403,0.427246,0.122070,0.061035
5959658833,0.00062561,0.00794983,-1.00613403,0.427246,0.000000,-0.061035
5962213083,0.00149536,0.00765991,-1.00640869,0.427246,0.000000,-0.061035
5969720041,0.00149536,0.00765991,-1.00640869,0.366211,0.000000,-0.183105
5972292041,0.00077820,0.00778198,-1.00567627,0.366211,0.000000,-0.183105
5979674875,0.00077820,0.00778198,-1.00567627,0.305176,0.000000,0.000000
5982242708,0.00126648,0.00666809,-1.00640869,0.305176,0.000000,0.000000
5989583958,0.00126648,0.00666809,-1.00640869,0.366211,0.000000,-0.122070
5992173666,0.00172424,0.00807190,-1.00665283,0.366211,0.000000,-0.122070
5999796583,0.00172424,0.00807190,-1.00665283,0.244141,0.061035,-0.061035
6002173041,0.00177002,0.00891113,-1.00614929,0.244141,0.061035,-0.061035
6009772958,0.00177002,0.00891113,-1.00614929,0.366211,0.061035,-0.122070
6012332500,0.00164795,0.00872803,-1.00642395,0.366211,0.061035,-0.122070
6019663583,0.00164795,0.00872803,-1.00642395,0.305176,0.061035,0.061035
6022211083,0.00212097,0.00793457,-1.00442505,0.305176,0.061035,0.061035
6029829041,0.00212097,0.00793457,-1.00442505,0.427246,0.000000,-0.061035
6032383083,0.00141907,0.00831604,-1.00640869,0.427246,0.000000,-0.061035
6039988791,0.00141907,0.00831604,-1.00640869,0.305176,0.183105,0.000000
6042533291,0.00126648,0.00831604,-1.00566101,0.305176,0.183105,0.000000
6050370041,0.00126648,0.00831604,-1.00566101,0.305176,0.000000,0.000000
6052918250,0.00030518,0.00798035,-1.00656128,0.305176,0.000000,0.000000
6058001291,0.00030518,0.00798035,-1.00656128,0.305176,0.000000,-0.061035
6063071666,0.00102234,0.00798035,-1.00617981,0.305176,0.000000,-0.061035
6068148666,0.00102234,0.00798035,-1.00617981,0.244141,0.000000,0.000000
6073219708,0.00079346,0.00706482,-1.00633240,0.244141,0.000000,0.000000
6078056666,0.00079346,0.00706482,-1.00633240,0.366211,0.000000,-0.061035
6083154166,0.00123596,0.00767517,-1.00524902,0.366211,0.000000,-0.061035
6087972708,0.00123596,0.00767517,-1.00524902,0.244141,0.061035,-0.183105
6092899208,0.00212097,0.00848389,-1.00637817,0.244141,0.061035,-0.183105
6100113041,0.00212097,0.00848389,-1.00637817,0.366211,0.061035,-0.061035
6102663416,0.00212097,0.00779724,-1.00665283,0.366211,0.061035,-0.061035
6110264875,0.00212097,0.00779724,-1.00665283,0.366211,0.061035,-0.061035
6112840083,0.00180054,0.00781250,-1.00579834,0.366211,0.061035,-0.061035
6117932333,0.00180054,0.00781250,-1.00579834,0.366211,0.000000,-0.122070
6122559583,0.00125122,0.00770569,-1.00624084,0.366211,0.000000,-0.122070
6130177625,0.00125122,0.00770569,-1.00624084,0.305176,0.000000,-0.061035
6132733375,0.00245667,0.00823975,-1.00611877,0.305176,0.000000,-0.061035
6139889208,0.00245667,0.00823975,-1.00611877,0.305176,0.183105,-0.122070
6142163125,0.00044250,0.00845337,-1.00598145,0.305176,0.183105,-0.122070
6149801041,0.00044250,0.00845337,-1.00598145,0.366211,0.122070,-0.244141
6151982166,0.00109863,0.00755310,-1.00631714,0.366211,0.122070,-0.244141
6159599625,0.00109863,0.00755310,-1.00631714,0.305176,0.000000,-0.061035
6162142458,0.00196838,0.00738525,-1.00540161,0.305176,0.000000,-0.061035
6169752583,0.00196838,0.00738525,-1.00540161,0.366211,-0.122070,-0.183105
6172008083,0.00207520,0.00845337,-1.00666809,0.366211,-0.122070,-0.183105
6179605875,0.00207520,0.00845337,-1.00666809,0.244141,-0.061035,-0.061035
6182161375,0.00195312,0.00811768,-1.00532532,0.244141,-0.061035,-0.061035
6189497083,0.00195312,0.00811768,-1.00532532,0.183105,0.061035,0.000000
6192051750,0.00109863,0.00807190,-1.00691223,0.183105,0.061035,0.000000
6199690833,0.00109863,0.00807190,-1.00691223,0.366211,-0.061035,-0.061035
6202258833,0.00109863,0.00764465,-1.00537109,0.366211,-0.061035,-0.061035
6209923291,0.00109863,0.00764465,-1.00537109,0.366211,0.183105,-0.061035
6212484666,0.00138855,0.00868225,-1.00680542,0.366211,0.183105,-0.061035
6220106125,0.00138855,0.00868225,-1.00680542,0.366211,0.061035,0.000000
6222657416,0.00196838,0.00827026,-1.00601196,0.366211,0.061035,0.000000
6230308041,0.00196838,0.00827026,-1.00601196,0.366211,0.061035,-0.061035
6232860500,0.00059509,0.00738525,-1.00608826,0.366211,0.061035,-0.061035
6240225250,0.00059509,0.00738525,-1.00608826,0.366211,-0.061035,-0.122070
6242771458,0.00103760,0.00822449,-1.00624084,0.366211,-0.061035,-0.122070
6250403208,0.00103760,0.00822449,-1.00624084,0.244141,0.000000,-0.122070
6252978125,0.00169373,0.00759888,-1.00505066,0.244141,0.000000,-0.122070
6260638458,0.00169373,0.00759888,-1.00505066,0.427246,0.000000,-0.244141
6263195708,0.00193787,0.00761414,-1.00740051,0.427246,0.000000,-0.244141
6270790416,0.00193787,0.00761414,-1.00740051,0.366211,0.061035,0.000000
6273349583,0.00186157,0.00842285,-1.00704956,0.366211,0.061035,0.000000
6280573166,0.00186157,0.00842285,-1.00704956,0.305176,0.061035,-0.061035
6283133416,0.00163269,0.00822449,-1.00550842,0.305176,0.061035,-0.061035
6290782958,0.00163269,0.00822449,-1.00550842,0.183105,0.122070,-0.122070
6292925916,0.00169373,0.00816345,-1.00605774,0.183105,0.122070,-0.122070
6300294625,0.00169373,0.00816345,-1.00605774,0.305176,0.000000,-0.122070
6302848583,0.00210571,0.00849915,-1.00650024,0.305176,0.000000,-0.122070
6310529833,0.00210571,0.00849915,-1.00650024,0.488281,0.000000,-0.061035
6313092458,0.00183105,0.00759888,-1.00625610,0.488281,0.000000,-0.061035
6320701083,0.00183105,0.00759888,-1.00625610,0.427246,0.061035,-0.122070
6323249416,0.00181580,0.00782776,-1.00531006,0.427246,0.061035,-0.122070
6330535333,0.00181580,0.00782776,-1.00531006,0.244141,0.183105,-0.061035
6332865541,0.00164795,0.00781250,-1.00726318,0.244141,0.183105,-0.061035
6340070916,0.00164795,0.00781250,-1.00726318,0.244141,0.061035,-0.122070
6342616833,0.00195312,0.00790405,-1.00579834,0.244141,0.061035,-0.122070
6350224875,0.00195312,0.00790405,-1.00579834,0.244141,0.000000,-0.122070
6352777875,0.00128174,0.00769043,-1.00691223,0.244141,0.000000,-0.122070
6360404833,0.00128174,0.00769043,-1.00691223,0.427246,0.000000,-0.122070
6362965875,0.00189209,0.00753784,-1.00694275,0.427246,0.000000,-0.122070
6370576333,0.00189209,0.00753784,-1.00694275,0.305176,0.000000,-0.061035
6373120541,0.00131226,0.00852966,-1.00566101,0.305176,0.000000,-0.061035
6380549541,0.00131226,0.00852966,-1.00566101,0.305176,0.000000,-0.061035
6383068583,0.00160217,0.00782776,-1.00637817,0.305176,0.000000,-0.061035
6390729208,0.00160217,0.00782776,-1.00637817,0.122070,0.183105,-0.122070
6393346166,0.00190735,0.00788879,-1.00679016,0.122070,0.183105,-0.122070
6398501416,0.00190735,0.00788879,-1.00679016,0.305176,0.183105,-0.061035
6403590875,0.00173950,0.00807190,-1.00749207,0.305176,0.183105,-0.061035
6408662875,0.00173950,0.00807190,-1.00749207,0.183105,0.000000,0.000000
6413737958,0.00256348,0.00823975,-1.00579834,0.183105,0.000000,0.000000
6418835416,0.00256348,0.00823975,-1.00579834,0.305176,0.061035,-0.061035
6423968625,0.00112915,0.00805664,-1.00659180,0.305176,0.061035,-0.061035
6429056666,0.00112915,0.00805664,-1.00659180,0.244141,0.061035,0.000000
6434119458,0.00056458,0.00778198,-1.00611877,0.244141,0.061035,0.000000
6438857916,0.00056458,0.00778198,-1.00611877,0.305176,0.061035,-0.122070
6444040500,0.00152588,0.00773621,-1.00517273,0.305176,0.061035,-0.122070
6449167208,0.00152588,0.00773621,-1.00517273,0.427246,-0.061035,-0.122070
6454255583,0.00215149,0.00752258,-1.00646973,0.427246,-0.061035,-0.122070
6459364458,0.00215149,0.00752258,-1.00646973,0.244141,0.122070,-0.061035
6461909958,0.00212097,0.00802612,-1.00682068,0.244141,0.122070,-0.061035
6469440000,0.00212097,0.00802612,-1.00682068,0.305176,0.061035,-0.061035
6471993208,0.00025940,0.00848389,-1.00640869,0.305176,0.061035,-0.061035
6479271000,0.00025940,0.00848389,-1.00640869,0.305176,0.061035,-0.122070
6481827583,0.00126648,0.00776672,-1.00538635,0.305176,0.061035,-0.122070
6489058666,0.00126648,0.00776672,-1.00538635,0.183105,0.061035,-0.183105
6493799500,0.00117493,0.00794983,-1.00636292,0.183105,0.061035,-0.183105
6498892916,0.00117493,0.00794983,-1.00636292,0.488281,0.061035,-0.122070
6503979916,0.00154114,0.00755310,-1.00671387,0.488281,0.061035,-0.122070
6508868666,0.00154114,0.00755310,-1.00671387,0.183105,0.061035,-0.122070
6513950958,0.00198364,0.00778198,-1.00563049,0.183105,0.061035,-0.122070
6519036166,0.00198364,0.00778198,-1.00563049,0.427246,0.061035,-0.061035
6524118583,0.00236511,0.00860596,-1.00616455,0.427246,0.061035,-0.061035
6529205333,0.00236511,0.00860596,-1.00616455,0.122070,0.061035,-0.061035
6531801250,0.00187683,0.00869751,-1.00491333,0.122070,0.061035,-0.061035
6539466708,0.00187683,0.00869751,-1.00491333,0.305176,0.122070,-0.061035
6542005583,0.00204468,0.00778198,-1.00578308,0.305176,0.122070,-0.061035
6549589541,0.00204468,0.00778198,-1.00578308,0.122070,0.000000,-0.122070
6551955250,0.00202942,0.00758362,-1.00434875,0.122070,0.000000,-0.122070
6559593416,0.00202942,0.00758362,-1.00434875,0.244141,0.000000,-0.061035
6562147750,0.00151062,0.00820923,-1.00564575,0.244141,0.000000,-0.061035
6569750583,0.00151062,0.00820923,-1.00564575,0.244141,0.061035,-0.061035
6572299666,0.00198364,0.00816345,-1.00527954,0.244141,0.061035,-0.061035
6579575708,0.00198364,0.00816345,-1.00527954,0.305176,0.000000,-0.061035
6582115958,0.00131226,0.00805664,-1.00698853,0.305176,0.000000,-0.061035
6589735875,0.00131226,0.00805664,-1.00698853,0.305176,0.122070,-0.183105
6592196416,0.00169373,0.00741577,-1.00660706,0.305176,0.122070,-0.183105
6599819666,0.00169373,0.00741577,-1.00660706,0.366211,-0.183105,-0.061035
6602359708,0.00140381,0.00781250,-1.00711060,0.366211,-0.183105,-0.061035
6609953958,0.00140381,0.00781250,-1.00711060,0.366211,0.122070,0.000000
6612492000,0.00105286,0.00794983,-1.00555420,0.366211,0.122070,0.000000
6620093250,0.00105286,0.00794983,-1.00555420,0.305176,0.000000,-0.061035
6622635500,0.00163269,0.00868225,-1.00552368,0.305176,0.000000,-0.061035
6630203833,0.00163269,0.00868225,-1.00552368,0.366211,0.061035,-0.244141
6632722541,0.00198364,0.00811768,-1.00559998,0.366211,0.061035,-0.244141
6640285833,0.00198364,0.00811768,-1.00559998,0.366211,-0.061035,-0.061035
6642825625,0.00178528,0.00796509,-1.00637817,0.366211,-0.061035,-0.061035
6650406916,0.00178528,0.00796509,-1.00637817,0.366211,0.000000,-0.061035
6652969041,0.00144958,0.00857544,-1.00645447,0.366211,0.000000,-0.061035
6660272750,0.00144958,0.00857544,-1.00645447,0.244141,0.000000,-0.244141
6662824333,0.00131226,0.00791931,-1.00682068,0.244141,0.000000,-0.244141
6670422791,0.00131226,0.00791931,-1.00682068,0.366211,0.061035,-0.122070
6672974916,0.00125122,0.00805664,-1.00492859,0.366211,0.061035,-0.122070
6680593250,0.00125122,0.00805664,-1.00492859,0.488281,-0.061035,-0.061035
6683135708,0.00141907,0.00756836,-1.00546265,0.488281,-0.061035,-0.061035
6690475583,0.00141907,0.00756836,-1.00546265,0.305176,-0.061035,-0.061035
6693027291,0.00091553,0.00778198,-1.00506592,0.305176,-0.061035,-0.061035
6700680916,0.00091553,0.00778198,-1.00506592,0.305176,-0.061035,-0.061035
6702984750,0.00042725,0.00811768,-1.00656128,0.305176,-0.061035,-0.061035
6710583416,0.00042725,0.00811768,-1.00656128,0.305176,0.000000,-0.061035
6713126458,0.00135803,0.00764465,-1.00576782,0.305176,0.000000,-0.061035
6720715958,0.00135803,0.00764465,-1.00576782,0.427246,0.122070,-0.061035
6723256875,0.00134277,0.00730896,-1.00622559,0.427246,0.122070,-0.061035
6730854875,0.00134277,0.00730896,-1.00622559,0.244141,0.183105,-0.122070
6733424541,0.00094604,0.00749207,-1.00480652,0.244141,0.183105,-0.122070
6738491125,0.00094604,0.00749207,-1.00480652,0.183105,0.000000,-0.122070
6743556291,0.00212097,0.00791931,-1.00628662,0.183105,0.000000,-0.122070
6748630541,0.00212097,0.00791931,-1.00628662,0.366211,0.061035,-0.122070
6753722625,0.00173950,0.00816345,-1.00636292,0.366211,0.061035,-0.122070
6758582916,0.00173950,0.00816345,-1.00636292,0.305176,0.000000,-0.122070
6763661291,0.00119019,0.00814819,-1.00675964,0.305176,0.000000,-0.122070
6768731916,0.00119019,0.00814819,-1.00675964,0.366211,0.000000,-0.061035
6773828458,0.00064087,0.00860596,-1.00585938,0.366211,0.000000,-0.061035
6778910375,0.00064087,0.00860596,-1.00585938,0.244141,0.122070,0.000000
6784030333,0.00079346,0.00808716,-1.00679016,0.244141,0.122070,0.000000
6788864083,0.00079346,0.00808716,-1.00679016,0.244141,0.000000,0.000000
6793945666,0.00172424,0.00825500,-1.00706482,0.244141,0.000000,0.000000
6799022333,0.00172424,0.00825500,-1.00706482,0.305176,0.061035,-0.122070
6804093750,0.00135803,0.00750732,-1.00544739,0.305176,0.061035,-0.122070
6808834333,0.00135803,0.00750732,-1.00544739,0.366211,0.000000,-0.122070
6813915000,0.00132751,0.00781250,-1.00613403,0.366211,0.000000,-0.122070
6818985083,0.00132751,0.00781250,-1.00613403,0.366211,0.000000,0.061035
6824052125,0.00122070,0.00756836,-1.00596619,0.366211,0.000000,0.061035
6829128750,0.00122070,0.00756836,-1.00596619,0.366211,0.122070,-0.122070
6834203708,0.00100708,0.00807190,-1.00587463,0.366211,0.122070,-0.122070
6838857375,0.00100708,0.00807190,-1.00587463,0.183105,0.122070,-0.061035
6843499375,0.00148010,0.00770569,-1.00535583,0.183105,0.122070,-0.061035
6848576750,0.00148010,0.00770569,-1.00535583,0.305176,0.000000,0.000000
6853645000,0.00144958,0.00854492,-1.00526428,0.305176,0.000000,0.000000
6860646750,0.00144958,0.00854492,-1.00526428,0.305176,0.000000,0.000000
6863189791,0.00108337,0.00813293,-1.00659180,0.305176,0.000000,0.000000
6870779583,0.00108337,0.00813293,-1.00659180,0.427246,0.000000,0.000000
6873318875,0.00161743,0.00759888,-1.00604248,0.427246,0.000000,0.000000
6880921416,0.00161743,0.00759888,-1.00604248,0.183105,0.000000,-0.122070
6883472916,0.00158691,0.00842285,-1.00701904,0.183105,0.000000,-0.122070
6888555541,0.00158691,0.00842285,-1.00701904,0.488281,0.000000,-0.061035
6893645125,0.00135803,0.00750732,-1.00645447,0.488281,0.000000,-0.061035
6900793083,0.00135803,0.00750732,-1.00645447,0.244141,-0.061035,0.061035
6903339166,0.00067139,0.00776672,-1.00624084,0.244141,-0.061035,0.061035
6908420458,0.00067139,0.00776672,-1.00624084,0.305176,0.122070,-0.183105
6913497500,0.00152588,0.00836182,-1.00691223,0.305176,0.122070,-0.183105
6918564333,0.00152588,0.00836182,-1.00691223,0.305176,-0.061035,-0.183105
6923626208,0.00175476,0.00767517,-1.00653076,0.305176,-0.061035,-0.183105
6928688625,0.00175476,0.00767517,-1.00653076,0.366211,-0.061035,-0.244141
6933766250,0.00170898,0.00764465,-1.00715637,0.366211,-0.061035,-0.244141
6938846625,0.00170898,0.00764465,-1.00715637,0.366211,0.122070,0.061035
6943908875,0.00082397,0.00770569,-1.00634766,0.366211,0.122070,0.061035
6948976666,0.00082397,0.00770569,-1.00634766,0.427246,0.000000,-0.122070
6954044541,0.00152588,0.00817871,-1.00683594,0.427246,0.000000,-0.122070
6958835333,0.00152588,0.00817871,-1.00683594,0.366211,0.000000,-0.183105
6963923416,0.00195312,0.00871277,-1.00634766,0.366211,0.000000,-0.183105
6969001083,0.00195312,0.00871277,-1.00634766,0.244141,0.122070,-0.183105
6974072583,0.00166321,0.00788879,-1.00688171,0.244141,0.122070,-0.183105
6979156125,0.00166321,0.00788879,-1.00688171,0.183105,0.000000,-0.061035
6984242666,0.00149536,0.00784302,-1.00567627,0.183105,0.000000,-0.061035
6989324000,0.00149536,0.00784302,-1.00567627,0.305176,0.061035,0.000000
6991868458,0.00195312,0.00769043,-1.00730896,0.305176,0.061035,0.000000
6999467625,0.00195312,0.00769043,-1.00730896,0.366211,0.122070,-0.061035
7002007166,0.00117493,0.00758362,-1.00625610,0.366211,0.122070,-0.061035
7009594583,0.00117493,0.00758362,-1.00625610,0.366211,0.061035,-0.122070
7012131666,0.00181580,0.00860596,-1.00625610,0.366211,0.061035,-0.122070
7019650708,0.00181580,0.00860596,-1.00625610,0.366211,0.000000,-0.061035
7022192625,0.00183105,0.00785828,-1.00640869,0.366211,0.000000,-0.061035
7029395958,0.00183105,0.00785828,-1.00640869,0.366211,0.061035,-0.122070
7031942166,0.00169373,0.00715637,-1.00625610,0.366211,0.061035,-0.122070
7039525583,0.00169373,0.00715637,-1.00625610,0.183105,0.122070,-0.061035
7042062916,0.00109863,0.00747681,-1.00611877,0.183105,0.122070,-0.061035
7049646000,0.00109863,0.00747681,-1.00611877,0.366211,0.061035,-0.061035
7052194083,0.00137329,0.00814819,-1.00718689,0.366211,0.061035,-0.061035
7059450750,0.00137329,0.00814819,-1.00718689,0.305176,0.061035,-0.183105
7061990416,0.00122070,0.00764465,-1.00628662,0.305176,0.061035,-0.183105
7069579375,0.00122070,0.00764465,-1.00628662,0.366211,0.000000,-0.061035
7072117541,0.00106812,0.00825500,-1.00749207,0.366211,0.000000,-0.061035
7079717750,0.00106812,0.00825500,-1.00749207,0.244141,0.000000,-0.061035
7082253291,0.00152588,0.00790405,-1.00492859,0.244141,0.000000,-0.061035
7089840833,0.00152588,0.00790405,-1.00492859,0.183105,-0.061035,-0.061035
7092379916,0.00122070,0.00733948,-1.00631714,0.183105,-0.061035,-0.061035
7099985166,0.00122070,0.00733948,-1.00631714,0.366211,-0.061035,-0.061035
7102541416,0.00068665,0.00787354,-1.00640869,0.366211,-0.061035,-0.061035
7110151833,0.00068665,0.00787354,-1.00640869,0.488281,0.183105,-0.122070
7112692916,0.00056458,0.00836182,-1.00685120,0.488281,0.183105,-0.122070
7120283916,0.00056458,0.00836182,-1.00685120,0.305176,-0.061035,-0.122070
7122838750,0.00125122,0.00805664,-1.00585938,0.305176,-0.061035,-0.122070
7130451958,0.00125122,0.00805664,-1.00585938,0.122070,-0.061035,-0.122070
7132989416,0.00212097,0.00772095,-1.00628662,0.122070,-0.061035,-0.122070
7140601541,0.00212097,0.00772095,-1.00628662,0.305176,-0.061035,-0.122070
7143147666,0.00134277,0.00784302,-1.00610352,0.305176,-0.061035,-0.122070
7150745166,0.00134277,0.00784302,-1.00610352,0.305176,-0.122070,0.000000
7152987208,0.00114441,0.00804138,-1.00680542,0.305176,-0.122070,0.000000
7160178000,0.00114441,0.00804138,-1.00680542,0.366211,0.122070,-0.122070
7162719083,0.00077820,0.00839233,-1.00692749,0.366211,0.122070,-0.122070
7170304916,0.00077820,0.00839233,-1.00692749,0.366211,0.061035,-0.122070
7172838375,0.00051880,0.00791931,-1.00653076,0.366211,0.061035,-0.122070
7180087916,0.00051880,0.00791931,-1.00653076,0.427246,0.061035,0.061035
7182631166,0.00207520,0.00880432,-1.00683594,0.427246,0.061035,0.061035
7190221375,0.00207520,0.00880432,-1.00683594,0.488281,0.061035,-0.061035
7192769875,0.00123596,0.00782776,-1.00581360,0.488281,0.061035,-0.061035
7200365708,0.00123596,0.00782776,-1.00581360,0.183105,-0.061035,-0.061035
7202919875,0.00215149,0.00839233,-1.00691223,0.183105,-0.061035,-0.061035
7210541958,0.00215149,0.00839233,-1.00691223,0.366211,0.061035,-0.122070
7213105500,0.00199890,0.00785828,-1.00645447,0.366211,0.061035,-0.122070
7220383333,0.00199890,0.00785828,-1.00645447,0.244141,-0.061035,0.000000
7222462458,0.00132751,0.00859070,-1.00590515,0.244141,-0.061035,0.000000
7230084500,0.00132751,0.00859070,-1.00590515,0.366211,0.000000,0.061035
7232625666,0.00128174,0.00845337,-1.00685120,0.366211,0.000000,0.061035
7240124208,0.00128174,0.00845337,-1.00685120,0.244141,0.061035,-0.061035
7242666041,0.00099182,0.00802612,-1.00553894,0.244141,0.061035,-0.061035
7249990791,0.00099182,0.00802612,-1.00553894,0.122070,0.000000,-0.122070
7252530541,0.00132751,0.00778198,-1.00592041,0.122070,0.000000,-0.122070
7260138708,0.00132751,0.00778198,-1.00592041,0.366211,0.061035,-0.122070
7262693708,0.00094604,0.00836182,-1.00543213,0.366211,0.061035,-0.122070
7270282708,0.00094604,0.00836182,-1.00543213,0.366211,0.122070,-0.183105
7272820958,0.00169373,0.00790405,-1.00662231,0.366211,0.122070,-0.183105
7280406666,0.00169373,0.00790405,-1.00662231,0.366211,0.000000,-0.122070
7282949041,0.00169373,0.00814819,-1.00595093,0.366211,0.000000,-0.122070
7290540125,0.00169373,0.00814819,-1.00595093,0.305176,0.061035,-0.122070
7293085583,0.00161743,0.00851440,-1.00558472,0.305176,0.061035,-0.122070
7300481333,0.00161743,0.00851440,-1.00558472,0.366211,0.061035,-0.061035
7303036791,0.00135803,0.00775146,-1.00634766,0.366211,0.061035,-0.061035
7310655416,0.00135803,0.00775146,-1.00634766,0.305176,-0.061035,-0.122070
7313206416,0.00212097,0.00823975,-1.00610352,0.305176,-0.061035,-0.122070
7320795958,0.00212097,0.00823975,-1.00610352,0.427246,0.122070,0.000000
7323346291,0.00205994,0.00732422,-1.00556946,0.427246,0.122070,0.000000
7328421625,0.00205994,0.00732422,-1.00556946,0.244141,0.061035,0.000000
7333426041,0.00231934,0.00686646,-1.00588989,0.244141,0.061035,0.000000
7338530916,0.00231934,0.00686646,-1.00588989,0.305176,0.000000,0.000000
7343596875,0.00177002,0.00790405,-1.00733948,0.305176,0.000000,0.000000
7348658083,0.00177002,0.00790405,-1.00733948,0.366211,0.061035,-0.122070
7353719791,0.00051880,0.00827026,-1.00607300,0.366211,0.061035,-0.122070
7358783666,0.00051880,0.00827026,-1.00607300,0.366211,0.000000,-0.122070
7363865333,0.00047302,0.00827026,-1.00694275,0.366211,0.000000,-0.122070
7368951708,0.00047302,0.00827026,-1.00694275,0.366211,-0.061035,-0.061035
7373756166,0.00131226,0.00767517,-1.00596619,0.366211,-0.061035,-0.061035
7378824416,0.00131226,0.00767517,-1.00596619,0.244141,0.122070,0.061035
7383904625,0.00151062,0.00761414,-1.00544739,0.244141,0.122070,0.061035
7388850791,0.00151062,0.00761414,-1.00544739,0.305176,0.061035,0.061035
7393947250,0.00164795,0.00790405,-1.00646973,0.305176,0.061035,0.061035
7399044916,0.00164795,0.00790405,-1.00646973,0.427246,0.061035,0.000000
7404110375,0.00137329,0.00811768,-1.00698853,0.427246,0.061035,0.000000
7409181625,0.00137329,0.00811768,-1.00698853,0.366211,0.061035,0.000000
7414245625,0.00244141,0.00798035,-1.00628662,0.366211,0.061035,0.000000
7419311875,0.00244141,0.00798035,-1.00628662,0.305176,0.000000,0.000000
7424386583,0.00167847,0.00753784,-1.00663757,0.305176,0.000000,0.000000
7429497041,0.00167847,0.00753784,-1.00663757,0.183105,0.000000,-0.244141
7434578041,0.00128174,0.00833130,-1.00659180,0.183105,0.000000,-0.244141
7439658333,0.00128174,0.00833130,-1.00659180,0.305176,0.122070,-0.061035
7444729625,0.00105286,0.00729370,-1.00646973,0.305176,0.122070,-0.061035
7449793000,0.00105286,0.00729370,-1.00646973,0.122070,0.061035,0.061035
7454867791,0.00148010,0.00790405,-1.00633240,0.122070,0.061035,0.061035
7459442000,0.00148010,0.00790405,-1.00633240,0.488281,-0.122070,0.000000
7464488333,0.00135803,0.00816345,-1.00582886,0.488281,-0.122070,0.000000
7469478333,0.00135803,0.00816345,-1.00582886,0.305176,0.061035,-0.122070
7474163291,0.00137329,0.00865173,-1.00532532,0.305176,0.061035,-0.122070
7479241791,0.00137329,0.00865173,-1.00532532,0.427246,0.061035,0.000000
7484292583,0.00105286,0.00860596,-1.00741577,0.427246,0.061035,0.000000
7489364833,0.00105286,0.00860596,-1.00741577,0.366211,0.061035,0.000000
7494442250,0.00170898,0.00770569,-1.00593567,0.366211,0.061035,0.000000
7499512291,0.00170898,0.00770569,-1.00593567,0.427246,0.122070,-0.061035
7504603791,0.00120544,0.00746155,-1.00688171,0.427246,0.122070,-0.061035
7509699375,0.00120544,0.00746155,-1.00688171,0.244141,0.000000,-0.183105
7514764041,0.00129700,0.00863647,-1.00578308,0.244141,0.000000,-0.183105
7519815833,0.00129700,0.00863647,-1.00578308,0.183105,-0.061035,-0.061035
7524583166,0.00070190,0.00881958,-1.00610352,0.183105,-0.061035,-0.061035
7529649250,0.00070190,0.00881958,-1.00610352,0.427246,0.000000,-0.061035
7534714291,0.00161743,0.00827026,-1.00556946,0.427246,0.000000,-0.061035
7539776333,0.00161743,0.00827026,-1.00556946,0.183105,0.000000,-0.061035
7544836458,0.00183105,0.00846863,-1.00575256,0.183105,0.000000,-0.061035
7549913375,0.00183105,0.00846863,-1.00575256,0.427246,0.122070,-0.061035
7552491625,0.00129700,0.00830078,-1.00628662,0.427246,0.122070,-0.061035
7560091250,0.00129700,0.00830078,-1.00628662,0.305176,0.122070,0.122070
7562631833,0.00097656,0.00804138,-1.00584412,0.305176,0.122070,0.122070
7570167333,0.00097656,0.00804138,-1.00584412,0.183105,0.061035,-0.122070
7572705208,0.00114441,0.00819397,-1.00592041,0.183105,0.061035,-0.122070
7580301208,0.00114441,0.00819397,-1.00592041,0.366211,0.000000,-0.122070
7582851166,0.00097656,0.00808716,-1.00619507,0.366211,0.000000,-0.122070
7590238625,0.00097656,0.00808716,-1.00619507,0.244141,0.061035,-0.122070
7592786083,0.00120544,0.00799561,-1.00625610,0.244141,0.061035,-0.122070
7600372166,0.00120544,0.00799561,-1.00625610,0.305176,0.000000,-0.122070
7602907250,0.00190735,0.00791931,-1.00646973,0.305176,0.000000,-0.122070
7610520708,0.00190735,0.00791931,-1.00646973,0.488281,0.061035,-0.061035
7613064833,0.00173950,0.00762939,-1.00541687,0.488281,0.061035,-0.061035
7620662041,0.00173950,0.00762939,-1.00541687,0.244141,0.000000,-0.122070
7623202041,0.00210571,0.00772095,-1.00662231,0.244141,0.000000,-0.122070
7630537458,0.00210571,0.00772095,-1.00662231,0.305176,0.000000,-0.061035
7633089416,0.00192261,0.00787354,-1.00596619,0.305176,0.000000,-0.061035
7640714958,0.00192261,0.00787354,-1.00596619,0.305176,0.122070,-0.183105
7643261958,0.00091553,0.00846863,-1.00665283,0.305176,0.122070,-0.183105
7650694416,0.00091553,0.00846863,-1.00665283,0.366211,0.183105,0.061035
7653263458,0.00173950,0.00799561,-1.00566101,0.366211,0.183105,0.061035
7660865208,0.00173950,0.00799561,-1.00566101,0.305176,0.122070,0.000000
7663413250,0.00074768,0.00703430,-1.00648499,0.305176,0.122070,0.000000
7670546625,0.00074768,0.00703430,-1.00648499,0.427246,0.122070,-0.061035
7673095250,0.00170898,0.00811768,-1.00614929,0.427246,0.122070,-0.061035
7680700083,0.00170898,0.00811768,-1.00614929,0.366211,0.122070,-0.122070
7683238083,0.00119019,0.00842285,-1.00579834,0.366211,0.122070,-0.122070
7690857625,0.00119019,0.00842285,-1.00579834,0.183105,0.061035,-0.183105
7693428208,0.00141907,0.00779724,-1.00579834,0.183105,0.061035,-0.183105
7698506666,0.00141907,0.00779724,-1.00579834,0.305176,-0.061035,-0.122070
7703568875,0.00189209,0.00871277,-1.00552368,0.305176,-0.061035,-0.122070
7708647583,0.00189209,0.00871277,-1.00552368,0.366211,0.122070,-0.122070
7713721458,0.00184631,0.00897217,-1.00570679,0.366211,0.122070,-0.122070
7718791625,0.00184631,0.00897217,-1.00570679,0.244141,0.183105,-0.061035
7723879583,0.00274658,0.00796509,-1.00563049,0.244141,0.183105,-0.061035
7728947666,0.00274658,0.00796509,-1.00563049,0.305176,0.061035,-0.122070
7733584708,0.00225830,0.00724792,-1.00704956,0.305176,0.061035,-0.122070
7738660250,0.00225830,0.00724792,-1.00704956,0.366211,0.000000,-0.183105
7743726666,0.00143433,0.00758362,-1.00584412,0.366211,0.000000,-0.183105
7748327000,0.00143433,0.00758362,-1.00584412,0.183105,0.000000,-0.122070
7753412458,0.00062561,0.00862122,-1.00610352,0.183105,0.000000,-0.122070
7758507000,0.00062561,0.00862122,-1.00610352,0.427246,0.000000,-0.122070
7763622250,0.00074768,0.00762939,-1.00608826,0.427246,0.000000,-0.122070
7768716541,0.00074768,0.00762939,-1.00608826,0.305176,0.000000,-0.244141
7773502041,0.00071716,0.00831604,-1.00544739,0.305176,0.000000,-0.244141
7778590041,0.00071716,0.00831604,-1.00544739,0.366211,-0.061035,-0.061035
7783577291,0.00149536,0.00862122,-1.00669861,0.366211,-0.061035,-0.061035
7788687958,0.00149536,0.00862122,-1.00669861,0.366211,0.061035,0.000000
7793668666,0.00102234,0.00836182,-1.00614929,0.366211,0.061035,0.000000
7798741750,0.00102234,0.00836182,-1.00614929,0.244141,0.000000,-0.061035
7803805458,0.00210571,0.00776672,-1.00677490,0.244141,0.000000,-0.061035
7808680958,0.00210571,0.00776672,-1.00677490,0.305176,-0.061035,-0.183105
7813730750,0.00178528,0.00851440,-1.00578308,0.305176,-0.061035,-0.183105
7818475541,0.00178528,0.00851440,-1.00578308,0.244141,0.061035,-0.061035
7823538750,0.00181580,0.00854492,-1.00665283,0.244141,0.061035,-0.061035
7828552166,0.00181580,0.00854492,-1.00665283,0.366211,0.061035,-0.183105
7833308416,0.00093079,0.00833130,-1.00671387,0.366211,0.061035,-0.183105
7838393125,0.00093079,0.00833130,-1.00671387,0.244141,0.000000,-0.183105
7843472458,0.00061035,0.00781250,-1.00651550,0.244141,0.000000,-0.183105
7848529291,0.00061035,0.00781250,-1.00651550,0.427246,0.000000,-0.122070
7853612583,0.00231934,0.00836182,-1.00675964,0.427246,0.000000,-0.122070
7858736875,0.00231934,0.00836182,-1.00675964,0.366211,0.061035,-0.061035
7863869583,0.00170898,0.00851440,-1.00610352,0.366211,0.061035,-0.061035
7868945875,0.00170898,0.00851440,-1.00610352,0.366211,-0.061035,-0.183105
7874027500,0.00177002,0.00791931,-1.00714111,0.366211,-0.061035,-0.183105
7879099333,0.00177002,0.00791931,-1.00714111,0.366211,0.122070,0.000000
7884149125,0.00198364,0.00796509,-1.00480652,0.366211,0.122070,0.000000
7889198791,0.00198364,0.00796509,-1.00480652,0.366211,0.061035,0.000000
7894314125,0.00155640,0.00804138,-1.00633240,0.366211,0.061035,0.000000
7899404208,0.00155640,0.00804138,-1.00633240,0.366211,0.000000,-0.122070
7904494958,0.00215149,0.00749207,-1.00573730,0.366211,0.000000,-0.122070
7909583583,0.00215149,0.00749207,-1.00573730,0.427246,0.183105,0.000000
7914660250,0.00138855,0.00819397,-1.00566101,0.427246,0.183105,0.000000
7919634708,0.00138855,0.00819397,-1.00566101,0.244141,0.000000,-0.061035
7924511166,0.00213623,0.00765991,-1.00543213,0.244141,0.000000,-0.061035
7929602708,0.00213623,0.00765991,-1.00543213,0.427246,0.122070,-0.122070
7934378083,0.00204468,0.00735474,-1.00665283,0.427246,0.122070,-0.122070
7939442541,0.00204468,0.00735474,-1.00665283,0.305176,0.122070,-0.122070
7944525583,0.00073242,0.00822449,-1.00706482,0.305176,0.122070,-0.122070
7949612500,0.00073242,0.00822449,-1.00706482,0.305176,0.122070,-0.061035
7954676666,0.00112915,0.00769043,-1.00688171,0.305176,0.122070,-0.061035
7959738375,0.00112915,0.00769043,-1.00688171,0.305176,0.061035,-0.122070
7964811416,0.00090027,0.00749207,-1.00636292,0.305176,0.061035,-0.122070
7969634625,0.00090027,0.00749207,-1.00636292,0.183105,0.000000,-0.061035
7974692750,0.00144958,0.00785828,-1.00573730,0.183105,0.000000,-0.061035
7979744958,0.00144958,0.00785828,-1.00573730,0.244141,0.061035,-0.061035
7984835208,0.00045776,0.00842285,-1.00607300,0.244141,0.061035,-0.061035
7989504000,0.00045776,0.00842285,-1.00607300,0.305176,0.000000,-0.122070
7994619333,0.00181580,0.00804138,-1.00701904,0.305176,0.000000,-0.122070
7999706416,0.00181580,0.00804138,-1.00701904,0.183105,0.122070,-0.061035
8004785416,0.00256348,0.00868225,-1.00521851,0.183105,0.122070,-0.061035
8009856583,0.00256348,0.00868225,-1.00521851,0.366211,0.000000,-0.122070
8012397875,0.00102234,0.00825500,-1.00720215,0.366211,0.000000,-0.122070
8019977791,0.00102234,0.00825500,-1.00720215,0.427246,0.122070,-0.061035
8022514625,0.00131226,0.00828552,-1.00602722,0.427246,0.122070,-0.061035
8030129041,0.00131226,0.00828552,-1.00602722,0.305176,0.000000,-0.061035
8032676625,0.00198364,0.00823975,-1.00578308,0.305176,0.000000,-0.061035
8040173208,0.00198364,0.00823975,-1.00578308,0.305176,0.000000,-0.183105
8042719541,0.00135803,0.00834656,-1.00611877,0.305176,0.000000,-0.183105
8050344833,0.00135803,0.00834656,-1.00611877,0.183105,0.183105,-0.183105
8052893458,0.00157166,0.00808716,-1.00663757,0.183105,0.183105,-0.183105
8060464666,0.00157166,0.00808716,-1.00663757,0.366211,0.000000,-0.122070
8062988000,0.00170898,0.00703430,-1.00556946,0.366211,0.000000,-0.122070
8070362083,0.00170898,0.00703430,-1.00556946,0.427246,-0.061035,-0.183105
8072898541,0.00151062,0.00674438,-1.00630188,0.427246,-0.061035,-0.183105
8080531125,0.00151062,0.00674438,-1.00630188,0.305176,0.061035,0.000000
8083099000,0.00149536,0.00805664,-1.00688171,0.305176,0.061035,0.000000
8090719416,0.00149536,0.00805664,-1.00688171,0.427246,0.000000,0.000000
8093272875,0.00128174,0.00787354,-1.00543213,0.427246,0.000000,0.000000
8098444500,0.00128174,0.00787354,-1.00543213,0.244141,0.122070,0.000000
8103531375,0.00109863,0.00779724,-1.00613403,0.244141,0.122070,0.000000
8108601041,0.00109863,0.00779724,-1.00613403,0.549316,0.061035,0.061035
8113692291,0.00178528,0.00793457,-1.00581360,0.549316,0.061035,0.061035
8118755583,0.00178528,0.00793457,-1.00581360,0.305176,-0.061035,0.000000
8123831000,0.00184631,0.00817871,-1.00497437,0.305176,-0.061035,0.000000
8128904666,0.00184631,0.00817871,-1.00497437,0.366211,0.183105,0.061035
8133965958,0.00161743,0.00779724,-1.00619507,0.366211,0.183105,0.061035
8139024000,0.00161743,0.00779724,-1.00619507,0.427246,-0.061035,-0.122070
8144111500,0.00086975,0.00846863,-1.00546265,0.427246,-0.061035,-0.122070
8148955958,0.00086975,0.00846863,-1.00546265,0.366211,0.000000,-0.122070
8154031958,0.00172424,0.00794983,-1.00616455,0.366211,0.000000,-0.122070
8158831250,0.00172424,0.00794983,-1.00616455,0.366211,0.061035,-0.061035
8163899458,0.00155640,0.00817871,-1.00593567,0.366211,0.061035,-0.061035
8168952916,0.00155640,0.00817871,-1.00593567,0.366211,0.000000,-0.061035
8174040958,0.00122070,0.00840759,-1.00688171,0.366211,0.000000,-0.061035
8179122958,0.00122070,0.00840759,-1.00688171,0.305176,0.000000,-0.061035
8184196958,0.00190735,0.00805664,-1.00540161,0.305176,0.000000,-0.061035
8189296666,0.00190735,0.00805664,-1.00540161,0.244141,-0.122070,-0.244141
8194364500,0.00173950,0.00846863,-1.00640869,0.244141,-0.122070,-0.244141
8199447625,0.00173950,0.00846863,-1.00640869,0.305176,0.061035,0.000000
8204536375,0.00221252,0.00828552,-1.00595093,0.305176,0.061035,0.000000
8209629458,0.00221252,0.00828552,-1.00595093,0.366211,0.000000,-0.122070
8214726375,0.00100708,0.00779724,-1.00610352,0.366211,0.000000,-0.122070
8219657750,0.00100708,0.00779724,-1.00610352,0.366211,0.000000,0.000000
8224734416,0.00180054,0.00761414,-1.00592041,0.366211,0.000000,0.000000
8229810791,0.00180054,0.00761414,-1.00592041,0.305176,0.122070,-0.122070
8234902666,0.00138855,0.00770569,-1.00491333,0.305176,0.122070,-0.122070
