timestamp_ns,accel_x,accel_y,accel_z,gyro_x,gyro_y,gyro_z
122659083,0.00746155,0.00653076,-1.00898743,0.000000,0.000000,0.000000
127752416,0.00746155,0.00653076,-1.00898743,0.244141,-0.061035,0.000000
133106625,0.00738525,0.00691223,-1.00814819,0.244141,-0.061035,0.000000
135699791,0.00738525,0.00691223,-1.00814819,0.183105,-0.366211,-0.061035
144431833,0.00700378,0.00794983,-1.00665283,0.183105,-0.183105,0.061035
158837208,0.00613403,0.00805664,-1.00532532,0.427246,0.061035,0.122070
170494500,0.00369263,0.00593567,-1.01017761,0.427246,0.061035,0.122070
173376000,0.00390625,0.00613403,-1.00175476,0.122070,-0.244141,0.122070
173381250,0.00390625,0.00613403,-1.00175476,0.427246,-0.122070,0.000000
184985250,0.00668335,0.00799561,-1.00862122,0.183105,-0.122070,-0.061035
191498375,0.00888062,0.00820923,-1.00869751,0.183105,-0.122070,-0.061035
198023708,0.00888062,0.00820923,-1.00869751,0.366211,-0.183105,-0.061035
203947166,0.01124573,0.00860596,-1.00814819,0.366211,-0.122070,-0.061035
211789916,0.01065063,0.00781250,-1.00543213,0.366211,-0.122070,-0.061035
216716708,0.01065063,0.00781250,-1.00543213,0.488281,-0.183105,-0.061035
222202041,0.00881958,0.00625610,-1.00839233,0.488281,-0.183105,-0.061035
224769416,0.00881958,0.00625610,-1.00839233,0.183105,-0.183105,-0.061035
229910708,0.00653076,0.00541687,-1.00910950,0.183105,-0.183105,-0.061035
234640083,0.00653076,0.00541687,-1.00910950,0.244141,-0.122070,-0.061035
239696166,0.00425720,0.00590515,-1.00727844,0.244141,-0.122070,-0.061035
244747625,0.00425720,0.00590515,-1.00727844,0.183105,-0.061035,0.000000
249825250,0.00289917,0.00613403,-1.00939941,0.183105,-0.061035,0.000000
254955791,0.00289917,0.00613403,-1.00939941,0.244141,-0.122070,-0.061035
260006166,0.00489807,0.00624084,-1.00802612,0.244141,-0.122070,-0.061035
265077833,0.00489807,0.00624084,-1.00802612,0.244141,-0.305176,0.000000
270314375,0.00537109,0.00732422,-1.00782776,0.244141,-0.305176,0.000000
272840250,0.00537109,0.00732422,-1.00782776,0.305176,-0.183105,-0.122070
280418916,0.00724792,0.00811768,-1.00863647,0.305176,-0.183105,-0.122070
283020541,0.00724792,0.00811768,-1.00863647,0.366211,-0.244141,0.000000
290668083,0.00820923,0.00802612,-1.00708008,0.366211,-0.244141,0.000000
293202291,0.00820923,0.00802612,-1.00708008,0.366211,-0.244141,-0.061035
300851916,0.00672913,0.00898743,-1.00711060,0.366211,-0.244141,-0.061035
303404291,0.00672913,0.00898743,-1.00711060,0.183105,-0.122070,0.122070
310976000,0.00741577,0.00791931,-1.00828552,0.183105,-0.122070,0.122070
313501291,0.00741577,0.00791931,-1.00828552,0.305176,-0.183105,-0.061035
321049166,0.00801086,0.00605774,-1.00830078,0.305176,-0.183105,-0.061035
323578500,0.00801086,0.00605774,-1.00830078,0.366211,-0.183105,0.000000
330901500,0.00831604,0.00584412,-1.00833130,0.366211,-0.183105,0.000000
333456375,0.00831604,0.00584412,-1.00833130,0.366211,-0.244141,0.000000
341008541,0.00834656,0.00604248,-1.00837708,0.366211,-0.244141,0.000000
343546958,0.00834656,0.00604248,-1.00837708,0.427246,-0.061035,0.000000
351089041,0.00750732,0.00552368,-1.00773621,0.427246,-0.061035,0.000000
353620041,0.00750732,0.00552368,-1.00773621,0.366211,-0.122070,-0.061035
361146000,0.00746155,0.00537109,-1.00720215,0.366211,-0.122070,-0.061035
363704541,0.00746155,0.00537109,-1.00720215,0.427246,-0.183105,-0.183105
371350750,0.00671387,0.00659180,-1.00788879,0.427246,-0.183105,-0.183105
373881250,0.00671387,0.00659180,-1.00788879,0.305176,-0.183105,0.000000
378933041,0.00509644,0.00761414,-1.00775146,0.305176,-0.183105,0.000000
384033583,0.00509644,0.00761414,-1.00775146,0.427246,-0.122070,-0.061035
389078666,0.00497437,0.00810242,-1.00865173,0.427246,-0.122070,-0.061035
394152833,0.00497437,0.00810242,-1.00865173,-2.075195,-0.061035,0.000000
399253125,0.00646973,0.00810242,-0.99670410,-2.075195,-0.061035,0.000000
404298541,0.00646973,0.00810242,-0.99670410,0.488281,-0.061035,-0.061035
409344083,0.00869751,0.00730896,-1.03030396,0.488281,-0.061035,-0.061035
414341958,0.00869751,0.00730896,-1.03030396,-0.366211,-0.061035,-0.122070
419371083,0.00631714,0.00788879,-0.98835754,-0.366211,-0.061035,-0.122070
424421583,0.00631714,0.00788879,-0.98835754,1.220703,-0.305176,0.000000
429446166,0.00573730,0.00550842,-1.02145386,1.220703,-0.305176,0.000000
434481791,0.00573730,0.00550842,-1.02145386,0.183105,-0.244141,0.061035
439613791,0.00515747,0.00762939,-0.99787903,0.183105,-0.244141,0.061035
444653250,0.00515747,0.00762939,-0.99787903,0.427246,-0.183105,-0.061035
449764791,0.00453186,0.00790405,-1.01518250,0.427246,-0.183105,-0.061035
454829333,0.00453186,0.00790405,-1.01518250,0.244141,-0.122070,0.000000
459867125,0.00627136,0.00804138,-1.00453186,0.244141,-0.122070,0.000000
464918750,0.00627136,0.00804138,-1.00453186,0.366211,0.000000,-0.122070
470017416,0.00799561,0.00732422,-1.00758362,0.366211,0.000000,-0.122070
475058791,0.00799561,0.00732422,-1.00758362,0.244141,-0.122070,-0.061035
479982833,0.00622559,0.00617981,-1.00634766,0.244141,-0.122070,-0.061035
484721666,0.00622559,0.00617981,-1.00634766,0.427246,-0.122070,0.000000
489759291,0.00666809,0.00614929,-1.00741577,0.427246,-0.122070,0.000000
494794333,0.00666809,0.00614929,-1.00741577,0.427246,-0.183105,-0.122070
500032333,0.00778198,0.00585938,-1.00724792,0.427246,-0.183105,-0.122070
505097500,0.00778198,0.00585938,-1.00724792,0.305176,-0.122070,0.000000
510237791,0.00848389,0.00474548,-1.00622559,0.305176,-0.122070,0.000000
515331791,0.00848389,0.00474548,-1.00622559,0.305176,-0.122070,0.000000
520405583,0.00698853,0.00508118,-1.00840759,0.305176,-0.122070,0.000000
522962625,0.00698853,0.00508118,-1.00840759,0.244141,-0.122070,-0.061035
530515791,0.00715637,0.00575256,-1.00802612,0.244141,-0.122070,-0.061035
535271333,0.00715637,0.00575256,-1.00802612,0.427246,-0.122070,-0.061035
540372750,0.00834656,0.00556946,-1.00891113,0.427246,-0.122070,-0.061035
542913166,0.00834656,0.00556946,-1.00891113,0.183105,0.000000,0.000000
550497625,0.00811768,0.00672913,-1.00625610,0.183105,0.000000,0.000000
553046083,0.00811768,0.00672913,-1.00625610,0.305176,-0.183105,0.000000
560643000,0.00672913,0.00654602,-1.00897217,0.305176,-0.183105,0.000000
563184583,0.00672913,0.00654602,-1.00897217,0.427246,-0.122070,-0.244141
570813083,0.00758362,0.00759888,-1.00674438,0.427246,-0.122070,-0.244141
573342291,0.00758362,0.00759888,-1.00674438,0.488281,-0.183105,-0.061035
580908958,0.00714111,0.00889587,-1.00669861,0.488281,-0.183105,-0.061035
583439166,0.00714111,0.00889587,-1.00669861,0.427246,-0.305176,-0.122070
591200083,0.00657654,0.00888062,-1.00717163,0.427246,-0.305176,-0.122070
593718583,0.00657654,0.00888062,-1.00717163,0.488281,-0.183105,-0.122070
601365041,0.00575256,0.00947571,-1.00848389,0.488281,-0.183105,-0.122070
603896291,0.00575256,0.00947571,-1.00848389,0.244141,0.000000,0.000000
611479333,0.00466919,0.00862122,-1.00778198,0.244141,0.000000,0.000000
614016916,0.00466919,0.00862122,-1.00778198,0.305176,0.000000,0.061035
619072041,0.00416565,0.00782776,-1.00692749,0.305176,0.000000,0.061035
624111666,0.00416565,0.00782776,-1.00692749,0.366211,-0.061035,0.000000
629178000,0.00561523,0.00845337,-1.00877380,0.366211,-0.061035,0.000000
634250125,0.00561523,0.00845337,-1.00877380,0.183105,-0.122070,-0.061035
639305125,0.00456238,0.00718689,-1.00856018,0.183105,-0.122070,-0.061035
644377708,0.00456238,0.00718689,-1.00856018,0.366211,-0.183105,0.061035
649453333,0.00367737,0.00654602,-1.00788879,0.366211,-0.183105,0.061035
654515416,0.00367737,0.00654602,-1.00788879,0.244141,-0.244141,-0.061035
659611000,0.00613403,0.00582886,-1.00807190,0.244141,-0.244141,-0.061035
664652875,0.00613403,0.00582886,-1.00807190,0.305176,-0.183105,-0.122070
669698083,0.00697327,0.00631714,-1.00752258,0.305176,-0.183105,-0.122070
674732000,0.00697327,0.00631714,-1.00752258,0.244141,-0.183105,0.000000
679763583,0.00929260,0.00747681,-1.00695801,0.244141,-0.183105,0.000000
684841083,0.00929260,0.00747681,-1.00695801,0.366211,-0.183105,-0.061035
689880833,0.00981140,0.00630188,-1.00654602,0.366211,-0.183105,-0.061035
694936958,0.00981140,0.00630188,-1.00654602,0.305176,-0.183105,-0.061035
699986958,0.00961304,0.00518799,-1.00842285,0.305176,-0.183105,-0.061035
705039000,0.00961304,0.00518799,-1.00842285,0.305176,-0.122070,-0.061035
710161083,0.00904846,0.00515747,-1.00942993,0.305176,-0.122070,-0.061035
715201333,0.00904846,0.00515747,-1.00942993,0.305176,-0.122070,-0.122070
720239583,0.00778198,0.00479126,-1.00798035,0.305176,-0.122070,-0.122070
725321375,0.00778198,0.00479126,-1.00798035,0.244141,-0.122070,0.000000
730233333,0.00724792,0.00547791,-1.00741577,0.244141,-0.122070,0.000000
735308625,0.00724792,0.00547791,-1.00741577,0.366211,-0.244141,0.000000
740362041,0.00663757,0.00688171,-1.00840759,0.366211,-0.244141,0.000000
742880250,0.00663757,0.00688171,-1.00840759,0.427246,-0.183105,0.000000
750444333,0.00558472,0.00750732,-1.00776672,0.427246,-0.183105,0.000000
752965875,0.00558472,0.00750732,-1.00776672,0.305176,-0.183105,-0.061035
760543750,0.00523376,0.00869751,-1.00798035,0.305176,-0.183105,-0.061035
763086041,0.00523376,0.00869751,-1.00798035,0.183105,-0.122070,-0.122070
770635333,0.00553894,0.00840759,-1.00840759,0.183105,-0.122070,-0.122070
773179666,0.00553894,0.00840759,-1.00840759,0.183105,-0.244141,-0.061035
780744666,0.00714111,0.00888062,-1.00810242,0.183105,-0.244141,-0.061035
783277291,0.00714111,0.00888062,-1.00810242,0.427246,-0.183105,0.183105
790869708,0.00625610,0.00889587,-1.00773621,0.427246,-0.183105,0.183105
793388125,0.00625610,0.00889587,-1.00773621,0.488281,-0.183105,-0.061035
801033583,0.00633240,0.00761414,-1.00788879,0.488281,-0.183105,-0.061035
803575000,0.00633240,0.00761414,-1.00788879,0.244141,-0.061035,0.000000
811146958,0.00711060,0.00698853,-1.00842285,0.244141,-0.061035,0.000000
813697625,0.00711060,0.00698853,-1.00842285,0.427246,-0.061035,-0.122070
821263625,0.00648499,0.00564575,-1.00798035,0.427246,-0.061035,-0.122070
823785291,0.00648499,0.00564575,-1.00798035,0.183105,-0.122070,-0.122070
831357708,0.00698853,0.00488281,-1.00837708,0.183105,-0.122070,-0.122070
833874416,0.00698853,0.00488281,-1.00837708,0.305176,-0.061035,0.000000
841017375,0.00785828,0.00491333,-1.00796509,0.305176,-0.061035,0.000000
843534625,0.00785828,0.00491333,-1.00796509,0.305176,-0.183105,-0.061035
851133833,0.00770569,0.00596619,-1.00840759,0.305176,-0.183105,-0.061035
853665666,0.00770569,0.00596619,-1.00840759,0.183105,-0.061035,0.000000
861232708,0.00804138,0.00643921,-1.00846863,0.183105,-0.061035,0.000000
863766375,0.00804138,0.00643921,-1.00846863,0.305176,-0.122070,0.000000
870885791,0.00659180,0.00651550,-1.00796509,0.305176,-0.122070,0.000000
873453708,0.00659180,0.00651550,-1.00796509,0.244141,-0.122070,0.000000
881015666,0.00662231,0.00706482,-1.00808716,0.244141,-0.122070,0.000000
883531333,0.00662231,0.00706482,-1.00808716,0.305176,-0.183105,-0.061035
891101375,0.00723267,0.00750732,-1.00779724,0.305176,-0.183105,-0.061035
893618875,0.00723267,0.00750732,-1.00779724,0.366211,-0.183105,0.000000
901293875,0.00703430,0.00701904,-1.00767517,0.366211,-0.183105,0.000000
903857625,0.00703430,0.00701904,-1.00767517,0.244141,-0.122070,-0.122070
911404583,0.00582886,0.00744629,-1.00813293,0.244141,-0.122070,-0.122070
913974041,0.00582886,0.00744629,-1.00813293,0.305176,-0.122070,0.061035
921593291,0.00453186,0.00859070,-1.00852966,0.305176,-0.122070,0.061035
924134208,0.00453186,0.00859070,-1.00852966,0.305176,-0.122070,-0.061035
931718500,0.00576782,0.00714111,-1.00793457,0.305176,-0.122070,-0.061035
934291291,0.00576782,0.00714111,-1.00793457,0.366211,-0.183105,0.000000
939382333,0.00541687,0.00698853,-1.00802612,0.366211,-0.183105,0.000000
944417375,0.00541687,0.00698853,-1.00802612,0.366211,-0.183105,0.000000
949463708,0.00621033,0.00737000,-1.00737000,0.366211,-0.183105,0.000000
954494000,0.00621033,0.00737000,-1.00737000,0.427246,-0.122070,0.000000
959526250,0.00750732,0.00662231,-1.00794983,0.427246,-0.122070,0.000000
964638375,0.00750732,0.00662231,-1.00794983,0.183105,-0.244141,0.000000
969670208,0.00743103,0.00572205,-1.00886536,0.183105,-0.244141,0.000000
974734333,0.00743103,0.00572205,-1.00886536,0.244141,-0.122070,0.000000
979772708,0.00706482,0.00648499,-1.00733948,0.244141,-0.122070,0.000000
984834666,0.00706482,0.00648499,-1.00733948,0.305176,-0.122070,-0.061035
989906916,0.00704956,0.00660706,-1.00746155,0.305176,-0.122070,-0.061035
994932208,0.00704956,0.00660706,-1.00746155,0.305176,-0.183105,-0.122070
999970916,0.00679016,0.00691223,-1.00787354,0.305176,-0.183105,-0.122070
1005055666,0.00679016,0.00691223,-1.00787354,0.427246,-0.183105,-0.061035
1010164833,0.00573730,0.00611877,-1.00671387,0.427246,-0.183105,-0.061035
1015207416,0.00573730,0.00611877,-1.00671387,0.305176,-0.183105,0.000000
1020340666,0.00558472,0.00640869,-1.00743103,0.305176,-0.183105,0.000000
1025413833,0.00558472,0.00640869,-1.00743103,0.366211,-0.122070,0.061035
1030603208,0.00578308,0.00743103,-1.00869751,0.366211,-0.122070,0.061035
1033155000,0.00578308,0.00743103,-1.00869751,0.305176,-0.183105,0.000000
1040779875,0.00604248,0.00813293,-1.00883484,0.305176,-0.183105,0.000000
1043330458,0.00604248,0.00813293,-1.00883484,0.488281,-0.122070,0.000000
1050929708,0.00566101,0.00779724,-1.00825500,0.488281,-0.122070,0.000000
1053473250,0.00566101,0.00779724,-1.00825500,0.061035,-0.061035,0.122070
1061044875,0.00654602,0.00814819,-1.00599670,0.061035,-0.061035,0.122070
1063579958,0.00654602,0.00814819,-1.00599670,0.427246,-0.061035,-0.061035
1071036708,0.00700378,0.00733948,-1.01283264,0.427246,-0.061035,-0.061035
1073565291,0.00700378,0.00733948,-1.01283264,0.061035,-0.244141,-0.061035
1081121541,0.00743103,0.00680542,-1.00471497,0.061035,-0.244141,-0.061035
1083647458,0.00743103,0.00680542,-1.00471497,0.366211,-0.061035,-0.061035
1091261333,0.00790405,0.00607300,-1.00854492,0.366211,-0.061035,-0.061035
1093808750,0.00790405,0.00607300,-1.00854492,0.183105,-0.244141,-0.061035
1101167916,0.00714111,0.00627136,-1.00868225,0.183105,-0.244141,-0.061035
1103697041,0.00714111,0.00627136,-1.00868225,0.366211,-0.183105,0.000000
1111289375,0.00730896,0.00553894,-1.00915527,0.366211,-0.183105,0.000000
1113667541,0.00730896,0.00553894,-1.00915527,0.305176,-0.183105,-0.122070
1120897000,0.00729370,0.00630188,-1.00744629,0.305176,-0.183105,-0.122070
1123425666,0.00729370,0.00630188,-1.00744629,0.244141,-0.183105,-0.183105
1130909125,0.00697327,0.00590515,-1.00758362,0.244141,-0.183105,-0.183105
1133449708,0.00697327,0.00590515,-1.00758362,0.366211,-0.183105,-0.061035
1141095583,0.00724792,0.00483704,-1.00892639,0.366211,-0.183105,-0.061035
1143637708,0.00724792,0.00483704,-1.00892639,0.366211,-0.244141,-0.122070
1150959166,0.00627136,0.00677490,-1.00807190,0.366211,-0.244141,-0.122070
1153495416,0.00627136,0.00677490,-1.00807190,0.366211,-0.244141,-0.122070
1160727416,0.00611877,0.00723267,-1.00791931,0.366211,-0.244141,-0.122070
1163276125,0.00611877,0.00723267,-1.00791931,0.366211,-0.061035,0.000000
1170935625,0.00624084,0.00762939,-1.00846863,0.366211,-0.061035,0.000000
1173476000,0.00624084,0.00762939,-1.00846863,0.427246,-0.183105,0.000000
1181055625,0.00582886,0.00798035,-1.00839233,0.427246,-0.183105,0.000000
1183636666,0.00582886,0.00798035,-1.00839233,0.366211,-0.061035,-0.183105
1191262625,0.00604248,0.00718689,-1.00823975,0.366211,-0.061035,-0.183105
1193595916,0.00604248,0.00718689,-1.00823975,0.305176,-0.122070,0.061035
1222475791,0.00646973,0.00650024,-1.00758362,0.244141,-0.183105,-0.122070
1222487083,0.00646973,0.00650024,-1.00758362,0.244141,-0.183105,0.000000
1225047166,0.00682068,0.00701904,-1.00767517,0.366211,-0.061035,-0.061035
1225056208,0.00601196,0.00675964,-1.00852966,0.366211,-0.061035,-0.061035
1232512500,0.00636292,0.00701904,-1.00842285,0.366211,-0.061035,-0.061035
1235693291,0.00636292,0.00701904,-1.00842285,0.305176,-0.061035,0.061035
1240817500,0.00700378,0.00762939,-1.00846863,0.305176,-0.061035,0.061035
1243359125,0.00700378,0.00762939,-1.00846863,0.366211,-0.244141,-0.183105
1251115250,0.00741577,0.00677490,-1.00834656,0.366211,-0.244141,-0.183105
1253668083,0.00741577,0.00677490,-1.00834656,0.366211,-0.183105,-0.061035
1261269500,0.00854492,0.00709534,-1.00788879,0.366211,-0.183105,-0.061035
1263812541,0.00854492,0.00709534,-1.00788879,0.305176,-0.122070,0.122070
1271317875,0.00708008,0.00660706,-1.00770569,0.305176,-0.122070,0.122070
1273867791,0.00708008,0.00660706,-1.00770569,0.366211,-0.122070,0.000000
1281483208,0.00747681,0.00619507,-1.00804138,0.366211,-0.122070,0.000000
1284046708,0.00747681,0.00619507,-1.00804138,0.366211,-0.183105,0.000000
1291654875,0.00692749,0.00624084,-1.00895691,0.366211,-0.183105,0.000000
1294201583,0.00692749,0.00624084,-1.00895691,0.183105,-0.244141,-0.061035
1301795041,0.00581360,0.00604248,-1.00749207,0.183105,-0.244141,-0.061035
1304347375,0.00581360,0.00604248,-1.00749207,0.244141,-0.122070,-0.061035
1311936833,0.00613403,0.00651550,-1.00909424,0.244141,-0.122070,-0.061035
1314507125,0.00613403,0.00651550,-1.00909424,0.366211,-0.183105,0.000000
1322264541,0.00633240,0.00740051,-1.00817871,0.366211,-0.183105,0.000000
1324824083,0.00633240,0.00740051,-1.00817871,0.427246,-0.122070,0.000000
1329878083,0.00688171,0.00691223,-1.00671387,0.427246,-0.122070,0.000000
1334939583,0.00688171,0.00691223,-1.00671387,0.244141,-0.244141,-0.061035
1342140291,0.00666809,0.00672913,-1.00871277,0.244141,-0.244141,-0.061035
1344688375,0.00666809,0.00672913,-1.00871277,0.183105,-0.244141,-0.061035
1352124833,0.00566101,0.00692749,-1.00767517,0.183105,-0.244141,-0.061035
1354655000,0.00566101,0.00692749,-1.00767517,0.244141,-0.122070,-0.061035
1362240583,0.00521851,0.00691223,-1.00813293,0.244141,-0.122070,-0.061035
1364777666,0.00521851,0.00691223,-1.00813293,0.305176,-0.244141,-0.061035
1372428416,0.00666809,0.00624084,-1.00834656,0.305176,-0.244141,-0.061035
1374955958,0.00666809,0.00624084,-1.00834656,0.427246,-0.183105,0.000000
1379998041,0.00744629,0.00695801,-1.00723267,0.427246,-0.183105,0.000000
1385035250,0.00744629,0.00695801,-1.00723267,0.427246,-0.244141,0.000000
1390117000,0.00645447,0.00738525,-1.00723267,0.427246,-0.244141,0.000000
1395155000,0.00645447,0.00738525,-1.00723267,0.305176,-0.061035,-0.061035
1400185083,0.00628662,0.00729370,-1.00785828,0.305176,-0.061035,-0.061035
1405263541,0.00628662,0.00729370,-1.00785828,0.366211,-0.122070,-0.061035
1410308416,0.00697327,0.00709534,-1.00787354,0.366211,-0.122070,-0.061035
1415356916,0.00697327,0.00709534,-1.00787354,0.183105,-0.122070,-0.061035
1420454291,0.00674438,0.00596619,-1.00779724,0.183105,-0.122070,-0.061035
1425488291,0.00674438,0.00596619,-1.00779724,0.427246,-0.183105,-0.122070
1430606583,0.00767517,0.00621033,-1.00752258,0.427246,-0.183105,-0.122070
1435721541,0.00767517,0.00621033,-1.00752258,0.244141,0.061035,-0.061035
1440783333,0.00791931,0.00637817,-1.00733948,0.244141,0.061035,-0.061035
1445839791,0.00791931,0.00637817,-1.00733948,0.244141,-0.183105,0.000000
1450982041,0.00762939,0.00730896,-1.00743103,0.244141,-0.183105,0.000000
1456033083,0.00762939,0.00730896,-1.00743103,0.244141,-0.244141,-0.061035
1461070833,0.00691223,0.00784302,-1.00770569,0.244141,-0.244141,-0.061035
1466119541,0.00691223,0.00784302,-1.00770569,0.366211,-0.183105,-0.122070
1471144250,0.00755310,0.00753784,-1.00808716,0.366211,-0.183105,-0.122070
1476253083,0.00755310,0.00753784,-1.00808716,0.244141,-0.061035,-0.122070
1480900250,0.00773621,0.00746155,-1.00857544,0.244141,-0.061035,-0.122070
1485931750,0.00773621,0.00746155,-1.00857544,0.366211,-0.183105,0.061035
1491016583,0.00633240,0.00590515,-1.00823975,0.366211,-0.183105,0.061035
1496077750,0.00633240,0.00590515,-1.00823975,0.427246,-0.122070,-0.122070
1501143666,0.00607300,0.00556946,-1.00823975,0.427246,-0.122070,-0.122070
1506201375,0.00607300,0.00556946,-1.00823975,0.122070,-0.244141,-0.122070
1511246000,0.00546265,0.00624084,-1.00801086,0.122070,-0.244141,-0.122070
1513771375,0.00546265,0.00624084,-1.00801086,0.244141,0.000000,0.000000
1521350166,0.00527954,0.00617981,-1.00854492,0.244141,0.000000,0.000000
1523883291,0.00527954,0.00617981,-1.00854492,0.366211,-0.244141,-0.122070
1531421666,0.00672913,0.00636292,-1.00808716,0.366211,-0.244141,-0.122070
1533986000,0.00672913,0.00636292,-1.00808716,0.244141,-0.183105,-0.061035
1541549750,0.00668335,0.00708008,-1.00764465,0.244141,-0.183105,-0.061035
1544067416,0.00668335,0.00708008,-1.00764465,0.366211,-0.183105,-0.122070
1551659875,0.00680542,0.00653076,-1.00750732,0.366211,-0.183105,-0.122070
1554184000,0.00680542,0.00653076,-1.00750732,0.366211,-0.122070,0.000000
1561899333,0.00743103,0.00723267,-1.00756836,0.366211,-0.122070,0.000000
1564413833,0.00743103,0.00723267,-1.00756836,0.244141,-0.183105,0.000000
1571890208,0.00605774,0.00779724,-1.00785828,0.244141,-0.183105,0.000000
1574493416,0.00605774,0.00779724,-1.00785828,0.244141,-0.244141,0.000000
1582054041,0.00511169,0.00685120,-1.00793457,0.244141,-0.244141,0.000000
1584574125,0.00511169,0.00685120,-1.00793457,0.122070,-0.305176,0.000000
1592167666,0.00607300,0.00697327,-1.00923157,0.122070,-0.305176,0.000000
1594339958,0.00607300,0.00697327,-1.00923157,0.305176,-0.183105,0.000000
1601962458,0.00642395,0.00680542,-1.00924683,0.305176,-0.183105,0.000000
1604478083,0.00642395,0.00680542,-1.00924683,0.427246,-0.183105,0.000000
1612104041,0.00674438,0.00653076,-1.00764465,0.427246,-0.183105,0.000000
1614644166,0.00674438,0.00653076,-1.00764465,0.122070,-0.061035,0.000000
1622182208,0.00659180,0.00738525,-1.00646973,0.122070,-0.061035,0.000000
1624833208,0.00659180,0.00738525,-1.00646973,0.061035,-0.244141,0.000000
1629884375,0.00750732,0.00724792,-1.00782776,0.061035,-0.244141,0.000000
1634935541,0.00750732,0.00724792,-1.00782776,0.305176,-0.122070,0.000000
1640011000,0.00712585,0.00730896,-1.00840759,0.305176,-0.122070,0.000000
1645039625,0.00712585,0.00730896,-1.00840759,0.122070,-0.183105,0.000000
1650167791,0.00588989,0.00669861,-1.00872803,0.122070,-0.183105,0.000000
1655142916,0.00588989,0.00669861,-1.00872803,0.305176,-0.061035,0.000000
1660204875,0.00683594,0.00642395,-1.00839233,0.305176,-0.061035,0.000000
1665268833,0.00683594,0.00642395,-1.00839233,0.427246,0.000000,-0.122070
1670316833,0.00683594,0.00708008,-1.00765991,0.427246,0.000000,-0.122070
1675372875,0.00683594,0.00708008,-1.00765991,0.244141,0.000000,0.000000
1680413541,0.00642395,0.00659180,-1.00808716,0.244141,0.000000,0.000000
1685472125,0.00642395,0.00659180,-1.00808716,0.305176,0.000000,0.122070
1690531291,0.00625610,0.00650024,-1.00863647,0.305176,0.000000,0.122070
1695554916,0.00625610,0.00650024,-1.00863647,0.183105,-0.122070,-0.061035
1700384416,0.00497437,0.00588989,-1.00712585,0.183105,-0.122070,-0.061035
1705149833,0.00497437,0.00588989,-1.00712585,0.366211,-0.122070,0.000000
1710197875,0.00598145,0.00605774,-1.00828552,0.366211,-0.122070,0.000000
1715289750,0.00598145,0.00605774,-1.00828552,0.244141,-0.122070,0.000000
1720327750,0.00750732,0.00656128,-1.00666809,0.244141,-0.122070,0.000000
1725383458,0.00750732,0.00656128,-1.00666809,0.061035,-0.122070,-0.122070
1730446583,0.00650024,0.00686646,-1.00735474,0.061035,-0.122070,-0.122070
1735470416,0.00650024,0.00686646,-1.00735474,0.244141,-0.122070,-0.122070
1740522541,0.00706482,0.00662231,-1.00836182,0.244141,-0.122070,-0.122070
1745564416,0.00706482,0.00662231,-1.00836182,0.366211,-0.183105,0.122070
1750613666,0.00634766,0.00817871,-1.00747681,0.366211,-0.183105,0.122070
1755791708,0.00634766,0.00817871,-1.00747681,0.305176,-0.183105,-0.061035
1760817333,0.00674438,0.00846863,-1.00621033,0.305176,-0.183105,-0.061035
1765901458,0.00674438,0.00846863,-1.00621033,0.427246,-0.183105,0.061035
1770986375,0.00642395,0.00842285,-1.00674438,0.427246,-0.183105,0.061035
1776028708,0.00642395,0.00842285,-1.00674438,0.366211,-0.061035,0.000000
1781145291,0.00689697,0.00769043,-1.00830078,0.366211,-0.061035,0.000000
1786176666,0.00689697,0.00769043,-1.00830078,0.244141,-0.183105,-0.122070
1791241083,0.00691223,0.00646973,-1.00689697,0.244141,-0.183105,-0.122070
1796284875,0.00691223,0.00646973,-1.00689697,0.366211,0.000000,-0.061035
1801342500,0.00617981,0.00660706,-1.00749207,0.366211,0.000000,-0.061035
1803862250,0.00617981,0.00660706,-1.00749207,0.305176,-0.122070,0.000000
1811430500,0.00650024,0.00614929,-1.00787354,0.305176,-0.122070,0.000000
1813995291,0.00650024,0.00614929,-1.00787354,0.183105,0.000000,0.000000
1821364250,0.00733948,0.00543213,-1.00781250,0.183105,0.000000,0.000000
1823876750,0.00733948,0.00543213,-1.00781250,0.305176,-0.122070,0.000000
1831516291,0.00688171,0.00613403,-1.00779724,0.305176,-0.122070,0.000000
1834033875,0.00688171,0.00613403,-1.00779724,0.305176,-0.061035,-0.122070
1841587875,0.00755310,0.00648499,-1.00807190,0.305176,-0.061035,-0.122070
1844107708,0.00755310,0.00648499,-1.00807190,0.366211,-0.244141,-0.122070
1851718125,0.00790405,0.00668335,-1.00740051,0.366211,-0.244141,-0.122070
1854264458,0.00790405,0.00668335,-1.00740051,0.244141,-0.122070,0.000000
1861908416,0.00822449,0.00592041,-1.00776672,0.244141,-0.122070,0.000000
1864422583,0.00822449,0.00592041,-1.00776672,0.427246,-0.183105,0.000000
1871823250,0.00863647,0.00633240,-1.00798035,0.427246,-0.183105,0.000000
1874343166,0.00863647,0.00633240,-1.00798035,0.244141,-0.122070,-0.061035
1881888125,0.00828552,0.00636292,-1.00859070,0.244141,-0.122070,-0.061035
1884417208,0.00828552,0.00636292,-1.00859070,0.305176,-0.122070,-0.122070
1892037333,0.00578308,0.00714111,-1.00775146,0.305176,-0.122070,-0.122070
1894607958,0.00578308,0.00714111,-1.00775146,0.305176,-0.244141,-0.183105
1902180416,0.00532532,0.00715637,-1.00755310,0.305176,-0.244141,-0.183105
1904697875,0.00532532,0.00715637,-1.00755310,0.427246,-0.122070,0.000000
1912280750,0.00624084,0.00682068,-1.00827026,0.427246,-0.122070,0.000000
1914797416,0.00624084,0.00682068,-1.00827026,0.427246,-0.183105,-0.122070
1922392458,0.00599670,0.00791931,-1.00810242,0.427246,-0.183105,-0.122070
1924927416,0.00599670,0.00791931,-1.00810242,0.244141,-0.183105,0.000000
1932500791,0.00634766,0.00823975,-1.00776672,0.244141,-0.183105,0.000000
1935071750,0.00634766,0.00823975,-1.00776672,0.305176,-0.122070,0.000000
1940118291,0.00657654,0.00865173,-1.00871277,0.305176,-0.122070,0.000000
1945164708,0.00657654,0.00865173,-1.00871277,0.244141,-0.244141,0.000000
1950209875,0.00656128,0.00785828,-1.00811768,0.244141,-0.244141,0.000000
1955234500,0.00656128,0.00785828,-1.00811768,0.366211,-0.122070,0.061035
1960344583,0.00587463,0.00721741,-1.00614929,0.366211,-0.122070,0.061035
1965414458,0.00587463,0.00721741,-1.00614929,0.305176,-0.061035,-0.122070
1970450583,0.00682068,0.00711060,-1.00686646,0.305176,-0.061035,-0.122070
1975537333,0.00682068,0.00711060,-1.00686646,0.305176,0.000000,0.061035
1980584333,0.00755310,0.00704956,-1.00820923,0.305176,0.000000,0.061035
1985746708,0.00755310,0.00704956,-1.00820923,0.366211,-0.244141,-0.122070
1990794500,0.00817871,0.00715637,-1.00842285,0.366211,-0.244141,-0.122070
1995823541,0.00817871,0.00715637,-1.00842285,0.244141,-0.183105,0.122070
2000773375,0.00747681,0.00625610,-1.00781250,0.244141,-0.183105,0.122070
2005814250,0.00747681,0.00625610,-1.00781250,0.305176,-0.183105,-0.183105
2010873500,0.00685120,0.00570679,-1.00964355,0.305176,-0.183105,-0.183105
2015918583,0.00685120,0.00570679,-1.00964355,0.244141,-0.244141,0.000000
2020991500,0.00682068,0.00659180,-1.00758362,0.244141,-0.244141,0.000000
2026042208,0.00682068,0.00659180,-1.00758362,0.305176,-0.061035,0.061035
2031094958,0.00613403,0.00630188,-1.00773621,0.305176,-0.061035,0.061035
2036125791,0.00613403,0.00630188,-1.00773621,0.305176,-0.183105,-0.122070
2041231208,0.00646973,0.00665283,-1.00909424,0.305176,-0.183105,-0.122070
2046254708,0.00646973,0.00665283,-1.00909424,0.427246,-0.122070,0.000000
2051310541,0.00784302,0.00762939,-1.00753784,0.427246,-0.122070,0.000000
2053825333,0.00784302,0.00762939,-1.00753784,0.366211,-0.122070,-0.122070
2061360000,0.00607300,0.00788879,-1.00738525,0.366211,-0.122070,-0.122070
2063899541,0.00607300,0.00788879,-1.00738525,0.366211,-0.183105,0.122070
2071482041,0.00468445,0.00811768,-1.00848389,0.366211,-0.183105,0.122070
2074038375,0.00468445,0.00811768,-1.00848389,0.183105,-0.244141,-0.061035
2081641125,0.00540161,0.00785828,-1.00788879,0.183105,-0.244141,-0.061035
2084155875,0.00540161,0.00785828,-1.00788879,0.427246,-0.122070,0.000000
2091806666,0.00674438,0.00737000,-1.00762939,0.427246,-0.122070,0.000000
2094351791,0.00674438,0.00737000,-1.00762939,0.366211,-0.122070,0.061035
2101908000,0.00717163,0.00665283,-1.00782776,0.366211,-0.122070,0.061035
2104328208,0.00717163,0.00665283,-1.00782776,0.244141,-0.305176,0.000000
2111878583,0.00657654,0.00689697,-1.00822449,0.244141,-0.305176,0.000000
2114151583,0.00657654,0.00689697,-1.00822449,0.244141,-0.061035,0.000000
2121714041,0.00711060,0.00677490,-1.00675964,0.244141,-0.061035,0.000000
2124233833,0.00711060,0.00677490,-1.00675964,0.183105,-0.183105,-0.061035
2131875625,0.00584412,0.00688171,-1.00733948,0.183105,-0.183105,-0.061035
2134392875,0.00584412,0.00688171,-1.00733948,0.244141,0.061035,-0.061035
2141988041,0.00508118,0.00701904,-1.00846863,0.244141,0.061035,-0.061035
2144501583,0.00508118,0.00701904,-1.00846863,0.183105,-0.122070,-0.061035
2152118291,0.00613403,0.00715637,-1.00784302,0.183105,-0.122070,-0.061035
2154666000,0.00613403,0.00715637,-1.00784302,0.183105,-0.122070,-0.183105
2162241666,0.00740051,0.00694275,-1.00802612,0.183105,-0.122070,-0.183105
2164806333,0.00740051,0.00694275,-1.00802612,0.122070,-0.183105,0.061035
2172380541,0.00651550,0.00759888,-1.00880432,0.122070,-0.183105,0.061035
2174939625,0.00651550,0.00759888,-1.00880432,0.183105,-0.122070,0.000000
2182502750,0.00759888,0.00779724,-1.00802612,0.183105,-0.122070,0.000000
2185021750,0.00759888,0.00779724,-1.00802612,0.244141,-0.122070,-0.061035
2192658958,0.00627136,0.00802612,-1.00869751,0.244141,-0.122070,-0.061035
2195179375,0.00627136,0.00802612,-1.00869751,0.244141,0.000000,0.061035
2202534875,0.00567627,0.00704956,-1.00888062,0.244141,0.000000,0.061035
2205092750,0.00567627,0.00704956,-1.00888062,0.305176,-0.183105,0.000000
2212664875,0.00556946,0.00683594,-1.00793457,0.305176,-0.183105,0.000000
2215203250,0.00556946,0.00683594,-1.00793457,0.183105,-0.122070,-0.183105
2220288375,0.00527954,0.00749207,-1.00813293,0.183105,-0.122070,-0.183105
2225343541,0.00527954,0.00749207,-1.00813293,0.122070,-0.122070,0.122070
2230369041,0.00741577,0.00689697,-1.00794983,0.122070,-0.122070,0.122070
2235413375,0.00741577,0.00689697,-1.00794983,0.183105,-0.244141,0.000000
2240472583,0.00613403,0.00793457,-1.00764465,0.183105,-0.244141,0.000000
2245558666,0.00613403,0.00793457,-1.00764465,0.305176,-0.183105,-0.061035
2250579583,0.00650024,0.00801086,-1.00828552,0.305176,-0.183105,-0.061035
2255622625,0.00650024,0.00801086,-1.00828552,0.244141,-0.305176,-0.061035
2260657958,0.00796509,0.00750732,-1.00866699,0.244141,-0.305176,-0.061035
2265799125,0.00796509,0.00750732,-1.00866699,0.244141,-0.183105,0.061035
2270821208,0.00822449,0.00715637,-1.00830078,0.244141,-0.183105,0.061035
2275862708,0.00822449,0.00715637,-1.00830078,0.305176,-0.305176,0.000000
2280883708,0.00772095,0.00646973,-1.00717163,0.305176,-0.305176,0.000000
2286021416,0.00772095,0.00646973,-1.00717163,0.244141,-0.061035,0.061035
2291151958,0.00640869,0.00755310,-1.00787354,0.244141,-0.061035,0.061035
2296174708,0.00640869,0.00755310,-1.00787354,0.305176,-0.122070,0.061035
2301216000,0.00590515,0.00790405,-1.00851440,0.305176,-0.122070,0.061035
2306280916,0.00590515,0.00790405,-1.00851440,0.305176,-0.061035,0.061035
2311376208,0.00582886,0.00793457,-1.00785828,0.305176,-0.061035,0.061035
2316530458,0.00582886,0.00793457,-1.00785828,0.427246,-0.122070,0.000000
2321555958,0.00645447,0.00778198,-1.00776672,0.427246,-0.122070,0.000000
2324088041,0.00645447,0.00778198,-1.00776672,0.305176,-0.122070,-0.244141
2331684916,0.00776672,0.00587463,-1.00831604,0.305176,-0.122070,-0.244141
2334199250,0.00776672,0.00587463,-1.00831604,0.427246,-0.122070,-0.122070
2341791666,0.00733948,0.00666809,-1.00947571,0.427246,-0.122070,-0.122070
2344305583,0.00733948,0.00666809,-1.00947571,0.244141,-0.061035,0.061035
2351860583,0.00703430,0.00697327,-1.00587463,0.244141,-0.061035,0.061035
2354385375,0.00703430,0.00697327,-1.00587463,0.244141,-0.122070,0.000000
2361938708,0.00762939,0.00732422,-1.00738525,0.244141,-0.122070,0.000000
2364461208,0.00762939,0.00732422,-1.00738525,0.305176,-0.122070,0.000000
2372010750,0.00721741,0.00801086,-1.00804138,0.305176,-0.122070,0.000000
2374532208,0.00721741,0.00801086,-1.00804138,0.244141,-0.244141,-0.061035
2382087291,0.00732422,0.00825500,-1.00862122,0.244141,-0.244141,-0.061035
2384626375,0.00732422,0.00825500,-1.00862122,0.305176,-0.122070,0.000000
2392320125,0.00575256,0.00775146,-1.00767517,0.305176,-0.122070,0.000000
2394837291,0.00575256,0.00775146,-1.00767517,0.244141,-0.122070,0.061035
2402470416,0.00549316,0.00820923,-1.00698853,0.244141,-0.122070,0.061035
2404987375,0.00549316,0.00820923,-1.00698853,0.244141,-0.061035,-0.122070
2412691375,0.00651550,0.00866699,-1.00866699,0.244141,-0.061035,-0.122070
2415235000,0.00651550,0.00866699,-1.00866699,0.244141,-0.183105,0.061035
2422631416,0.00587463,0.00762939,-1.00746155,0.244141,-0.183105,0.061035
2425153875,0.00587463,0.00762939,-1.00746155,0.610352,-0.183105,0.000000
2432755958,0.00639343,0.00674438,-1.00860596,0.610352,-0.183105,0.000000
2435277833,0.00639343,0.00674438,-1.00860596,0.244141,-0.061035,0.000000
2442572791,0.00674438,0.00712585,-1.00865173,0.244141,-0.061035,0.000000
2445092000,0.00674438,0.00712585,-1.00865173,0.488281,-0.061035,0.000000
2452759750,0.00614929,0.00764465,-1.00878906,0.488281,-0.061035,0.000000
2455143208,0.00614929,0.00764465,-1.00878906,0.183105,-0.122070,0.000000
2462706791,0.00721741,0.00671387,-1.00677490,0.183105,-0.122070,0.000000
2465245625,0.00721741,0.00671387,-1.00677490,0.305176,-0.244141,-0.061035
2472784083,0.00697327,0.00782776,-1.00730896,0.305176,-0.244141,-0.061035
2475346000,0.00697327,0.00782776,-1.00730896,0.305176,-0.183105,-0.061035
2482921041,0.00671387,0.00869751,-1.00828552,0.305176,-0.183105,-0.061035
2485445541,0.00671387,0.00869751,-1.00828552,0.305176,-0.061035,-0.061035
2492999916,0.00617981,0.00808716,-1.00755310,0.305176,-0.061035,-0.061035
2495515500,0.00617981,0.00808716,-1.00755310,0.427246,-0.122070,0.000000
2503120416,0.00610352,0.00717163,-1.00750732,0.427246,-0.122070,0.000000
2505669750,0.00610352,0.00717163,-1.00750732,0.122070,-0.244141,-0.122070
2510717041,0.00544739,0.00723267,-1.00819397,0.122070,-0.244141,-0.122070
2515792041,0.00544739,0.00723267,-1.00819397,0.305176,-0.122070,0.000000
2520858291,0.00567627,0.00755310,-1.00860596,0.305176,-0.122070,0.000000
2525898083,0.00567627,0.00755310,-1.00860596,0.244141,-0.122070,-0.061035
2530918083,0.00593567,0.00787354,-1.00668335,0.244141,-0.122070,-0.061035
2535689500,0.00593567,0.00787354,-1.00668335,0.305176,-0.061035,0.000000
2543235833,0.00685120,0.00793457,-1.00975037,0.305176,-0.061035,0.000000
2545837875,0.00685120,0.00793457,-1.00975037,0.244141,-0.183105,0.000000
2550886708,0.00756836,0.00720215,-1.00595093,0.244141,-0.183105,0.000000
2555546416,0.00756836,0.00720215,-1.00595093,0.366211,-0.122070,0.000000
2563129041,0.00782776,0.00784302,-1.00970459,0.366211,-0.122070,0.000000
2565662500,0.00782776,0.00784302,-1.00970459,0.366211,-0.244141,0.000000
2573229625,0.00756836,0.00721741,-1.00866699,0.366211,-0.244141,0.000000
2575821625,0.00756836,0.00721741,-1.00866699,0.488281,-0.122070,0.061035
2580863833,0.00685120,0.00762939,-1.00820923,0.488281,-0.122070,0.061035
2585911666,0.00685120,0.00762939,-1.00820923,0.244141,-0.183105,-0.061035
2590952625,0.00659180,0.00663757,-1.00868225,0.244141,-0.183105,-0.061035
2595997000,0.00659180,0.00663757,-1.00868225,0.183105,-0.061035,-0.061035
2601031458,0.00598145,0.00598145,-1.00810242,0.183105,-0.061035,-0.061035
2606057500,0.00598145,0.00598145,-1.00810242,0.244141,-0.183105,0.000000
2613669750,0.00666809,0.00662231,-1.00964355,0.244141,-0.183105,0.000000
2615978666,0.00666809,0.00662231,-1.00964355,0.305176,-0.122070,0.061035
2621009375,0.00703430,0.00721741,-1.00888062,0.305176,-0.122070,0.061035
2626059916,0.00703430,0.00721741,-1.00888062,0.366211,-0.122070,0.061035
2631082833,0.00791931,0.00720215,-1.00781250,0.366211,-0.122070,0.061035
2636147583,0.00791931,0.00720215,-1.00781250,0.305176,-0.244141,-0.061035
2641185375,0.00761414,0.00779724,-1.00682068,0.305176,-0.244141,-0.061035
2645914791,0.00761414,0.00779724,-1.00682068,0.305176,-0.122070,0.122070
2651019375,0.00642395,0.00750732,-1.00801086,0.305176,-0.122070,0.122070
2656042083,0.00642395,0.00750732,-1.00801086,0.366211,-0.122070,-0.061035
2661158333,0.00630188,0.00822449,-1.00854492,0.366211,-0.122070,-0.061035
2666182291,0.00630188,0.00822449,-1.00854492,0.244141,-0.122070,-0.061035
2671216458,0.00715637,0.00790405,-1.00784302,0.244141,-0.122070,-0.061035
2676265583,0.00715637,0.00790405,-1.00784302,0.427246,-0.122070,-0.122070
2681304916,0.00688171,0.00781250,-1.00859070,0.427246,-0.122070,-0.122070
2686364333,0.00688171,0.00781250,-1.00859070,0.244141,-0.183105,0.061035
2691390916,0.00639343,0.00729370,-1.00801086,0.244141,-0.183105,0.061035
2696297083,0.00639343,0.00729370,-1.00801086,0.305176,-0.122070,-0.061035
2701398666,0.00500488,0.00698853,-1.00810242,0.305176,-0.122070,-0.061035
2706453458,0.00500488,0.00698853,-1.00810242,0.244141,-0.061035,0.061035
2711505166,0.00576782,0.00796509,-1.00765991,0.244141,-0.061035,0.061035
2716550875,0.00576782,0.00796509,-1.00765991,0.366211,-0.061035,-0.061035
2721612625,0.00619507,0.00750732,-1.00798035,0.366211,-0.061035,-0.061035
2726657583,0.00619507,0.00750732,-1.00798035,0.305176,-0.122070,0.000000
2731699833,0.00672913,0.00804138,-1.00755310,0.305176,-0.122070,0.000000
2736750791,0.00672913,0.00804138,-1.00755310,0.305176,-0.061035,-0.061035
2741772458,0.00663757,0.00671387,-1.00732422,0.305176,-0.061035,-0.061035
2746861916,0.00663757,0.00671387,-1.00732422,0.305176,-0.183105,-0.122070
2751902500,0.00663757,0.00682068,-1.00845337,0.305176,-0.183105,-0.122070
2756948250,0.00663757,0.00682068,-1.00845337,0.305176,-0.061035,0.000000
2761982791,0.00863647,0.00708008,-1.00746155,0.305176,-0.061035,0.000000
2767023958,0.00863647,0.00708008,-1.00746155,0.305176,-0.122070,0.000000
2772046333,0.00842285,0.00608826,-1.00646973,0.305176,-0.122070,0.000000
2777075333,0.00842285,0.00608826,-1.00646973,0.305176,-0.183105,0.000000
2782205666,0.00738525,0.00535583,-1.01170349,0.305176,-0.183105,0.000000
2787232791,0.00738525,0.00535583,-1.01170349,0.244141,-0.183105,-0.122070
2792300666,0.00668335,0.00556946,-1.00590515,0.244141,-0.183105,-0.122070
2794815166,0.00668335,0.00556946,-1.00590515,0.488281,-0.061035,0.000000
2802469916,0.00570679,0.00679016,-1.00970459,0.488281,-0.061035,0.000000
2804986375,0.00570679,0.00679016,-1.00970459,0.244141,-0.122070,-0.122070
2812547375,0.00643921,0.00811768,-1.00732422,0.244141,-0.122070,-0.122070
2815090833,0.00643921,0.00811768,-1.00732422,0.244141,-0.244141,0.122070
2822636250,0.00521851,0.00878906,-1.00671387,0.244141,-0.244141,0.122070
2825150291,0.00521851,0.00878906,-1.00671387,0.305176,-0.183105,0.000000
2832738333,0.00495911,0.00825500,-1.00767517,0.305176,-0.183105,0.000000
2835261583,0.00495911,0.00825500,-1.00767517,0.244141,-0.122070,0.061035
2842831041,0.00665283,0.00880432,-1.00924683,0.244141,-0.122070,0.061035
2845354750,0.00665283,0.00880432,-1.00924683,0.305176,-0.061035,-0.061035
2852892958,0.00605774,0.00883484,-1.00732422,0.305176,-0.061035,-0.061035
2855408000,0.00605774,0.00883484,-1.00732422,0.427246,-0.122070,-0.061035
2863006083,0.00682068,0.00743103,-1.00892639,0.427246,-0.122070,-0.061035
2865532916,0.00682068,0.00743103,-1.00892639,0.244141,-0.183105,-0.061035
2872988041,0.00756836,0.00585938,-1.00811768,0.244141,-0.183105,-0.061035
2875507041,0.00756836,0.00585938,-1.00811768,0.305176,-0.183105,-0.122070
2883166541,0.00750732,0.00592041,-1.00750732,0.305176,-0.183105,-0.122070
2885679625,0.00750732,0.00592041,-1.00750732,0.244141,-0.061035,0.000000
2893294791,0.00703430,0.00651550,-1.00708008,0.244141,-0.061035,0.000000
2895824541,0.00703430,0.00651550,-1.00708008,0.305176,-0.122070,-0.122070
2900857708,0.00723267,0.00531006,-1.00755310,0.305176,-0.122070,-0.122070
2905908333,0.00723267,0.00531006,-1.00755310,0.488281,-0.122070,0.000000
2913479291,0.00630188,0.00549316,-1.00813293,0.488281,-0.122070,0.000000
2915997541,0.00630188,0.00549316,-1.00813293,0.366211,0.000000,-0.061035
2921180958,0.00637817,0.00679016,-1.00856018,0.366211,0.000000,-0.061035
2926203833,0.00637817,0.00679016,-1.00856018,0.549316,-0.061035,0.122070
2933364291,0.00680542,0.00785828,-1.00816345,0.549316,-0.061035,0.122070
2935879458,0.00680542,0.00785828,-1.00816345,0.305176,-0.244141,0.000000
2940941333,0.00590515,0.00721741,-1.00743103,0.305176,-0.244141,0.000000
2945780208,0.00590515,0.00721741,-1.00743103,0.366211,-0.183105,0.000000
2950826041,0.00584412,0.00837708,-1.00865173,0.366211,-0.183105,0.000000
2955920833,0.00584412,0.00837708,-1.00865173,0.305176,-0.183105,0.061035
2960955125,0.00602722,0.00898743,-1.00773621,0.305176,-0.183105,0.061035
2966066625,0.00602722,0.00898743,-1.00773621,0.244141,-0.244141,-0.122070
2973275666,0.00756836,0.00836182,-1.00704956,0.244141,-0.244141,-0.122070
2975800250,0.00756836,0.00836182,-1.00704956,0.305176,-0.122070,0.061035
2980830041,0.00633240,0.00848389,-1.00843811,0.305176,-0.122070,0.061035
2985864250,0.00633240,0.00848389,-1.00843811,0.488281,-0.183105,-0.122070
2993193291,0.00666809,0.00866699,-1.00886536,0.488281,-0.183105,-0.122070
2995754791,0.00666809,0.00866699,-1.00886536,0.305176,-0.183105,-0.061035
3003361333,0.00639343,0.00802612,-1.00810242,0.305176,-0.183105,-0.061035
3005904041,0.00639343,0.00802612,-1.00810242,0.427246,0.000000,0.000000
3013469291,0.00715637,0.00747681,-1.00878906,0.427246,0.000000,0.000000
3016011208,0.00715637,0.00747681,-1.00878906,0.305176,-0.183105,0.000000
3021135375,0.00794983,0.00773621,-1.00700378,0.305176,-0.183105,0.000000
3026159208,0.00794983,0.00773621,-1.00700378,0.366211,-0.183105,-0.122070
3031225500,0.00830078,0.00729370,-1.00761414,0.366211,-0.183105,-0.122070
3036260833,0.00830078,0.00729370,-1.00761414,0.305176,-0.244141,-0.061035
3041322375,0.00868225,0.00704956,-1.00679016,0.305176,-0.244141,-0.061035
3046378500,0.00868225,0.00704956,-1.00679016,0.305176,-0.061035,-0.061035
3051484250,0.00881958,0.00621033,-1.00854492,0.305176,-0.061035,-0.061035
3056521250,0.00881958,0.00621033,-1.00854492,0.244141,-0.061035,-0.183105
3061546583,0.00651550,0.00540161,-1.00819397,0.244141,-0.061035,-0.183105
3066582083,0.00651550,0.00540161,-1.00819397,0.305176,-0.244141,-0.061035
3071637916,0.00697327,0.00520325,-1.00668335,0.305176,-0.244141,-0.061035
3076680666,0.00697327,0.00520325,-1.00668335,0.488281,-0.122070,0.000000
3081740708,0.00570679,0.00711060,-1.00967407,0.488281,-0.122070,0.000000
3086781166,0.00570679,0.00711060,-1.00967407,0.366211,-0.122070,0.061035
3091894125,0.00474548,0.00788879,-1.00630188,0.366211,-0.122070,0.061035
3096925250,0.00474548,0.00788879,-1.00630188,0.305176,-0.122070,0.061035
3101988333,0.00517273,0.00779724,-1.00779724,0.305176,-0.122070,0.061035
3107026291,0.00517273,0.00779724,-1.00779724,0.488281,-0.183105,0.000000
3112170791,0.00622559,0.00799561,-1.00859070,0.488281,-0.183105,0.000000
3117209666,0.00622559,0.00799561,-1.00859070,0.427246,-0.366211,-0.122070
3122274083,0.00622559,0.00837708,-1.00746155,0.427246,-0.366211,-0.122070
3124804833,0.00622559,0.00837708,-1.00746155,0.183105,-0.183105,-0.061035
3132359708,0.00540161,0.00675964,-1.00878906,0.183105,-0.183105,-0.061035
3134895625,0.00540161,0.00675964,-1.00878906,0.244141,-0.183105,-0.122070
3142451208,0.00704956,0.00675964,-1.00807190,0.244141,-0.183105,-0.122070
3144991625,0.00704956,0.00675964,-1.00807190,0.305176,-0.183105,-0.061035
3152169250,0.00784302,0.00857544,-1.00697327,0.305176,-0.183105,-0.061035
3157229583,0.00784302,0.00857544,-1.00697327,0.366211,-0.122070,0.000000
3162328958,0.00740051,0.00718689,-1.00863647,0.366211,-0.122070,0.000000
3164859291,0.00740051,0.00718689,-1.00863647,0.244141,-0.122070,-0.122070
3172409208,0.00718689,0.00624084,-1.00787354,0.244141,-0.122070,-0.122070
3174939666,0.00718689,0.00624084,-1.00787354,0.488281,0.000000,-0.061035
3182474750,0.00674438,0.00567627,-1.00796509,0.488281,0.000000,-0.061035
3185018250,0.00674438,0.00567627,-1.00796509,0.183105,-0.183105,-0.061035
3192554833,0.00643921,0.00718689,-1.00782776,0.183105,-0.183105,-0.061035
3195153000,0.00643921,0.00718689,-1.00782776,0.427246,-0.122070,-0.122070
3202735416,0.00492859,0.00642395,-1.00764465,0.427246,-0.122070,-0.122070
3205277958,0.00492859,0.00642395,-1.00764465,0.244141,-0.122070,-0.122070
3212834000,0.00572205,0.00663757,-1.00663757,0.244141,-0.122070,-0.122070
3215351500,0.00572205,0.00663757,-1.00663757,0.183105,-0.183105,-0.061035
3222936750,0.00534058,0.00758362,-1.00703430,0.183105,-0.183105,-0.061035
3225458083,0.00534058,0.00758362,-1.00703430,0.427246,-0.122070,-0.061035
3233071833,0.00639343,0.00827026,-1.00863647,0.427246,-0.122070,-0.061035
3235590041,0.00639343,0.00827026,-1.00863647,0.183105,-0.122070,0.000000
3243152291,0.00657654,0.00804138,-1.00796509,0.183105,-0.122070,0.000000
3245756916,0.00657654,0.00804138,-1.00796509,0.305176,-0.244141,-0.061035
3252931416,0.00541687,0.00871277,-1.00752258,0.305176,-0.244141,-0.061035
3255509708,0.00541687,0.00871277,-1.00752258,0.305176,-0.061035,0.061035
3263155666,0.00616455,0.00837708,-1.00799561,0.305176,-0.061035,0.061035
3265681250,0.00616455,0.00837708,-1.00799561,0.488281,-0.183105,0.000000
3272969250,0.00639343,0.00776672,-1.00810242,0.488281,-0.183105,0.000000
3275487708,0.00639343,0.00776672,-1.00810242,0.244141,-0.244141,0.000000
3283144875,0.00682068,0.00729370,-1.00646973,0.244141,-0.244141,0.000000
3285681541,0.00682068,0.00729370,-1.00646973,0.366211,-0.244141,-0.061035
3293231625,0.00695801,0.00645447,-1.00846863,0.366211,-0.244141,-0.061035
3295778250,0.00695801,0.00645447,-1.00846863,0.427246,-0.122070,-0.061035
3303110333,0.00596619,0.00692749,-1.00747681,0.427246,-0.122070,-0.061035
3305631250,0.00596619,0.00692749,-1.00747681,0.305176,-0.244141,0.061035
3313277750,0.00588989,0.00765991,-1.00740051,0.305176,-0.244141,0.061035
3315903916,0.00588989,0.00765991,-1.00740051,0.488281,-0.122070,0.000000
3323700125,0.00631714,0.00784302,-1.00793457,0.488281,-0.122070,0.000000
3326235500,0.00631714,0.00784302,-1.00793457,0.366211,-0.183105,-0.183105
3331360541,0.00692749,0.00778198,-1.00888062,0.366211,-0.183105,-0.183105
3336039875,0.00692749,0.00778198,-1.00888062,0.244141,-0.122070,0.000000
3343600583,0.00802612,0.00764465,-1.00781250,0.244141,-0.122070,0.000000
3346134208,0.00802612,0.00764465,-1.00781250,0.122070,-0.183105,-0.061035
3351210375,0.00744629,0.00732422,-1.00814819,0.122070,-0.183105,-0.061035
3356275833,0.00744629,0.00732422,-1.00814819,0.244141,-0.244141,0.000000
3361375375,0.00744629,0.00801086,-1.00854492,0.244141,-0.244141,0.000000
3366154375,0.00744629,0.00801086,-1.00854492,0.366211,-0.183105,0.000000
3371231541,0.00550842,0.00752258,-1.00784302,0.366211,-0.183105,0.000000
3376339166,0.00550842,0.00752258,-1.00784302,0.366211,-0.122070,-0.061035
3381401166,0.00619507,0.00720215,-1.00820923,0.366211,-0.122070,-0.061035
3386492416,0.00619507,0.00720215,-1.00820923,0.244141,-0.244141,0.000000
3391539541,0.00744629,0.00755310,-1.00869751,0.244141,-0.244141,0.000000
3396300083,0.00744629,0.00755310,-1.00869751,0.122070,-0.183105,0.000000
3401373250,0.00648499,0.00679016,-1.00646973,0.122070,-0.183105,0.000000
3406405208,0.00648499,0.00679016,-1.00646973,0.427246,-0.183105,0.000000
3411447333,0.00691223,0.00759888,-1.00691223,0.427246,-0.183105,0.000000
3416483541,0.00691223,0.00759888,-1.00691223,0.427246,-0.122070,0.000000
3421544125,0.00650024,0.00794983,-1.00823975,0.427246,-0.122070,0.000000
3426582500,0.00650024,0.00794983,-1.00823975,0.244141,-0.183105,-0.122070
3431617791,0.00680542,0.00814819,-1.00714111,0.244141,-0.183105,-0.122070
3436680958,0.00680542,0.00814819,-1.00714111,0.244141,-0.061035,0.000000
3441736958,0.00590515,0.00721741,-1.00793457,0.244141,-0.061035,0.000000
3446781416,0.00590515,0.00721741,-1.00793457,0.305176,-0.061035,0.122070
3451829083,0.00563049,0.00765991,-1.00871277,0.305176,-0.061035,0.122070
3456647208,0.00563049,0.00765991,-1.00871277,0.305176,-0.183105,-0.061035
3461677833,0.00627136,0.00776672,-1.00767517,0.305176,-0.183105,-0.061035
3466550291,0.00627136,0.00776672,-1.00767517,0.305176,-0.183105,0.000000
3471583791,0.00650024,0.00686646,-1.00833130,0.305176,-0.183105,0.000000
3476638750,0.00650024,0.00686646,-1.00833130,0.305176,-0.183105,0.000000
3481691750,0.00622559,0.00645447,-1.00772095,0.305176,-0.183105,0.000000
3486743416,0.00622559,0.00645447,-1.00772095,0.305176,-0.122070,0.061035
3491800166,0.00622559,0.00723267,-1.00819397,0.305176,-0.122070,0.061035
3496871666,0.00622559,0.00723267,-1.00819397,0.366211,0.061035,-0.183105
3501913833,0.00636292,0.00706482,-1.00750732,0.366211,0.061035,-0.183105
3506952916,0.00636292,0.00706482,-1.00750732,0.427246,-0.061035,0.000000
3512009583,0.00685120,0.00663757,-1.00938416,0.427246,-0.061035,0.000000
3517101250,0.00685120,0.00663757,-1.00938416,0.244141,-0.122070,-0.122070
3522170875,0.00724792,0.00733948,-1.00775146,0.244141,-0.122070,-0.122070
3527240083,0.00724792,0.00733948,-1.00775146,0.427246,-0.122070,-0.061035
3532300208,0.00669861,0.00700378,-1.00825500,0.427246,-0.122070,-0.061035
3537267041,0.00669861,0.00700378,-1.00825500,0.305176,-0.122070,-0.122070
3542330041,0.00749207,0.00836182,-1.00668335,0.305176,-0.122070,-0.122070
3547370708,0.00749207,0.00836182,-1.00668335,0.488281,-0.122070,0.000000
3552441916,0.00740051,0.00834656,-1.00825500,0.488281,-0.122070,0.000000
3554995291,0.00740051,0.00834656,-1.00825500,0.305176,-0.183105,-0.061035
3562607375,0.00621033,0.00820923,-1.00895691,0.305176,-0.183105,-0.061035
3565135208,0.00621033,0.00820923,-1.00895691,0.305176,-0.122070,0.000000
3572729500,0.00531006,0.00787354,-1.00625610,0.305176,-0.122070,0.000000
3577376541,0.00531006,0.00787354,-1.00625610,0.366211,-0.244141,0.000000
3582020708,0.00500488,0.00869751,-1.00917053,0.366211,-0.244141,0.000000
3587083208,0.00500488,0.00869751,-1.00917053,0.305176,-0.244141,-0.122070
3592187458,0.00521851,0.00918579,-1.00662231,0.305176,-0.244141,-0.122070
3597297750,0.00521851,0.00918579,-1.00662231,0.366211,-0.122070,0.061035
3602395083,0.00604248,0.00767517,-1.00726318,0.366211,-0.122070,0.061035
3607480750,0.00604248,0.00767517,-1.00726318,0.244141,-0.122070,-0.061035
3612585583,0.00621033,0.00672913,-1.00854492,0.244141,-0.122070,-0.061035
3615116375,0.00621033,0.00672913,-1.00854492,0.183105,-0.183105,0.000000
3622682666,0.00572205,0.00668335,-1.00805664,0.183105,-0.183105,0.000000
3625210458,0.00572205,0.00668335,-1.00805664,0.244141,-0.183105,0.061035
3632870208,0.00517273,0.00556946,-1.00805664,0.244141,-0.183105,0.061035
3635111333,0.00517273,0.00556946,-1.00805664,0.305176,-0.122070,0.000000
3642679458,0.00524902,0.00541687,-1.00718689,0.305176,-0.122070,0.000000
3645204083,0.00524902,0.00541687,-1.00718689,0.366211,-0.244141,-0.061035
3652481000,0.00682068,0.00622559,-1.00817871,0.366211,-0.244141,-0.061035
3657524791,0.00682068,0.00622559,-1.00817871,0.244141,-0.122070,-0.183105
3662592791,0.00816345,0.00714111,-1.00787354,0.244141,-0.122070,-0.183105
3665129166,0.00816345,0.00714111,-1.00787354,0.244141,-0.122070,0.061035
3672509708,0.00796509,0.00804138,-1.00779724,0.244141,-0.122070,0.061035
3677634458,0.00796509,0.00804138,-1.00779724,0.061035,-0.183105,-0.122070
3682295458,0.00709534,0.00770569,-1.00764465,0.061035,-0.183105,-0.122070
3687335916,0.00709534,0.00770569,-1.00764465,0.427246,0.000000,0.000000
3692371541,0.00791931,0.00843811,-1.00860596,0.427246,0.000000,0.000000
3697449125,0.00791931,0.00843811,-1.00860596,0.305176,-0.183105,-0.122070
3702517166,0.00799561,0.00868225,-1.00964355,0.305176,-0.183105,-0.122070
3707558125,0.00799561,0.00868225,-1.00964355,0.366211,-0.061035,-0.183105
3712603791,0.00846863,0.00848389,-1.00801086,0.366211,-0.061035,-0.183105
3715152666,0.00846863,0.00848389,-1.00801086,0.366211,-0.183105,-0.061035
3722749750,0.00920105,0.00738525,-1.00509644,0.366211,-0.183105,-0.061035
3725265375,0.00920105,0.00738525,-1.00509644,0.427246,-0.061035,-0.061035
3732864541,0.00701904,0.00628662,-1.00851440,0.427246,-0.061035,-0.061035
3737544375,0.00701904,0.00628662,-1.00851440,0.488281,-0.122070,-0.183105
3742597250,0.00460815,0.00730896,-1.00892639,0.488281,-0.122070,-0.183105
3745116875,0.00460815,0.00730896,-1.00892639,0.305176,-0.061035,-0.061035
3752775083,0.00520325,0.00798035,-1.00701904,0.305176,-0.061035,-0.061035
3755345708,0.00520325,0.00798035,-1.00701904,0.305176,0.000000,0.000000
3762987625,0.00656128,0.00866699,-1.00761414,0.305176,0.000000,0.000000
3765507291,0.00656128,0.00866699,-1.00761414,0.061035,-0.305176,-0.122070
3773101916,0.00694275,0.00942993,-1.00666809,0.061035,-0.305176,-0.122070
3775643791,0.00694275,0.00942993,-1.00666809,0.366211,-0.061035,0.000000
3782703000,0.00723267,0.00823975,-1.00715637,0.366211,-0.061035,0.000000
3785218375,0.00723267,0.00823975,-1.00715637,0.244141,-0.183105,-0.122070
3792771875,0.00650024,0.00791931,-1.00628662,0.244141,-0.183105,-0.122070
3795286500,0.00650024,0.00791931,-1.00628662,0.244141,-0.183105,0.000000
3802443333,0.00703430,0.00712585,-1.00898743,0.244141,-0.183105,0.000000
3807473333,0.00703430,0.00712585,-1.00898743,0.305176,-0.183105,0.000000
3812551250,0.00648499,0.00619507,-1.00938416,0.305176,-0.183105,0.000000
3817646625,0.00648499,0.00619507,-1.00938416,0.122070,-0.061035,-0.061035
3822701208,0.00416565,0.00604248,-1.00802612,0.122070,-0.061035,-0.061035
3825284458,0.00416565,0.00604248,-1.00802612,0.061035,-0.122070,0.122070
3832860791,0.00595093,0.00640869,-1.00798035,0.061035,-0.122070,0.122070
3835418250,0.00595093,0.00640869,-1.00798035,0.244141,-0.122070,0.000000
3842982041,0.00572205,0.00704956,-1.00817871,0.244141,-0.122070,0.000000
3845501791,0.00572205,0.00704956,-1.00817871,0.061035,-0.061035,0.122070
3853148125,0.00631714,0.00790405,-1.00779724,0.061035,-0.061035,0.122070
3855664708,0.00631714,0.00790405,-1.00779724,0.183105,-0.061035,-0.122070
3863203750,0.00781250,0.00704956,-1.00694275,0.183105,-0.061035,-0.122070
3865741958,0.00781250,0.00704956,-1.00694275,0.183105,-0.183105,-0.061035
3873290166,0.00843811,0.00752258,-1.00744629,0.183105,-0.183105,-0.061035
3875843416,0.00843811,0.00752258,-1.00744629,0.000000,-0.244141,-0.061035
3883492583,0.00878906,0.00912476,-1.00874329,0.000000,-0.244141,-0.061035
3886013333,0.00878906,0.00912476,-1.00874329,0.122070,-0.305176,-0.183105
3893505583,0.00737000,0.00770569,-1.00770569,0.122070,-0.305176,-0.183105
3896019625,0.00737000,0.00770569,-1.00770569,0.183105,-0.061035,-0.061035
3903650458,0.00708008,0.00730896,-1.00741577,0.183105,-0.061035,-0.061035
3905835791,0.00708008,0.00730896,-1.00741577,0.000000,0.000000,0.000000
3913374333,0.00564575,0.00706482,-1.00788879,0.000000,0.000000,0.000000
3915929500,0.00564575,0.00706482,-1.00788879,0.183105,-0.183105,0.000000
3923505083,0.00511169,0.00741577,-1.00833130,0.183105,-0.183105,0.000000
3926031958,0.00511169,0.00741577,-1.00833130,0.183105,-0.122070,-0.061035
3933629791,0.00569153,0.00703430,-1.00779724,0.183105,-0.122070,-0.061035
3936151166,0.00569153,0.00703430,-1.00779724,0.244141,-0.122070,0.000000
3943494666,0.00738525,0.00775146,-1.00721741,0.244141,-0.122070,0.000000
3946026833,0.00738525,0.00775146,-1.00721741,0.183105,-0.244141,-0.122070
3953625958,0.00669861,0.00733948,-1.00820923,0.183105,-0.244141,-0.122070
3956165833,0.00669861,0.00733948,-1.00820923,0.122070,-0.183105,-0.061035
3963730250,0.00549316,0.00773621,-1.00849915,0.122070,-0.183105,-0.061035
3966292750,0.00549316,0.00773621,-1.00849915,0.366211,-0.122070,-0.671387
3973618416,-0.03341675,0.00032043,-1.00794983,0.366211,-0.122070,-0.671387
3976142083,-0.03341675,0.00032043,-1.00794983,-0.305176,-0.061035,-2.014160
3983730208,-0.16380310,-0.01570129,-1.00929260,-0.305176,-0.061035,-2.014160
3986247791,-0.16380310,-0.01570129,-1.00929260,0.000000,-0.061035,-2.441406
3993931916,-0.13104248,0.01246643,-1.00213623,0.000000,-0.061035,-2.441406
3996472375,-0.13104248,0.01246643,-1.00213623,-0.305176,-0.122070,-2.502441
4004100583,-0.04447937,0.02955627,-1.00881958,-0.305176,-0.122070,-2.502441
4006641541,-0.04447937,0.02955627,-1.00881958,-1.159668,-0.305176,-2.258301
4014203375,0.00201416,0.02174377,-1.00961304,-1.159668,-0.305176,-2.258301
4016741291,0.00201416,0.02174377,-1.00961304,-2.197266,-0.244141,-1.770020
4024288875,0.02256775,0.01081848,-1.01393127,-2.197266,-0.244141,-1.770020
4026816583,0.02256775,0.01081848,-1.01393127,-2.807617,-0.244141,-1.525879
4034460791,0.02920532,0.01052856,-1.01264954,-2.807617,-0.244141,-1.525879
4036978750,0.02920532,0.01052856,-1.01264954,-2.441406,-0.183105,-1.708984
4042021583,0.02531433,0.01643372,-1.00805664,-2.441406,-0.183105,-1.708984
4047070958,0.02531433,0.01643372,-1.00805664,-1.892090,-0.183105,-1.770020
4052094916,0.01525879,0.01817322,-1.00567627,-1.892090,-0.183105,-1.770020
4057139333,0.01525879,0.01817322,-1.00567627,-1.281738,-0.244141,-1.892090
4061940125,0.00932312,0.01274109,-1.00399780,-1.281738,-0.244141,-1.892090
4066983041,0.00932312,0.01274109,-1.00399780,-1.464844,-0.183105,-2.014160
4072009291,0.00608826,0.00498962,-1.00610352,-1.464844,-0.183105,-2.014160
4076868166,0.00608826,0.00498962,-1.00610352,-1.708984,-0.183105,-2.075195
4081900583,0.00354004,-0.00010681,-1.00942993,-1.708984,-0.183105,-2.075195
4086969333,0.00354004,-0.00010681,-1.00942993,-2.014160,-0.244141,-1.831055
4091995125,-0.00068665,0.00224304,-1.01123047,-2.014160,-0.244141,-1.831055
4097091875,-0.00068665,0.00224304,-1.01123047,-2.014160,-0.061035,-1.464844
4104269000,-0.00393677,0.00605774,-1.00854492,-2.014160,-0.061035,-1.464844
4106787958,-0.00393677,0.00605774,-1.00854492,-1.708984,-0.183105,-1.403809
4111839666,-0.01252747,0.00932312,-1.00682068,-1.708984,-0.183105,-1.403809
4116810208,-0.01252747,0.00932312,-1.00682068,-1.220703,-0.244141,-1.159668
4121835458,-0.01568604,0.01304626,-1.00462341,-1.220703,-0.244141,-1.159668
4126886250,-0.01568604,0.01304626,-1.00462341,-0.854492,-0.244141,-1.037598
4131929666,-0.00959778,0.01553345,-1.00517273,-0.854492,-0.244141,-1.037598
4137020750,-0.00959778,0.01553345,-1.00517273,-0.793457,-0.244141,-0.793457
4142046458,0.00053406,0.01570129,-1.00804138,-0.793457,-0.244141,-0.793457
4147084458,0.00053406,0.01570129,-1.00804138,-1.220703,-0.244141,-0.549316
4152183833,0.01284790,0.01290894,-1.00915527,-1.220703,-0.244141,-0.549316
4157249041,0.01284790,0.01290894,-1.00915527,-1.525879,-0.183105,0.061035
4162299291,0.02507019,0.01397705,-1.00993347,-1.525879,-0.183105,0.061035
4167333541,0.02507019,0.01397705,-1.00993347,-1.647949,-0.305176,0.915527
4172420916,0.03495789,0.01809692,-1.00909424,-1.647949,-0.305176,0.915527
4177507041,0.03495789,0.01809692,-1.00909424,-1.586914,-0.061035,1.220703
4182547833,0.03533936,0.02038574,-1.00845337,-1.586914,-0.061035,1.220703
4187577875,0.03533936,0.02038574,-1.00845337,-0.915527,-0.122070,1.525879
4192599333,0.02615356,0.02531433,-1.00663757,-0.915527,-0.122070,1.525879
4197629166,0.02615356,0.02531433,-1.00663757,-0.427246,-0.183105,1.281738
4202780250,0.01396179,0.02828979,-1.00511169,-0.427246,-0.183105,1.281738
4207801875,0.01396179,0.02828979,-1.00511169,0.061035,-0.244141,1.098633
4212892166,-0.00013733,0.02658081,-1.00538635,0.061035,-0.244141,1.098633
4217914375,-0.00013733,0.02658081,-1.00538635,0.061035,-0.061035,0.732422
4222713541,-0.01425171,0.02514648,-1.00639343,0.061035,-0.061035,0.732422
4227778125,-0.01425171,0.02514648,-1.00639343,-0.366211,-0.244141,0.427246
4232803875,-0.01557922,0.02075195,-1.00857544,-0.366211,-0.244141,0.427246
4237892875,-0.01557922,0.02075195,-1.00857544,-0.610352,-0.122070,0.305176
4242917375,-0.01774597,0.01882935,-1.01031494,-0.610352,-0.122070,0.305176
4247962208,-0.01774597,0.01882935,-1.01031494,-0.305176,-0.183105,0.244141
4252750500,-0.02113342,0.02256775,-1.00831604,-0.305176,-0.183105,0.244141
4257775458,-0.02113342,0.02256775,-1.00831604,0.244141,-0.122070,0.549316
4262913625,-0.02526855,0.02316284,-1.00482178,0.244141,-0.122070,0.549316
4267953291,-0.02526855,0.02316284,-1.00482178,1.464844,-0.122070,0.732422
4273057625,-0.02182007,0.02087402,-1.00361633,1.464844,-0.122070,0.732422
4278173875,-0.02182007,0.02087402,-1.00361633,2.563477,-0.183105,1.037598
4283230375,-0.01118469,0.01240540,-1.00202942,2.563477,-0.183105,1.037598
4288301000,-0.01118469,0.01240540,-1.00202942,3.112793,-0.183105,1.037598
4293348375,0.00172424,0.00459290,-1.00364685,3.112793,-0.183105,1.037598
4295880208,0.00172424,0.00459290,-1.00364685,3.295898,-0.061035,0.854492
4303451875,0.01271057,0.00285339,-1.00764465,3.295898,-0.061035,0.854492
4305963750,0.01271057,0.00285339,-1.00764465,2.929688,-0.061035,0.427246
4313533500,0.02153015,0.00488281,-1.00962830,2.929688,-0.061035,0.427246
4316061458,0.02153015,0.00488281,-1.00962830,2.563477,-0.122070,0.061035
4323718416,0.02613831,0.01147461,-1.00947571,2.563477,-0.122070,0.061035
4326232583,0.02613831,0.01147461,-1.00947571,2.380371,-0.122070,-0.366211
4333766041,0.02513123,0.01982117,-1.00947571,2.380371,-0.122070,-0.366211
4336357125,0.02513123,0.01982117,-1.00947571,2.075195,-0.122070,-0.549316
4343919541,0.01976013,0.02133179,-1.00910950,2.075195,-0.122070,-0.549316
4346443416,0.01976013,0.02133179,-1.00910950,1.831055,-0.244141,-0.976562
4354090000,0.01513672,0.01542664,-1.00720215,1.831055,-0.244141,-0.976562
4356609166,0.01513672,0.01542664,-1.00720215,1.403809,-0.183105,-1.403809
4364255250,0.01763916,0.00686646,-1.00872803,1.403809,-0.183105,-1.403809
4366771666,0.01763916,0.00686646,-1.00872803,0.671387,-0.244141,-1.342773
4374339458,0.02282715,-0.00166321,-1.00961304,0.671387,-0.244141,-1.342773
4376868333,0.02282715,-0.00166321,-1.00961304,0.366211,-0.122070,-1.159668
4381894500,0.02119446,-0.00547791,-1.00935364,0.366211,-0.122070,-1.159668
4386967333,0.02119446,-0.00547791,-1.00935364,0.061035,-0.061035,-0.976562
4391993541,0.01527405,-0.00239563,-1.01026917,0.061035,-0.061035,-0.976562
4397035166,0.01527405,-0.00239563,-1.01026917,-0.122070,-0.183105,-1.037598
4402188875,0.01213074,-0.00123596,-1.00822449,-0.122070,-0.183105,-1.037598
4407215708,0.01213074,-0.00123596,-1.00822449,0.122070,-0.183105,-1.220703
4412245541,0.01016235,0.00010681,-1.00689697,0.122070,-0.183105,-1.220703
4417265208,0.01016235,0.00010681,-1.00689697,0.244141,0.000000,-1.403809
4422006083,0.01394653,0.00245667,-1.00793457,0.244141,0.000000,-1.403809
4427092375,0.01394653,0.00245667,-1.00793457,0.305176,-0.122070,-1.403809
4432135958,0.01553345,0.00552368,-1.00550842,0.305176,-0.122070,-1.403809
4437189500,0.01553345,0.00552368,-1.00550842,0.244141,-0.061035,-1.159668
4442218375,0.01248169,0.00988770,-1.00712585,0.244141,-0.061035,-1.159668
4447276041,0.01248169,0.00988770,-1.00712585,0.244141,-0.122070,-1.281738
4452069750,0.00651550,0.01126099,-1.00811768,0.244141,-0.122070,-1.281738
4457140416,0.00651550,0.01126099,-1.00811768,0.549316,-0.061035,-1.098633
4462185208,-0.00302124,0.01034546,-1.00840759,0.549316,-0.061035,-1.098633
4467214750,-0.00302124,0.01034546,-1.00840759,0.610352,-0.122070,-1.281738
4472241166,-0.00851440,0.01095581,-1.00735474,0.610352,-0.122070,-1.281738
4477268250,-0.00851440,0.01095581,-1.00735474,0.854492,-0.244141,-1.464844
4482357125,-0.01052856,0.00930786,-1.00631714,0.854492,-0.244141,-1.464844
4487151208,-0.01052856,0.00930786,-1.00631714,0.915527,-0.122070,-1.464844
4492262166,-0.00610352,0.00747681,-1.00729370,0.915527,-0.122070,-1.464844
4497367708,-0.00610352,0.00747681,-1.00729370,0.793457,-0.122070,-1.647949
4502415166,0.00285339,0.00543213,-1.00772095,0.793457,-0.122070,-1.647949
4507470375,0.00285339,0.00543213,-1.00772095,0.793457,-0.183105,-1.708984
4512500208,0.00779724,0.00521851,-1.00877380,0.793457,-0.183105,-1.708984
4517542791,0.00779724,0.00521851,-1.00877380,0.610352,-0.183105,-1.892090
4522607500,0.01063538,0.00326538,-1.00828552,0.610352,-0.183105,-1.892090
4527654000,0.01063538,0.00326538,-1.00828552,0.488281,-0.183105,-1.892090
4532747416,0.00665283,0.00379944,-1.00927734,0.488281,-0.183105,-1.892090
4537792416,0.00665283,0.00379944,-1.00927734,0.671387,-0.244141,-2.075195
4542827000,0.00028992,0.01004028,-1.00914001,0.671387,-0.244141,-2.075195
4547872125,0.00028992,0.01004028,-1.00914001,0.671387,-0.183105,-2.441406
4552947000,-0.00689697,0.01251221,-1.00784302,0.671387,-0.183105,-2.441406
4557996041,-0.00689697,0.01251221,-1.00784302,0.671387,-0.183105,-2.929688
4563025791,-0.00788879,0.01521301,-1.00622559,0.671387,-0.183105,-2.929688
4568071708,-0.00788879,0.01521301,-1.00622559,0.610352,-0.061035,-3.417969
4573165083,-0.00091553,0.01669312,-1.00735474,0.610352,-0.061035,-3.417969
4578230750,-0.00091553,0.01669312,-1.00735474,0.732422,-0.122070,-3.723145
4583285041,0.00785828,0.01780701,-1.00747681,0.732422,-0.122070,-3.723145
4585824250,0.00785828,0.01780701,-1.00747681,0.488281,-0.061035,-3.540039
4593429708,0.01969910,0.01942444,-1.00804138,0.488281,-0.061035,-3.540039
4595961708,0.01969910,0.01942444,-1.00804138,0.122070,-0.122070,-3.051758
4603526125,0.02531433,0.01998901,-1.00997925,0.122070,-0.122070,-3.051758
4606052875,0.02531433,0.01998901,-1.00997925,0.183105,-0.183105,-2.624512
4613599000,0.02638245,0.01745605,-1.00926208,0.183105,-0.183105,-2.624512
4616134708,0.02638245,0.01745605,-1.00926208,0.366211,-0.183105,-2.197266
4623723625,0.02545166,0.01495361,-1.00691223,0.366211,-0.183105,-2.197266
4626281625,0.02545166,0.01495361,-1.00691223,0.976562,-0.244141,-1.831055
4633898000,0.02520752,0.01568604,-1.00622559,0.976562,-0.244141,-1.831055
4636413833,0.02520752,0.01568604,-1.00622559,1.464844,-0.183105,-1.525879
4643971458,0.02619934,0.01661682,-1.00505066,1.464844,-0.183105,-1.525879
4646484083,0.02619934,0.01661682,-1.00505066,1.342773,-0.183105,-1.220703
4654095625,0.02233887,0.01715088,-1.00619507,1.342773,-0.183105,-1.220703
4656613583,0.02233887,0.01715088,-1.00619507,0.915527,-0.244141,-1.037598
4664166083,0.02154541,0.01866150,-1.01025391,0.915527,-0.244141,-1.037598
4666736125,0.02154541,0.01866150,-1.01025391,0.671387,-0.122070,-1.098633
4674313041,0.01432800,0.01702881,-1.01065063,0.671387,-0.122070,-1.098633
4676457750,0.01432800,0.01702881,-1.01065063,0.427246,-0.244141,-1.037598
4684005083,0.00415039,0.01414490,-1.00827026,0.427246,-0.244141,-1.037598
4686529041,0.00415039,0.01414490,-1.00827026,0.976562,-0.244141,-1.220703
4694107041,0.00335693,0.01293945,-1.00625610,0.976562,-0.244141,-1.220703
4696621125,0.00335693,0.01293945,-1.00625610,1.647949,0.000000,-0.915527
4704307125,0.00456238,0.01809692,-1.00398254,1.647949,0.000000,-0.915527
4706837083,0.00456238,0.01809692,-1.00398254,1.831055,-0.183105,-0.488281
4714410208,0.01409912,0.01966858,-1.00666809,1.831055,-0.183105,-0.488281
4716935750,0.01409912,0.01966858,-1.00666809,1.770020,0.000000,-0.183105
4724469833,0.02717590,0.01516724,-1.00735474,1.770020,0.000000,-0.183105
4726982041,0.02717590,0.01516724,-1.00735474,1.708984,-0.122070,-0.061035
4734513666,0.03602600,0.00787354,-1.00910950,1.708984,-0.122070,-0.061035
4737061125,0.03602600,0.00787354,-1.00910950,2.136230,-0.122070,-0.061035
4744669125,0.03472900,0.00816345,-1.00703430,2.136230,-0.122070,-0.061035
4747184875,0.03472900,0.00816345,-1.00703430,2.563477,-0.183105,-0.366211
4752251708,0.02703857,0.00892639,-1.00653076,2.563477,-0.183105,-0.366211
4757206916,0.02703857,0.00892639,-1.00653076,2.441406,0.061035,-0.183105
4762293125,0.01484680,0.00663757,-1.00584412,2.441406,0.061035,-0.183105
4767409666,0.01484680,0.00663757,-1.00584412,2.197266,-0.061035,-0.183105
4772457791,-0.00053406,0.00286865,-1.00875854,2.197266,-0.061035,-0.183105
4777612458,-0.00053406,0.00286865,-1.00875854,1.708984,-0.122070,-0.183105
4782635208,-0.01473999,0.00193787,-1.01055908,1.708984,-0.122070,-0.183105
4787693416,-0.01473999,0.00193787,-1.01055908,0.183105,-0.122070,-0.122070
4792719625,-0.02040100,-0.00271606,-1.00965881,0.183105,-0.122070,-0.122070
4797767375,-0.02040100,-0.00271606,-1.00965881,0.244141,-0.305176,-0.122070
4802857250,-0.02485657,-0.00086975,-1.01435852,0.244141,-0.305176,-0.122070
4807883208,-0.02485657,-0.00086975,-1.01435852,0.488281,-0.366211,-0.061035
4812931541,-0.03880310,0.00341797,-1.00361633,0.488281,-0.366211,-0.061035
4817956875,-0.03880310,0.00341797,-1.00361633,0.122070,-0.122070,-0.122070
4823001833,-0.03279114,0.00656128,-1.00613403,0.122070,-0.122070,-0.122070
4828125708,-0.03279114,0.00656128,-1.00613403,0.244141,-0.061035,0.061035
4833168791,-0.02471924,0.01176453,-1.01324463,0.244141,-0.061035,0.061035
4838264875,-0.02471924,0.01176453,-1.01324463,0.305176,-0.122070,0.366211
4843309666,-0.02632141,0.01095581,-1.00573730,0.305176,-0.122070,0.366211
4848421416,-0.02632141,0.01095581,-1.00573730,0.488281,-0.183105,0.610352
4853496291,-0.02256775,0.00836182,-1.00601196,0.488281,-0.183105,0.610352
4856012791,-0.02256775,0.00836182,-1.00601196,0.549316,-0.244141,0.488281
4863573041,-0.01046753,0.00273132,-1.00778198,0.549316,-0.244141,0.488281
4866085000,-0.01046753,0.00273132,-1.00778198,0.610352,-0.183105,0.488281
4873149708,0.00431824,0.00135803,-1.00721741,0.610352,-0.183105,0.488281
4878187291,0.00431824,0.00135803,-1.00721741,0.793457,-0.183105,0.366211
4883288125,0.02079773,0.00253296,-1.00965881,0.793457,-0.183105,0.366211
4888335583,0.02079773,0.00253296,-1.00965881,0.732422,-0.122070,0.061035
4893391916,0.03207397,0.00506592,-1.00773621,0.732422,-0.122070,0.061035
4898533208,0.03207397,0.00506592,-1.00773621,0.427246,-0.183105,-0.427246
4903294375,0.04205322,0.00691223,-1.00755310,0.427246,-0.183105,-0.427246
4908338666,0.04205322,0.00691223,-1.00755310,0.488281,-0.183105,-0.427246
4913409875,0.03443909,0.01100159,-1.00929260,0.488281,-0.183105,-0.427246
4918490250,0.03443909,0.01100159,-1.00929260,0.305176,-0.183105,-0.488281
4923517791,0.02102661,0.01387024,-1.00761414,0.305176,-0.183105,-0.488281
4926034750,0.02102661,0.01387024,-1.00761414,0.488281,-0.122070,-0.610352
4933692750,0.02180481,0.01448059,-1.00932312,0.488281,-0.122070,-0.610352
4936158250,0.02180481,0.01448059,-1.00932312,0.366211,-0.183105,-0.793457
4943727166,0.02738953,0.00820923,-1.00758362,0.366211,-0.183105,-0.793457
4946269833,0.02738953,0.00820923,-1.00758362,0.488281,-0.183105,-0.732422
4953866916,0.02622986,0.00326538,-1.00926208,0.488281,-0.183105,-0.732422
4956387666,0.02622986,0.00326538,-1.00926208,0.183105,-0.183105,-0.671387
4963972125,0.02706909,0.00022888,-1.00686646,0.183105,-0.183105,-0.671387
4966487708,0.02706909,0.00022888,-1.00686646,0.305176,-0.122070,-0.732422
4974087291,0.02818298,0.00338745,-1.00903320,0.305176,-0.122070,-0.732422
4976601791,0.02818298,0.00338745,-1.00903320,0.244141,-0.122070,-0.793457
4984145333,0.03097534,0.00965881,-1.00817871,0.244141,-0.122070,-0.793457
4986662458,0.03097534,0.00965881,-1.00817871,0.305176,-0.244141,-1.037598
4994219000,0.03138733,0.01495361,-1.00897217,0.305176,-0.244141,-1.037598
4996763416,0.03138733,0.01495361,-1.00897217,0.488281,-0.122070,-1.220703
5004346833,0.03143311,0.01702881,-1.00793457,0.488281,-0.122070,-1.220703
5006887916,0.03143311,0.01702881,-1.00793457,0.488281,-0.122070,-1.403809
5014479083,0.03564453,0.01377869,-1.00801086,0.488281,-0.122070,-1.403809
5016998000,0.03564453,0.01377869,-1.00801086,0.427246,-0.183105,-0.976562
5024573666,0.04138184,0.01084900,-1.00935364,0.427246,-0.183105,-0.976562
5027087833,0.04138184,0.01084900,-1.00935364,0.427246,-0.122070,-0.793457
5034730000,0.04090881,0.00598145,-1.00778198,0.427246,-0.122070,-0.793457
5037278916,0.04090881,0.00598145,-1.00778198,0.244141,-0.183105,-0.549316
5044581666,0.03521729,0.00398254,-1.00671387,0.244141,-0.183105,-0.549316
5047112125,0.03521729,0.00398254,-1.00671387,0.427246,-0.183105,-0.427246
5054646583,0.02873230,0.00518799,-1.00790405,0.427246,-0.183105,-0.427246
5057201208,0.02873230,0.00518799,-1.00790405,0.244141,-0.183105,-0.305176
5064414000,0.01615906,0.00648499,-1.00746155,0.244141,-0.183105,-0.305176
5066959500,0.01615906,0.00648499,-1.00746155,0.488281,-0.183105,-0.610352
5074518166,0.00651550,0.00917053,-1.00650024,0.488281,-0.183105,-0.610352
5077046083,0.00651550,0.00917053,-1.00650024,0.366211,-0.061035,-1.037598
5084625958,0.00086975,0.01731873,-1.00834656,0.366211,-0.061035,-1.037598
5086810041,0.00086975,0.01731873,-1.00834656,0.183105,-0.305176,-0.061035
5094427958,0.00566101,0.00033569,-1.00462341,0.183105,-0.305176,-0.061035
5096946625,0.00566101,0.00033569,-1.00462341,0.732422,-0.305176,0.000000
5104593958,0.01885986,-0.01264954,-1.01203918,0.732422,-0.305176,0.000000
5107109333,0.01885986,-0.01264954,-1.01203918,0.732422,-0.061035,0.000000
5114724916,0.00155640,0.00857544,-1.01072693,0.732422,-0.061035,0.000000
5117239625,0.00155640,0.00857544,-1.01072693,0.305176,-0.061035,0.000000
5124778166,0.00527954,0.00576782,-1.00569153,0.305176,-0.061035,0.000000
5127297666,0.00527954,0.00576782,-1.00569153,0.244141,-0.061035,0.000000
5134878500,0.00657654,0.00962830,-1.00894165,0.244141,-0.061035,0.000000
5137483250,0.00657654,0.00962830,-1.00894165,0.305176,-0.122070,0.000000
5145071833,0.00613403,0.00901794,-1.00958252,0.305176,-0.122070,0.000000
5147587708,0.00613403,0.00901794,-1.00958252,0.366211,-0.244141,-0.061035
5155182208,0.00767517,0.00929260,-1.00860596,0.366211,-0.244141,-0.061035
5157696458,0.00767517,0.00929260,-1.00860596,0.488281,-0.244141,0.000000
5165300083,0.00846863,0.00863647,-1.00679016,0.488281,-0.244141,0.000000
5167815458,0.00846863,0.00863647,-1.00679016,0.000000,-0.183105,0.000000
5172840666,0.00628662,0.00688171,-1.00767517,0.000000,-0.183105,0.000000
5177901791,0.00628662,0.00688171,-1.00767517,0.244141,-0.244141,-0.061035
5185133500,0.00619507,0.00666809,-1.00874329,0.244141,-0.244141,-0.061035
5187672791,0.00619507,0.00666809,-1.00874329,0.366211,-0.122070,0.000000
5195232625,0.00682068,0.00640869,-1.00743103,0.366211,-0.122070,0.000000
5197747750,0.00682068,0.00640869,-1.00743103,0.305176,-0.122070,0.000000
5202847333,0.00610352,0.00755310,-1.00764465,0.305176,-0.122070,0.000000
5207918916,0.00610352,0.00755310,-1.00764465,0.427246,-0.244141,-0.183105
5212978875,0.00753784,0.00645447,-1.00727844,0.427246,-0.244141,-0.183105
5218034625,0.00753784,0.00645447,-1.00727844,0.366211,-0.183105,-0.061035
5223144041,0.00737000,0.00706482,-1.00859070,0.366211,-0.183105,-0.061035
5228230166,0.00737000,0.00706482,-1.00859070,0.427246,-0.122070,-0.122070
5233269250,0.00749207,0.00622559,-1.00822449,0.427246,-0.122070,-0.122070
5238355000,0.00749207,0.00622559,-1.00822449,0.305176,-0.244141,-0.122070
5243415375,0.00657654,0.00624084,-1.00794983,0.305176,-0.244141,-0.122070
5248467541,0.00657654,0.00624084,-1.00794983,0.122070,0.000000,0.061035
5253536958,0.00494385,0.00608826,-1.00819397,0.122070,0.000000,0.061035
5258560625,0.00494385,0.00608826,-1.00819397,0.305176,-0.122070,0.061035
5263593666,0.00474548,0.00607300,-1.00804138,0.305176,-0.122070,0.061035
5268618000,0.00474548,0.00607300,-1.00804138,0.427246,-0.183105,-0.122070
5273671333,0.00404358,0.00695801,-1.00822449,0.427246,-0.183105,-0.122070
5278757416,0.00404358,0.00695801,-1.00822449,0.366211,-0.244141,0.061035
5283795375,0.00526428,0.00735474,-1.00819397,0.366211,-0.244141,0.061035
5286344708,0.00526428,0.00735474,-1.00819397,0.305176,-0.244141,-0.061035
5293486791,0.00607300,0.00660706,-1.00788879,0.305176,-0.244141,-0.061035
5298537000,0.00607300,0.00660706,-1.00788879,0.305176,-0.244141,-0.061035
5303562833,0.00697327,0.00703430,-1.00798035,0.305176,-0.244141,-0.061035
5308590083,0.00697327,0.00703430,-1.00798035,0.305176,-0.305176,-0.122070
5313780916,0.00694275,0.00654602,-1.00578308,0.305176,-0.305176,-0.122070
5316312541,0.00694275,0.00654602,-1.00578308,0.305176,-0.244141,0.000000
5323879375,0.00555420,0.00860596,-1.00807190,0.305176,-0.244141,0.000000
5328637958,0.00555420,0.00860596,-1.00807190,0.427246,-0.183105,-0.061035
5333706333,0.00579834,0.00849915,-1.00717163,0.427246,-0.183105,-0.061035
5338459250,0.00579834,0.00849915,-1.00717163,0.366211,-0.122070,-0.183105
5343483625,0.00642395,0.00804138,-1.00724792,0.366211,-0.122070,-0.183105
5348524625,0.00642395,0.00804138,-1.00724792,0.305176,-0.244141,-0.061035
5353584625,0.00585938,0.00779724,-1.00679016,0.305176,-0.244141,-0.061035
5358654458,0.00585938,0.00779724,-1.00679016,0.244141,-0.061035,0.000000
5363650083,0.00659180,0.00708008,-1.00878906,0.244141,-0.061035,0.000000
5368695208,0.00659180,0.00708008,-1.00878906,0.366211,-0.183105,-0.122070
5373837750,0.00735474,0.00602722,-1.00799561,0.366211,-0.183105,-0.122070
5378872666,0.00735474,0.00602722,-1.00799561,0.122070,-0.244141,-0.061035
5383933833,0.00714111,0.00720215,-1.00630188,0.122070,-0.244141,-0.061035
5388451791,0.00714111,0.00720215,-1.00630188,0.305176,-0.122070,0.000000
5393500166,0.00704956,0.00682068,-1.00781250,0.305176,-0.122070,0.000000
5398540375,0.00704956,0.00682068,-1.00781250,0.427246,-0.122070,0.000000
5403569500,0.00592041,0.00630188,-1.00801086,0.427246,-0.122070,0.000000
5408657583,0.00592041,0.00630188,-1.00801086,0.366211,-0.061035,0.000000
5413698750,0.00489807,0.00842285,-1.00845337,0.366211,-0.061035,0.000000
5418742541,0.00489807,0.00842285,-1.00845337,0.366211,-0.122070,0.000000
5423785625,0.00473022,0.00845337,-1.00862122,0.366211,-0.122070,0.000000
5428854250,0.00473022,0.00845337,-1.00862122,0.305176,-0.183105,-0.061035
5433917958,0.00526428,0.00781250,-1.00843811,0.305176,-0.183105,-0.061035
5438956875,0.00526428,0.00781250,-1.00843811,0.427246,-0.183105,-0.061035
5444021375,0.00534058,0.00871277,-1.00860596,0.427246,-0.183105,-0.061035
5449077500,0.00534058,0.00871277,-1.00860596,0.305176,-0.122070,0.061035
5454105416,0.00546265,0.00784302,-1.00839233,0.305176,-0.122070,0.061035
5458728541,0.00546265,0.00784302,-1.00839233,0.305176,-0.244141,0.000000
5463757916,0.00582886,0.00724792,-1.00733948,0.305176,-0.244141,0.000000
5468815083,0.00582886,0.00724792,-1.00733948,0.427246,-0.183105,0.000000
5473849708,0.00592041,0.00767517,-1.00752258,0.427246,-0.183105,0.000000
5478904916,0.00592041,0.00767517,-1.00752258,0.305176,0.061035,0.122070
5484006791,0.00651550,0.00646973,-1.00733948,0.305176,0.061035,0.122070
5489032291,0.00651550,0.00646973,-1.00733948,0.305176,-0.183105,0.000000
5494142041,0.00671387,0.00720215,-1.00750732,0.305176,-0.183105,0.000000
5499162208,0.00671387,0.00720215,-1.00750732,0.183105,-0.305176,-0.061035
5504218041,0.00831604,0.00773621,-1.00619507,0.183105,-0.305176,-0.061035
5509241416,0.00831604,0.00773621,-1.00619507,0.305176,-0.122070,-0.061035
5514302291,0.00819397,0.00694275,-1.00988770,0.305176,-0.122070,-0.061035
5516864708,0.00819397,0.00694275,-1.00988770,0.610352,-0.122070,0.000000
5524287416,0.00714111,0.00706482,-1.00621033,0.610352,-0.122070,0.000000
5526862000,0.00714111,0.00706482,-1.00621033,0.122070,-0.122070,-0.061035
5534413250,0.00807190,0.00703430,-1.00575256,0.122070,-0.122070,-0.061035
5536932958,0.00807190,0.00703430,-1.00575256,0.244141,-0.061035,-0.061035
5544030333,0.00502014,0.00665283,-1.01237488,0.244141,-0.061035,-0.061035
5549069083,0.00502014,0.00665283,-1.01237488,0.366211,-0.122070,-0.061035
5554144000,0.00311279,0.00697327,-1.00506592,0.366211,-0.122070,-0.061035
5559168208,0.00311279,0.00697327,-1.00506592,0.366211,-0.061035,-0.061035
5564343041,0.00399780,0.00712585,-1.00683594,0.366211,-0.061035,-0.061035
5569030250,0.00399780,0.00712585,-1.00683594,0.305176,-0.183105,-0.122070
5574072791,0.00460815,0.00814819,-1.00820923,0.305176,-0.183105,-0.122070
5579123166,0.00460815,0.00814819,-1.00820923,0.061035,-0.122070,0.000000
5584174833,0.00450134,0.00877380,-1.00825500,0.061035,-0.122070,0.000000
5589198250,0.00450134,0.00877380,-1.00825500,0.305176,-0.122070,-0.061035
5594257750,0.00550842,0.00868225,-1.00764465,0.305176,-0.122070,-0.061035
5599329291,0.00550842,0.00868225,-1.00764465,0.305176,-0.061035,-0.061035
5604383291,0.00685120,0.00775146,-1.00692749,0.305176,-0.061035,-0.061035
5606922666,0.00685120,0.00775146,-1.00692749,0.305176,-0.061035,0.061035
5614560125,0.00802612,0.00825500,-1.00744629,0.305176,-0.061035,0.061035
5619639833,0.00802612,0.00825500,-1.00744629,0.122070,-0.183105,0.000000
5624687458,0.00738525,0.00720215,-1.00735474,0.122070,-0.183105,0.000000
5627212833,0.00738525,0.00720215,-1.00735474,0.305176,-0.122070,0.000000
5634662875,0.00718689,0.00610352,-1.00769043,0.305176,-0.122070,0.000000
5637185208,0.00718689,0.00610352,-1.00769043,0.244141,-0.183105,-0.061035
5644731416,0.00621033,0.00559998,-1.00685120,0.244141,-0.183105,-0.061035
5647271416,0.00621033,0.00559998,-1.00685120,0.305176,-0.183105,-0.061035
5654844375,0.00654602,0.00669861,-1.00764465,0.305176,-0.183105,-0.061035
5657376500,0.00654602,0.00669861,-1.00764465,0.488281,-0.183105,0.000000
5664964916,0.00669861,0.00657654,-1.00776672,0.488281,-0.183105,0.000000
5667486708,0.00669861,0.00657654,-1.00776672,0.427246,-0.244141,-0.061035
5674895708,0.00585938,0.00730896,-1.00750732,0.427246,-0.244141,-0.061035
5677424833,0.00585938,0.00730896,-1.00750732,0.366211,-0.183105,-0.122070
5685015208,0.00581360,0.00706482,-1.00775146,0.366211,-0.183105,-0.122070
5687544333,0.00581360,0.00706482,-1.00775146,0.244141,-0.183105,0.122070
5695134583,0.00506592,0.00663757,-1.00805664,0.244141,-0.183105,0.122070
5697681583,0.00506592,0.00663757,-1.00805664,0.305176,-0.183105,0.061035
5705008125,0.00466919,0.00772095,-1.00790405,0.305176,-0.183105,0.061035
5707534708,0.00466919,0.00772095,-1.00790405,0.244141,0.000000,-0.122070
5714767125,0.00506592,0.00779724,-1.00733948,0.244141,0.000000,-0.122070
5717319291,0.00506592,0.00779724,-1.00733948,0.305176,-0.183105,0.061035
5724877458,0.00520325,0.00810242,-1.00755310,0.305176,-0.183105,0.061035
5727406875,0.00520325,0.00810242,-1.00755310,0.244141,-0.244141,0.061035
5734390958,0.00570679,0.00834656,-1.00776672,0.244141,-0.244141,0.061035
5736908666,0.00570679,0.00834656,-1.00776672,0.366211,-0.122070,0.000000
5744455250,0.00679016,0.00730896,-1.00833130,0.366211,-0.122070,0.000000
5746980541,0.00679016,0.00730896,-1.00833130,0.244141,-0.183105,-0.122070
5754391583,0.00724792,0.00680542,-1.00785828,0.244141,-0.183105,-0.122070
5756929666,0.00724792,0.00680542,-1.00785828,0.366211,0.000000,0.122070
5764403375,0.00723267,0.00657654,-1.00679016,0.366211,0.000000,0.122070
5766943833,0.00723267,0.00657654,-1.00679016,0.366211,-0.122070,0.000000
5774493833,0.00675964,0.00630188,-1.00816345,0.366211,-0.122070,0.000000
5777014750,0.00675964,0.00630188,-1.00816345,0.366211,-0.183105,-0.122070
5784563291,0.00653076,0.00592041,-1.00758362,0.366211,-0.183105,-0.122070
5787083041,0.00653076,0.00592041,-1.00758362,0.305176,-0.122070,-0.061035
5794448833,0.00756836,0.00639343,-1.00718689,0.305176,-0.122070,-0.061035
5796965708,0.00756836,0.00639343,-1.00718689,0.366211,-0.122070,-0.122070
5804503916,0.00723267,0.00688171,-1.00653076,0.366211,-0.122070,-0.122070
5807019458,0.00723267,0.00688171,-1.00653076,0.305176,-0.183105,0.000000
5814583916,0.00683594,0.00692749,-1.00720215,0.305176,-0.183105,0.000000
5819673791,0.00683594,0.00692749,-1.00720215,0.244141,-0.183105,-0.061035
5824723708,0.00656128,0.00756836,-1.00819397,0.244141,-0.183105,-0.061035
5827243958,0.00656128,0.00756836,-1.00819397,0.244141,-0.122070,-0.122070
5834130583,0.00679016,0.00756836,-1.00886536,0.244141,-0.122070,-0.122070
5839124291,0.00679016,0.00756836,-1.00886536,0.366211,-0.122070,-0.183105
5844222583,0.00573730,0.00747681,-1.00839233,0.366211,-0.122070,-0.183105
5849291041,0.00573730,0.00747681,-1.00839233,0.366211,-0.244141,-0.122070
5853920583,0.00610352,0.00781250,-1.00787354,0.366211,-0.244141,-0.122070
5859001250,0.00610352,0.00781250,-1.00787354,0.305176,-0.122070,0.000000
5864067250,0.00614929,0.00788879,-1.00735474,0.305176,-0.122070,0.000000
5869113916,0.00614929,0.00788879,-1.00735474,0.305176,-0.183105,0.000000
5874158333,0.00593567,0.00810242,-1.00720215,0.305176,-0.183105,0.000000
5879172583,0.00593567,0.00810242,-1.00720215,0.488281,-0.122070,-0.061035
5884292791,0.00491333,0.00779724,-1.00836182,0.488281,-0.122070,-0.061035
5889375666,0.00491333,0.00779724,-1.00836182,0.305176,-0.122070,0.000000
5894427958,0.00602722,0.00798035,-1.00845337,0.305176,-0.122070,0.000000
5896961416,0.00602722,0.00798035,-1.00845337,0.427246,-0.061035,0.061035
5904520916,0.00720215,0.00811768,-1.00726318,0.427246,-0.061035,0.061035
5907040125,0.00720215,0.00811768,-1.00726318,0.244141,-0.122070,-0.061035
5914667166,0.00682068,0.00770569,-1.00738525,0.244141,-0.122070,-0.061035
5919689541,0.00682068,0.00770569,-1.00738525,0.183105,-0.183105,-0.061035
5924733166,0.00595093,0.00718689,-1.00778198,0.183105,-0.183105,-0.061035
5927273666,0.00595093,0.00718689,-1.00778198,0.244141,-0.244141,-0.061035
5934854083,0.00650024,0.00721741,-1.00733948,0.244141,-0.244141,-0.061035
5937383625,0.00650024,0.00721741,-1.00733948,0.183105,-0.244141,-0.122070
5944932583,0.00672913,0.00677490,-1.00636292,0.183105,-0.244141,-0.122070
5947448250,0.00672913,0.00677490,-1.00636292,0.305176,-0.183105,0.061035
5955045916,0.00587463,0.00595093,-1.00769043,0.305176,-0.183105,0.061035
5957564416,0.00587463,0.00595093,-1.00769043,0.305176,-0.305176,-0.122070
5965209333,0.00619507,0.00596619,-1.00813293,0.305176,-0.305176,-0.122070
5967724166,0.00619507,0.00596619,-1.00813293,0.366211,0.061035,0.061035
5974816541,0.00645447,0.00723267,-1.00746155,0.366211,0.061035,0.061035
5977356583,0.00645447,0.00723267,-1.00746155,0.366211,-0.122070,-0.183105
5984974208,0.00631714,0.00782776,-1.00799561,0.366211,-0.122070,-0.183105
5987533291,0.00631714,0.00782776,-1.00799561,0.305176,0.000000,-0.122070
5995094125,0.00737000,0.00782776,-1.00839233,0.305176,0.000000,-0.122070
5997624833,0.00737000,0.00782776,-1.00839233,0.366211,-0.122070,-0.061035
6005105625,0.00619507,0.00802612,-1.00825500,0.366211,-0.122070,-0.061035
6007619875,0.00619507,0.00802612,-1.00825500,0.122070,-0.244141,-0.061035
6015274250,0.00581360,0.00808716,-1.00767517,0.122070,-0.244141,-0.061035
6017789666,0.00581360,0.00808716,-1.00767517,0.305176,-0.244141,-0.122070
6025383916,0.00656128,0.00738525,-1.00837708,0.305176,-0.244141,-0.122070
6027985791,0.00656128,0.00738525,-1.00837708,0.244141,-0.122070,-0.061035
6035521875,0.00601196,0.00726318,-1.00848389,0.244141,-0.122070,-0.061035
6038063541,0.00601196,0.00726318,-1.00848389,0.244141,-0.183105,-0.061035
6045624375,0.00630188,0.00662231,-1.00723267,0.244141,-0.183105,-0.061035
6048139875,0.00630188,0.00662231,-1.00723267,0.366211,-0.122070,-0.183105
6053209125,0.00679016,0.00625610,-1.00691223,0.366211,-0.122070,-0.183105
6058247625,0.00679016,0.00625610,-1.00691223,0.305176,-0.244141,-0.061035
6063337875,0.00683594,0.00636292,-1.00770569,0.305176,-0.244141,-0.061035
6068380083,0.00683594,0.00636292,-1.00770569,0.427246,-0.122070,0.000000
6073410333,0.00643921,0.00685120,-1.00756836,0.427246,-0.122070,0.000000
6078453583,0.00643921,0.00685120,-1.00756836,0.244141,-0.183105,-0.061035
6083575125,0.00630188,0.00700378,-1.00737000,0.244141,-0.183105,-0.061035
6088473291,0.00630188,0.00700378,-1.00737000,0.305176,-0.061035,-0.122070
6093559750,0.00668335,0.00721741,-1.00807190,0.305176,-0.061035,-0.122070
6098582500,0.00668335,0.00721741,-1.00807190,0.305176,-0.122070,-0.122070
6103658250,0.00642395,0.00738525,-1.00872803,0.305176,-0.122070,-0.122070
6108701791,0.00642395,0.00738525,-1.00872803,0.305176,-0.183105,-0.061035
6113764750,0.00592041,0.00778198,-1.00785828,0.305176,-0.183105,-0.061035
6118861250,0.00592041,0.00778198,-1.00785828,0.305176,-0.122070,-0.061035
6123886875,0.00677490,0.00796509,-1.00753784,0.305176,-0.122070,-0.061035
6128798291,0.00677490,0.00796509,-1.00753784,0.244141,-0.427246,-0.061035
6133837958,0.00595093,0.00814819,-1.00810242,0.244141,-0.427246,-0.061035
6138863666,0.00595093,0.00814819,-1.00810242,0.183105,-0.244141,0.000000
6143967291,0.00587463,0.00793457,-1.00720215,0.183105,-0.244141,0.000000
6148992666,0.00587463,0.00793457,-1.00720215,0.305176,-0.183105,-0.061035
6154033125,0.00657654,0.00708008,-1.00791931,0.305176,-0.183105,-0.061035
6159077041,0.00657654,0.00708008,-1.00791931,0.305176,-0.122070,-0.061035
6164187708,0.00555420,0.00727844,-1.00796509,0.305176,-0.122070,-0.061035
6169323833,0.00555420,0.00727844,-1.00796509,0.427246,-0.244141,-0.061035
6174355250,0.00544739,0.00744629,-1.00746155,0.427246,-0.244141,-0.061035
6179381250,0.00544739,0.00744629,-1.00746155,0.305176,-0.183105,-0.061035
6184475916,0.00643921,0.00683594,-1.00785828,0.305176,-0.183105,-0.061035
6187010500,0.00643921,0.00683594,-1.00785828,0.366211,-0.122070,-0.122070
6194577166,0.00619507,0.00666809,-1.00741577,0.366211,-0.122070,-0.122070
6197177750,0.00619507,0.00666809,-1.00741577,0.305176,-0.122070,0.061035
6204739791,0.00595093,0.00735474,-1.00846863,0.305176,-0.122070,0.061035
6207274125,0.00595093,0.00735474,-1.00846863,0.427246,-0.122070,-0.122070
6214846916,0.00601196,0.00640869,-1.00794983,0.427246,-0.122070,-0.122070
6217361458,0.00601196,0.00640869,-1.00794983,0.366211,-0.122070,-0.183105
6224897541,0.00578308,0.00637817,-1.00762939,0.366211,-0.122070,-0.183105
6227409916,0.00578308,0.00637817,-1.00762939,0.244141,-0.061035,0.061035
6234767541,0.00581360,0.00708008,-1.00758362,0.244141,-0.061035,0.061035
6237300666,0.00581360,0.00708008,-1.00758362,0.244141,-0.122070,0.061035
6244848125,0.00648499,0.00753784,-1.00819397,0.244141,-0.122070,0.061035
6247362000,0.00648499,0.00753784,-1.00819397,0.427246,0.000000,0.000000
6254922916,0.00668335,0.00643921,-1.00730896,0.427246,0.000000,0.000000
6257463666,0.00668335,0.00643921,-1.00730896,0.305176,-0.183105,0.061035
6264904291,0.00593567,0.00708008,-1.00759888,0.305176,-0.183105,0.061035
6267437375,0.00593567,0.00708008,-1.00759888,0.305176,-0.122070,0.000000
6275016875,0.00622559,0.00762939,-1.00840759,0.305176,-0.122070,0.000000
6277529041,0.00622559,0.00762939,-1.00840759,0.183105,-0.183105,-0.244141
6285088666,0.00646973,0.00772095,-1.00785828,0.183105,-0.183105,-0.244141
6287608750,0.00646973,0.00772095,-1.00785828,0.366211,-0.183105,-0.061035
6295206125,0.00556946,0.00746155,-1.00711060,0.366211,-0.183105,-0.061035
6297724583,0.00556946,0.00746155,-1.00711060,0.244141,-0.122070,-0.061035
6305298708,0.00543213,0.00813293,-1.00721741,0.244141,-0.122070,-0.061035
6307826833,0.00543213,0.00813293,-1.00721741,0.183105,-0.244141,-0.122070
6315372500,0.00614929,0.00811768,-1.00836182,0.183105,-0.244141,-0.122070
6317907458,0.00614929,0.00811768,-1.00836182,0.305176,-0.183105,-0.061035
6325454791,0.00643921,0.00772095,-1.00827026,0.305176,-0.183105,-0.061035
6327973875,0.00643921,0.00772095,-1.00827026,0.305176,-0.183105,0.000000
6335564375,0.00576782,0.00735474,-1.00724792,0.305176,-0.183105,0.000000
6338083625,0.00576782,0.00735474,-1.00724792,0.305176,-0.061035,0.000000
6345715583,0.00585938,0.00640869,-1.00761414,0.305176,-0.061035,0.000000
6348234041,0.00585938,0.00640869,-1.00761414,0.427246,-0.122070,0.000000
6355876958,0.00633240,0.00660706,-1.00802612,0.427246,-0.122070,0.000000
6358413916,0.00633240,0.00660706,-1.00802612,0.244141,-0.183105,-0.122070
6365970875,0.00701904,0.00639343,-1.00759888,0.244141,-0.183105,-0.122070
6368095916,0.00701904,0.00639343,-1.00759888,0.427246,0.000000,0.061035
6375648833,0.00637817,0.00764465,-1.00808716,0.427246,0.000000,0.061035
6377838875,0.00637817,0.00764465,-1.00808716,0.244141,-0.122070,-0.061035
6385122208,0.00575256,0.00704956,-1.00852966,0.244141,-0.122070,-0.061035
6387682833,0.00575256,0.00704956,-1.00852966,0.366211,-0.122070,-0.061035
6395237625,0.00556946,0.00715637,-1.00823975,0.366211,-0.122070,-0.061035
6397749083,0.00556946,0.00715637,-1.00823975,0.366211,-0.183105,0.061035
6405323375,0.00700378,0.00744629,-1.00845337,0.366211,-0.183105,0.061035
6407363750,0.00700378,0.00744629,-1.00845337,0.366211,-0.061035,-0.061035
6414944125,0.00592041,0.00686646,-1.00833130,0.366211,-0.061035,-0.061035
6417489708,0.00592041,0.00686646,-1.00833130,0.305176,-0.183105,-0.122070
6425032333,0.00642395,0.00718689,-1.00917053,0.305176,-0.183105,-0.122070
6427546625,0.00642395,0.00718689,-1.00917053,0.244141,-0.183105,-0.061035
6435099958,0.00572205,0.00775146,-1.00727844,0.244141,-0.183105,-0.061035
6437614333,0.00572205,0.00775146,-1.00727844,0.305176,-0.244141,-0.061035
6445196291,0.00575256,0.00755310,-1.00848389,0.305176,-0.244141,-0.061035
6447707875,0.00575256,0.00755310,-1.00848389,0.366211,-0.183105,-0.061035
6455255625,0.00611877,0.00817871,-1.00906372,0.366211,-0.183105,-0.061035
6457772125,0.00611877,0.00817871,-1.00906372,0.244141,-0.183105,-0.061035
6465353166,0.00581360,0.00749207,-1.00880432,0.244141,-0.183105,-0.061035
6467880583,0.00581360,0.00749207,-1.00880432,0.366211,-0.122070,-0.061035
6475441458,0.00617981,0.00752258,-1.00650024,0.366211,-0.122070,-0.061035
6477992250,0.00617981,0.00752258,-1.00650024,0.366211,-0.061035,-0.122070
6485560333,0.00625610,0.00765991,-1.00825500,0.366211,-0.061035,-0.122070
6488131916,0.00625610,0.00765991,-1.00825500,0.305176,-0.061035,0.000000
6495729375,0.00750732,0.00733948,-1.00814819,0.305176,-0.061035,0.000000
6498285125,0.00750732,0.00733948,-1.00814819,0.366211,-0.183105,0.000000
6505833791,0.00677490,0.00666809,-1.00718689,0.366211,-0.183105,0.000000
6508355208,0.00677490,0.00666809,-1.00718689,0.305176,-0.183105,0.000000
6515934500,0.00616455,0.00685120,-1.00785828,0.305176,-0.183105,0.000000
6518453250,0.00616455,0.00685120,-1.00785828,0.427246,-0.061035,0.000000
6526060416,0.00640869,0.00732422,-1.00810242,0.427246,-0.061035,0.000000
6528592500,0.00640869,0.00732422,-1.00810242,0.244141,-0.183105,-0.122070
6535805333,0.00726318,0.00740051,-1.00875854,0.244141,-0.183105,-0.122070
6538324333,0.00726318,0.00740051,-1.00875854,0.305176,-0.183105,0.000000
6545907541,0.00625610,0.00787354,-1.00828552,0.305176,-0.183105,0.000000
6548482958,0.00625610,0.00787354,-1.00828552,0.305176,-0.122070,-0.061035
6556059166,0.00674438,0.00788879,-1.00750732,0.305176,-0.122070,-0.061035
6558575833,0.00674438,0.00788879,-1.00750732,0.366211,-0.122070,-0.061035
6566140291,0.00622559,0.00738525,-1.00814819,0.366211,-0.122070,-0.061035
6568730625,0.00622559,0.00738525,-1.00814819,0.305176,-0.122070,0.061035
6576331583,0.00531006,0.00686646,-1.00860596,0.305176,-0.122070,0.061035
6578843791,0.00531006,0.00686646,-1.00860596,0.305176,-0.122070,0.000000
6584038916,0.00599670,0.00665283,-1.00709534,0.305176,-0.122070,0.000000
6589097375,0.00599670,0.00665283,-1.00709534,0.305176,-0.122070,-0.061035
6594223958,0.00732422,0.00750732,-1.00776672,0.305176,-0.122070,-0.061035
6599141041,0.00732422,0.00750732,-1.00776672,0.305176,-0.244141,0.000000
6604201125,0.00645447,0.00765991,-1.00811768,0.305176,-0.244141,0.000000
6609207708,0.00645447,0.00765991,-1.00811768,0.183105,-0.122070,-0.122070
6614261958,0.00660706,0.00704956,-1.00856018,0.183105,-0.122070,-0.122070
6619401583,0.00660706,0.00704956,-1.00856018,0.427246,-0.183105,-0.061035
6624431333,0.00576782,0.00654602,-1.00817871,0.427246,-0.183105,-0.061035
6629489041,0.00576782,0.00654602,-1.00817871,0.305176,-0.183105,0.000000
6634526666,0.00590515,0.00779724,-1.00820923,0.305176,-0.183105,0.000000
6639653833,0.00590515,0.00779724,-1.00820923,0.366211,-0.183105,-0.061035
6644358625,0.00570679,0.00750732,-1.00743103,0.366211,-0.183105,-0.061035
6649399583,0.00570679,0.00750732,-1.00743103,0.305176,-0.061035,0.000000
6654242250,0.00517273,0.00732422,-1.00668335,0.305176,-0.061035,0.000000
6659344208,0.00517273,0.00732422,-1.00668335,0.488281,-0.244141,-0.061035
6664393750,0.00578308,0.00724792,-1.00718689,0.488281,-0.244141,-0.061035
6669422500,0.00578308,0.00724792,-1.00718689,0.305176,-0.183105,-0.122070
6674478208,0.00558472,0.00737000,-1.00697327,0.305176,-0.183105,-0.122070
6679574625,0.00558472,0.00737000,-1.00697327,0.427246,-0.244141,-0.061035
6684658208,0.00575256,0.00808716,-1.00743103,0.427246,-0.244141,-0.061035
6689773708,0.00575256,0.00808716,-1.00743103,0.244141,-0.122070,-0.122070
6694860583,0.00715637,0.00718689,-1.00794983,0.244141,-0.122070,-0.122070
6699926666,0.00715637,0.00718689,-1.00794983,0.366211,-0.244141,-0.061035
6704956291,0.00654602,0.00740051,-1.00813293,0.366211,-0.244141,-0.061035
6710036791,0.00654602,0.00740051,-1.00813293,0.427246,-0.244141,-0.061035
6715139416,0.00575256,0.00817871,-1.00816345,0.427246,-0.244141,-0.061035
6720158791,0.00575256,0.00817871,-1.00816345,0.244141,-0.061035,-0.061035
6725209500,0.00595093,0.00737000,-1.00691223,0.244141,-0.061035,-0.061035
6730251750,0.00595093,0.00737000,-1.00691223,0.366211,-0.183105,0.000000
6735293083,0.00654602,0.00726318,-1.00671387,0.366211,-0.183105,0.000000
6737837708,0.00654602,0.00726318,-1.00671387,0.122070,-0.061035,0.000000
6745410833,0.00621033,0.00724792,-1.00743103,0.122070,-0.061035,0.000000
6747928583,0.00621033,0.00724792,-1.00743103,0.244141,-0.183105,-0.122070
6755524875,0.00640869,0.00619507,-1.00761414,0.244141,-0.183105,-0.122070
6758056416,0.00640869,0.00619507,-1.00761414,0.427246,-0.183105,-0.061035
6765622291,0.00572205,0.00630188,-1.00787354,0.427246,-0.183105,-0.061035
6768137833,0.00572205,0.00630188,-1.00787354,0.305176,-0.183105,-0.061035
6775791250,0.00669861,0.00776672,-1.00794983,0.305176,-0.183105,-0.061035
6778307958,0.00669861,0.00776672,-1.00794983,0.427246,-0.183105,0.000000
6785959916,0.00595093,0.00698853,-1.00811768,0.427246,-0.183105,0.000000
6788473750,0.00595093,0.00698853,-1.00811768,0.183105,-0.061035,-0.061035
6796038541,0.00610352,0.00740051,-1.00721741,0.183105,-0.061035,-0.061035
6798611250,0.00610352,0.00740051,-1.00721741,0.427246,0.000000,-0.061035
6806154875,0.00593567,0.00746155,-1.00665283,0.427246,0.000000,-0.061035
6808724500,0.00593567,0.00746155,-1.00665283,0.305176,-0.244141,-0.122070
6816302250,0.00627136,0.00695801,-1.00743103,0.305176,-0.244141,-0.122070
6818832333,0.00627136,0.00695801,-1.00743103,0.305176,-0.061035,0.061035
6823869958,0.00587463,0.00773621,-1.00813293,0.305176,-0.061035,0.061035
6828896750,0.00587463,0.00773621,-1.00813293,0.244141,-0.183105,-0.122070
6833956541,0.00572205,0.00691223,-1.00843811,0.244141,-0.183105,-0.122070
6838979625,0.00572205,0.00691223,-1.00843811,0.305176,0.000000,-0.183105
6844011916,0.00674438,0.00726318,-1.00711060,0.305176,0.000000,-0.183105
6849074458,0.00674438,0.00726318,-1.00711060,0.427246,-0.122070,-0.122070
6854103416,0.00581360,0.00778198,-1.00779724,0.427246,-0.122070,-0.122070
6859166291,0.00581360,0.00778198,-1.00779724,0.244141,-0.183105,0.000000
6864189208,0.00592041,0.00764465,-1.00808716,0.244141,-0.183105,0.000000
6869248541,0.00592041,0.00764465,-1.00808716,0.244141,-0.244141,-0.122070
6874276375,0.00563049,0.00782776,-1.00752258,0.244141,-0.244141,-0.122070
6879329875,0.00563049,0.00782776,-1.00752258,0.244141,-0.183105,0.000000
6884394166,0.00587463,0.00799561,-1.00781250,0.244141,-0.183105,0.000000
6889435791,0.00587463,0.00799561,-1.00781250,0.305176,-0.061035,0.000000
6894483208,0.00608826,0.00833130,-1.00769043,0.305176,-0.061035,0.000000
6899528916,0.00608826,0.00833130,-1.00769043,0.366211,-0.061035,-0.061035
6904581833,0.00535583,0.00782776,-1.00682068,0.366211,-0.061035,-0.061035
6909603250,0.00535583,0.00782776,-1.00682068,0.427246,-0.122070,-0.061035
6914659208,0.00512695,0.00660706,-1.00811768,0.427246,-0.122070,-0.061035
6919345041,0.00512695,0.00660706,-1.00811768,0.305176,-0.122070,-0.122070
6924383833,0.00521851,0.00729370,-1.00885010,0.305176,-0.122070,-0.122070
6929466291,0.00521851,0.00729370,-1.00885010,0.183105,-0.061035,0.122070
6934493333,0.00680542,0.00727844,-1.00700378,0.183105,-0.061035,0.122070
6939560125,0.00680542,0.00727844,-1.00700378,0.305176,-0.061035,-0.061035
6944631791,0.00700378,0.00712585,-1.00753784,0.305176,-0.061035,-0.061035
6949696375,0.00700378,0.00712585,-1.00753784,0.244141,-0.122070,0.061035
6954854750,0.00651550,0.00740051,-1.00761414,0.244141,-0.122070,0.061035
6959904791,0.00651550,0.00740051,-1.00761414,0.244141,-0.061035,0.000000
6964622583,0.00660706,0.00663757,-1.00790405,0.244141,-0.061035,0.000000
6969654250,0.00660706,0.00663757,-1.00790405,0.366211,-0.183105,0.000000
6974682375,0.00747681,0.00784302,-1.00823975,0.366211,-0.183105,0.000000
6979755083,0.00747681,0.00784302,-1.00823975,0.366211,-0.061035,0.000000
6984476625,0.00686646,0.00840759,-1.00886536,0.366211,-0.061035,0.000000
6989538458,0.00686646,0.00840759,-1.00886536,0.305176,-0.122070,-0.061035
6994602250,0.00555420,0.00765991,-1.00894165,0.305176,-0.122070,-0.061035
6999658291,0.00555420,0.00765991,-1.00894165,0.366211,-0.183105,-0.122070
7004773500,0.00479126,0.00718689,-1.00770569,0.366211,-0.183105,-0.122070
7009796666,0.00479126,0.00718689,-1.00770569,0.305176,-0.061035,0.061035
7014890125,0.00563049,0.00762939,-1.00828552,0.305176,-0.061035,0.061035
7019834541,0.00563049,0.00762939,-1.00828552,0.366211,-0.183105,0.000000
7024977541,0.00584412,0.00770569,-1.00830078,0.366211,-0.183105,0.000000
7030036250,0.00584412,0.00770569,-1.00830078,0.366211,-0.122070,-0.183105
7035068291,0.00717163,0.00744629,-1.00630188,0.366211,-0.122070,-0.183105
7040200083,0.00717163,0.00744629,-1.00630188,0.305176,0.000000,0.000000
7045259791,0.00617981,0.00677490,-1.00791931,0.305176,0.000000,0.000000
7047833125,0.00617981,0.00677490,-1.00791931,0.305176,-0.122070,0.000000
7055104083,0.00665283,0.00642395,-1.00892639,0.305176,-0.122070,0.000000
7060162958,0.00665283,0.00642395,-1.00892639,0.305176,-0.183105,-0.183105
7065190333,0.00689697,0.00689697,-1.00859070,0.305176,-0.183105,-0.183105
7070210208,0.00689697,0.00689697,-1.00859070,0.366211,-0.122070,-0.061035
7075331333,0.00508118,0.00733948,-1.00781250,0.366211,-0.122070,-0.061035
7077846000,0.00508118,0.00733948,-1.00781250,0.427246,-0.122070,-0.183105
7085421458,0.00573730,0.00666809,-1.00738525,0.427246,-0.122070,-0.183105
7087946916,0.00573730,0.00666809,-1.00738525,0.366211,-0.122070,-0.061035
7095509583,0.00595093,0.00743103,-1.00837708,0.366211,-0.122070,-0.061035
7098075666,0.00595093,0.00743103,-1.00837708,0.366211,-0.183105,-0.122070
7105629833,0.00669861,0.00724792,-1.00859070,0.366211,-0.183105,-0.122070
7108179291,0.00669861,0.00724792,-1.00859070,0.244141,-0.305176,-0.061035
7115739166,0.00633240,0.00752258,-1.00659180,0.244141,-0.305176,-0.061035
7118253166,0.00633240,0.00752258,-1.00659180,0.244141,-0.183105,-0.122070
7125833208,0.00535583,0.00753784,-1.00756836,0.244141,-0.183105,-0.122070
7128347833,0.00535583,0.00753784,-1.00756836,0.366211,-0.183105,0.000000
7135932500,0.00578308,0.00769043,-1.00839233,0.366211,-0.183105,0.000000
7138490916,0.00578308,0.00769043,-1.00839233,0.366211,-0.122070,0.000000
7146101458,0.00592041,0.00759888,-1.00730896,0.366211,-0.122070,0.000000
7148634500,0.00592041,0.00759888,-1.00730896,0.183105,-0.244141,-0.061035
7155879833,0.00627136,0.00802612,-1.00775146,0.183105,-0.244141,-0.061035
7158413833,0.00627136,0.00802612,-1.00775146,0.366211,-0.061035,-0.061035
7166042333,0.00653076,0.00804138,-1.00779724,0.366211,-0.061035,-0.061035
7168556916,0.00653076,0.00804138,-1.00779724,0.366211,-0.061035,-0.122070
7176110333,0.00679016,0.00798035,-1.00848389,0.366211,-0.061035,-0.122070
7178626375,0.00679016,0.00798035,-1.00848389,0.366211,-0.122070,-0.244141
7186207250,0.00646973,0.00682068,-1.00718689,0.366211,-0.122070,-0.244141
7188722958,0.00646973,0.00682068,-1.00718689,0.488281,-0.122070,-0.122070
7196390583,0.00660706,0.00686646,-1.00776672,0.488281,-0.122070,-0.122070
7198906958,0.00660706,0.00686646,-1.00776672,0.427246,-0.122070,-0.122070
7206532166,0.00631714,0.00730896,-1.00869751,0.427246,-0.122070,-0.122070
7209071750,0.00631714,0.00730896,-1.00869751,0.366211,0.000000,-0.061035
7214113333,0.00628662,0.00755310,-1.00782776,0.366211,0.000000,-0.061035
7219191041,0.00628662,0.00755310,-1.00782776,0.305176,-0.183105,-0.122070
7224213166,0.00640869,0.00697327,-1.00784302,0.305176,-0.183105,-0.122070
7229268291,0.00640869,0.00697327,-1.00784302,0.183105,-0.183105,-0.061035
7234309708,0.00645447,0.00764465,-1.00782776,0.183105,-0.183105,-0.061035
7239342625,0.00645447,0.00764465,-1.00782776,0.305176,-0.122070,-0.061035
7244404708,0.00639343,0.00793457,-1.00779724,0.305176,-0.122070,-0.061035
7249446583,0.00639343,0.00793457,-1.00779724,0.122070,-0.122070,-0.122070
7254537125,0.00689697,0.00744629,-1.00759888,0.122070,-0.122070,-0.122070
7259558833,0.00689697,0.00744629,-1.00759888,0.122070,-0.061035,-0.122070
7264598833,0.00654602,0.00895691,-1.00692749,0.122070,-0.061035,-0.122070
7269693458,0.00654602,0.00895691,-1.00692749,0.366211,-0.183105,-0.061035
7274723708,0.00608826,0.00801086,-1.00732422,0.366211,-0.183105,-0.061035
7279779000,0.00608826,0.00801086,-1.00732422,0.427246,-0.061035,0.000000
7284808666,0.00625610,0.00701904,-1.00765991,0.427246,-0.061035,0.000000
7289909750,0.00625610,0.00701904,-1.00765991,0.305176,-0.183105,-0.183105
7294934708,0.00669861,0.00674438,-1.00758362,0.305176,-0.183105,-0.183105
7299854750,0.00669861,0.00674438,-1.00758362,0.366211,-0.183105,-0.061035
7304897791,0.00598145,0.00738525,-1.00729370,0.366211,-0.183105,-0.061035
7309923583,0.00598145,0.00738525,-1.00729370,0.488281,-0.122070,0.061035
7315008750,0.00619507,0.00737000,-1.00814819,0.488281,-0.122070,0.061035
7320034291,0.00619507,0.00737000,-1.00814819,0.427246,-0.122070,0.000000
7325116333,0.00665283,0.00737000,-1.00827026,0.427246,-0.122070,0.000000
7329853791,0.00665283,0.00737000,-1.00827026,0.244141,-0.122070,0.000000
7334882416,0.00715637,0.00703430,-1.00784302,0.244141,-0.122070,0.000000
7339561375,0.00715637,0.00703430,-1.00784302,0.305176,-0.183105,0.061035
7344585625,0.00672913,0.00614929,-1.00878906,0.305176,-0.183105,0.061035
7349641708,0.00672913,0.00614929,-1.00878906,0.305176,-0.244141,-0.061035
7354673958,0.00769043,0.00694275,-1.00828552,0.305176,-0.244141,-0.061035
7359738000,0.00769043,0.00694275,-1.00828552,0.305176,-0.122070,-0.061035
7364787166,0.00677490,0.00730896,-1.00738525,0.305176,-0.122070,-0.061035
7369832291,0.00677490,0.00730896,-1.00738525,0.183105,-0.122070,0.000000
7374897333,0.00677490,0.00680542,-1.00686646,0.183105,-0.122070,0.000000
7379932000,0.00677490,0.00680542,-1.00686646,0.183105,-0.061035,-0.244141
7384962875,0.00679016,0.00704956,-1.00886536,0.183105,-0.061035,-0.244141
7390006000,0.00679016,0.00704956,-1.00886536,0.488281,-0.183105,-0.061035
7395065208,0.00613403,0.00772095,-1.00759888,0.488281,-0.183105,-0.061035
7400036416,0.00613403,0.00772095,-1.00759888,0.427246,-0.244141,0.000000
7405062875,0.00646973,0.00645447,-1.00657654,0.427246,-0.244141,0.000000
7410155000,0.00646973,0.00645447,-1.00657654,0.244141,-0.122070,0.000000
7415178291,0.00617981,0.00715637,-1.00724792,0.244141,-0.122070,0.000000
7420237541,0.00617981,0.00715637,-1.00724792,0.366211,-0.122070,-0.122070
7425321375,0.00616455,0.00765991,-1.00932312,0.366211,-0.122070,-0.122070
7430350625,0.00616455,0.00765991,-1.00932312,0.305176,-0.061035,0.061035
7435384625,0.00538635,0.00733948,-1.00891113,0.305176,-0.061035,0.061035
7437901083,0.00538635,0.00733948,-1.00891113,0.244141,-0.122070,-0.061035
7445532833,0.00631714,0.00790405,-1.00802612,0.244141,-0.122070,-0.061035
7448062791,0.00631714,0.00790405,-1.00802612,0.366211,-0.244141,0.000000
7455626666,0.00657654,0.00752258,-1.00837708,0.366211,-0.244141,0.000000
7458166125,0.00657654,0.00752258,-1.00837708,0.305176,-0.183105,-0.061035
7465728291,0.00512695,0.00711060,-1.00817871,0.305176,-0.183105,-0.061035
7470373000,0.00512695,0.00711060,-1.00817871,0.305176,-0.183105,-0.122070
7475410333,0.00590515,0.00706482,-1.00775146,0.305176,-0.183105,-0.122070
7477931208,0.00590515,0.00706482,-1.00775146,0.305176,-0.183105,-0.061035
7485544208,0.00697327,0.00682068,-1.00834656,0.305176,-0.183105,-0.061035
7488066250,0.00697327,0.00682068,-1.00834656,0.183105,-0.183105,0.061035
7495629666,0.00611877,0.00619507,-1.00837708,0.183105,-0.183105,0.061035
7498190333,0.00611877,0.00619507,-1.00837708,0.244141,-0.183105,0.061035
7505733166,0.00631714,0.00639343,-1.00773621,0.244141,-0.183105,0.061035
7508252291,0.00631714,0.00639343,-1.00773621,0.305176,-0.122070,0.000000
7515830916,0.00621033,0.00735474,-1.00762939,0.305176,-0.122070,0.000000
7518378875,0.00621033,0.00735474,-1.00762939,0.305176,-0.244141,0.000000
7525929583,0.00561523,0.00723267,-1.00834656,0.305176,-0.244141,0.000000
7528473125,0.00561523,0.00723267,-1.00834656,0.488281,-0.122070,0.000000
7535808750,0.00578308,0.00689697,-1.00901794,0.488281,-0.122070,0.000000
7538335041,0.00578308,0.00689697,-1.00901794,0.427246,-0.122070,-0.122070
7545881500,0.00520325,0.00744629,-1.00744629,0.427246,-0.122070,-0.122070
7548419208,0.00520325,0.00744629,-1.00744629,0.366211,-0.183105,0.000000
7555998458,0.00654602,0.00764465,-1.00781250,0.366211,-0.183105,0.000000
7558516500,0.00654602,0.00764465,-1.00781250,0.183105,-0.183105,0.000000
7566145750,0.00648499,0.00744629,-1.00868225,0.183105,-0.183105,0.000000
7568704208,0.00648499,0.00744629,-1.00868225,0.366211,0.000000,-0.122070
7576251833,0.00567627,0.00695801,-1.00856018,0.366211,0.000000,-0.122070
7578832666,0.00567627,0.00695801,-1.00856018,0.427246,-0.061035,0.000000
7586403666,0.00642395,0.00747681,-1.00682068,0.427246,-0.061035,0.000000
7588929000,0.00642395,0.00747681,-1.00682068,0.305176,-0.183105,-0.244141
7596474458,0.00593567,0.00801086,-1.00704956,0.305176,-0.183105,-0.244141
7599014750,0.00593567,0.00801086,-1.00704956,0.183105,0.000000,0.000000
7606565583,0.00593567,0.00724792,-1.00756836,0.183105,0.000000,0.000000
7609079291,0.00593567,0.00724792,-1.00756836,0.366211,-0.061035,-0.061035
7616672750,0.00672913,0.00743103,-1.00642395,0.366211,-0.061035,-0.061035
7619190500,0.00672913,0.00743103,-1.00642395,0.183105,-0.183105,-0.122070
7626774583,0.00624084,0.00741577,-1.00762939,0.183105,-0.183105,-0.122070
7629287625,0.00624084,0.00741577,-1.00762939,0.244141,-0.122070,-0.061035
7636836125,0.00605774,0.00724792,-1.00914001,0.244141,-0.122070,-0.061035
7639350000,0.00605774,0.00724792,-1.00914001,0.305176,-0.244141,-0.183105
7644372583,0.00625610,0.00733948,-1.00872803,0.305176,-0.244141,-0.183105
7649512250,0.00625610,0.00733948,-1.00872803,0.305176,-0.122070,0.061035
7654555208,0.00657654,0.00726318,-1.00744629,0.305176,-0.122070,0.061035
7659609833,0.00657654,0.00726318,-1.00744629,0.488281,-0.183105,-0.061035
7664638541,0.00715637,0.00669861,-1.00904846,0.488281,-0.183105,-0.061035
7669736291,0.00715637,0.00669861,-1.00904846,0.305176,-0.366211,-0.061035
7674778833,0.00552368,0.00730896,-1.00796509,0.305176,-0.366211,-0.061035
7679824083,0.00552368,0.00730896,-1.00796509,0.305176,-0.061035,-0.122070
7684868125,0.00518799,0.00682068,-1.00758362,0.305176,-0.061035,-0.122070
7689928916,0.00518799,0.00682068,-1.00758362,0.305176,-0.122070,0.000000
7694951000,0.00572205,0.00755310,-1.00749207,0.305176,-0.122070,0.000000
7699859333,0.00572205,0.00755310,-1.00749207,0.427246,-0.122070,0.000000
7704886583,0.00567627,0.00808716,-1.00747681,0.427246,-0.122070,0.000000
7709966958,0.00567627,0.00808716,-1.00747681,0.305176,-0.122070,-0.122070
7715003625,0.00689697,0.00775146,-1.00776672,0.305176,-0.122070,-0.122070
7720127916,0.00689697,0.00775146,-1.00776672,0.183105,-0.183105,0.000000
7725168958,0.00735474,0.00778198,-1.00743103,0.183105,-0.183105,0.000000
7730223333,0.00735474,0.00778198,-1.00743103,0.305176,-0.244141,0.061035
7735296958,0.00653076,0.00715637,-1.00743103,0.305176,-0.244141,0.061035
7740330250,0.00653076,0.00715637,-1.00743103,0.305176,-0.183105,-0.122070
7745440958,0.00566101,0.00689697,-1.00856018,0.305176,-0.183105,-0.122070
7750462791,0.00566101,0.00689697,-1.00856018,0.366211,-0.061035,-0.061035
7755481625,0.00489807,0.00804138,-1.00704956,0.366211,-0.061035,-0.061035
7760543041,0.00489807,0.00804138,-1.00704956,0.366211,-0.183105,-0.061035
7765599833,0.00593567,0.00790405,-1.00776672,0.366211,-0.183105,-0.061035
7770750500,0.00593567,0.00790405,-1.00776672,0.305176,-0.183105,-0.122070
7775541666,0.00656128,0.00646973,-1.00813293,0.305176,-0.183105,-0.122070
7780656291,0.00656128,0.00646973,-1.00813293,0.305176,-0.305176,0.000000
7785741041,0.00578308,0.00701904,-1.00909424,0.305176,-0.305176,0.000000
7788257041,0.00578308,0.00701904,-1.00909424,0.427246,-0.122070,-0.061035
7795851625,0.00498962,0.00709534,-1.00857544,0.427246,-0.122070,-0.061035
7798409416,0.00498962,0.00709534,-1.00857544,0.366211,-0.122070,0.000000
7805999708,0.00698853,0.00733948,-1.00784302,0.366211,-0.122070,0.000000
7808292125,0.00698853,0.00733948,-1.00784302,0.183105,-0.183105,0.061035
7815873791,0.00672913,0.00733948,-1.00805664,0.183105,-0.183105,0.061035
7818421416,0.00672913,0.00733948,-1.00805664,0.305176,-0.183105,0.061035
7826029625,0.00598145,0.00714111,-1.00808716,0.305176,-0.183105,0.061035
7828666875,0.00598145,0.00714111,-1.00808716,0.305176,-0.305176,-0.061035
7835908541,0.00625610,0.00752258,-1.00720215,0.305176,-0.305176,-0.061035
7838432000,0.00625610,0.00752258,-1.00720215,0.366211,-0.183105,-0.061035
7845849958,0.00552368,0.00779724,-1.00685120,0.366211,-0.183105,-0.061035
7848374916,0.00552368,0.00779724,-1.00685120,0.366211,-0.061035,-0.061035
7855949916,0.00552368,0.00749207,-1.00761414,0.366211,-0.061035,-0.061035
7858477458,0.00552368,0.00749207,-1.00761414,0.427246,-0.122070,0.061035
7865812708,0.00642395,0.00648499,-1.00813293,0.427246,-0.122070,0.061035
7868339041,0.00642395,0.00648499,-1.00813293,0.366211,-0.183105,0.000000
7875870083,0.00733948,0.00752258,-1.00737000,0.366211,-0.183105,0.000000
7878392458,0.00733948,0.00752258,-1.00737000,0.305176,-0.244141,-0.061035
7885950125,0.00643921,0.00718689,-1.00721741,0.305176,-0.244141,-0.061035
7888477458,0.00643921,0.00718689,-1.00721741,0.183105,-0.244141,0.000000
7896046000,0.00611877,0.00691223,-1.00819397,0.183105,-0.244141,0.000000
7898573875,0.00611877,0.00691223,-1.00819397,0.305176,-0.061035,0.000000
7906122791,0.00637817,0.00770569,-1.00788879,0.305176,-0.061035,0.000000
7908647166,0.00637817,0.00770569,-1.00788879,0.366211,-0.183105,-0.061035
7915987583,0.00559998,0.00685120,-1.00910950,0.366211,-0.183105,-0.061035
7918526791,0.00559998,0.00685120,-1.00910950,0.366211,-0.183105,0.000000
7926111250,0.00680542,0.00694275,-1.00840759,0.366211,-0.183105,0.000000
7928642916,0.00680542,0.00694275,-1.00840759,0.244141,-0.183105,-0.122070
7935991041,0.00570679,0.00704956,-1.00743103,0.244141,-0.183105,-0.122070
7938437333,0.00570679,0.00704956,-1.00743103,0.366211,-0.183105,-0.061035
7945852708,0.00559998,0.00747681,-1.00746155,0.366211,-0.183105,-0.061035
7948374166,0.00559998,0.00747681,-1.00746155,0.244141,-0.122070,-0.061035
7955553416,0.00666809,0.00686646,-1.00917053,0.244141,-0.122070,-0.061035
7960605833,0.00666809,0.00686646,-1.00917053,0.244141,-0.122070,-0.122070
7965370375,0.00573730,0.00688171,-1.00810242,0.244141,-0.122070,-0.122070
7970004791,0.00573730,0.00688171,-1.00810242,0.244141,-0.183105,0.000000
7975032875,0.00646973,0.00791931,-1.00654602,0.244141,-0.183105,0.000000
7979803625,0.00646973,0.00791931,-1.00654602,0.305176,-0.244141,0.061035
7984864166,0.00559998,0.00709534,-1.00729370,0.305176,-0.244141,0.061035
7989691791,0.00559998,0.00709534,-1.00729370,0.366211,-0.122070,0.000000
7997252250,0.00599670,0.00729370,-1.00712585,0.366211,-0.122070,0.000000
7999799583,0.00599670,0.00729370,-1.00712585,-0.183105,-0.366211,-0.122070
8004837416,0.00364685,0.00590515,-0.99858093,-0.183105,-0.366211,-0.122070
8009870250,0.00364685,0.00590515,-0.99858093,0.915527,-0.244141,0.000000
8014897000,0.00654602,0.00978088,-1.02960205,0.915527,-0.244141,0.000000
8019934958,0.00654602,0.00978088,-1.02960205,0.122070,-0.061035,0.000000
8024971083,0.00604248,0.00871277,-0.99119568,0.122070,-0.061035,0.000000
8029611166,0.00604248,0.00871277,-0.99119568,0.549316,-0.122070,-0.061035
8037179625,0.00692749,0.00743103,-1.00720215,0.549316,-0.122070,-0.061035
8039717333,0.00692749,0.00743103,-1.00720215,0.122070,-0.244141,-0.183105
8047290000,0.00750732,0.00717163,-1.01405334,0.122070,-0.244141,-0.183105
8049845125,0.00750732,0.00717163,-1.01405334,0.549316,-0.244141,0.122070
8057073375,0.00608826,0.00608826,-1.00828552,0.549316,-0.244141,0.122070
8059329708,0.00608826,0.00608826,-1.00828552,0.061035,-0.122070,-0.061035
8066898666,0.00521851,0.00639343,-1.00428772,0.061035,-0.122070,-0.061035
8069433208,0.00521851,0.00639343,-1.00428772,0.366211,-0.122070,-0.061035
8076985625,0.00738525,0.00648499,-1.01031494,0.366211,-0.122070,-0.061035
8079510625,0.00738525,0.00648499,-1.01031494,0.244141,-0.305176,-0.061035
8087127958,0.00642395,0.00726318,-1.00585938,0.244141,-0.305176,-0.061035
8089655416,0.00642395,0.00726318,-1.00585938,0.305176,-0.244141,0.000000
8097199083,0.00741577,0.00804138,-1.00939941,0.305176,-0.244141,0.000000
8099782291,0.00741577,0.00804138,-1.00939941,0.732422,-0.671387,-0.061035
8107359666,0.00581360,0.00605774,-1.00352478,0.732422,-0.671387,-0.061035
8109876250,0.00581360,0.00605774,-1.00352478,0.549316,0.305176,-0.122070
8114978125,0.00643921,0.00720215,-1.01065063,0.549316,0.305176,-0.122070
8120009625,0.00643921,0.00720215,-1.01065063,0.000000,-0.183105,0.000000
8125042750,0.00509644,0.00860596,-1.00729370,0.000000,-0.183105,0.000000
8130085583,0.00509644,0.00860596,-1.00729370,0.183105,-0.244141,-0.061035
8135118041,0.00575256,0.00825500,-1.00621033,0.183105,-0.244141,-0.061035
8140243333,0.00575256,0.00825500,-1.00621033,-0.305176,0.000000,-0.061035
8145272916,0.00752258,0.00669861,-1.00309753,-0.305176,0.000000,-0.061035
8150348208,0.00752258,0.00669861,-1.00309753,0.854492,-0.427246,0.000000
8155419041,0.00749207,0.00933838,-1.01873779,0.854492,-0.427246,0.000000
8160442000,0.00749207,0.00933838,-1.01873779,0.305176,0.000000,-0.244141
8165491750,0.00592041,0.00787354,-0.99745178,0.305176,0.000000,-0.244141
8170517916,0.00592041,0.00787354,-0.99745178,0.549316,-0.122070,0.061035
8175579666,0.00596619,0.00782776,-1.01042175,0.549316,-0.122070,0.061035
8180652750,0.00596619,0.00782776,-1.01042175,0.366211,-0.244141,-0.061035
8185681416,0.00555420,0.00761414,-1.00759888,0.366211,-0.244141,-0.061035
8190772708,0.00555420,0.00761414,-1.00759888,0.427246,-0.366211,-0.061035
8195837375,0.00502014,0.00769043,-1.00633240,0.427246,-0.366211,-0.061035
8200887083,0.00502014,0.00769043,-1.00633240,0.305176,0.122070,-0.122070
