timestamp_ns,accel_x,accel_y,accel_z,gyro_x,gyro_y,gyro_z
184580875,0.00000000,0.00000000,0.00000000,0.305176,-0.244141,-0.061035
187107291,0.00466919,0.00793457,-1.00761414,0.305176,-0.244141,-0.061035
202701125,0.00558472,0.00820923,-1.00921631,0.305176,-0.244141,-0.061035
208593458,0.00601196,0.00808716,-1.00917053,0.427246,-0.122070,-0.061035
208598666,0.00601196,0.00808716,-1.00917053,0.244141,-0.183105,-0.061035
214469583,0.00505066,0.00762939,-1.00732422,0.244141,-0.183105,-0.061035
217000541,0.00505066,0.00762939,-1.00732422,0.427246,-0.244141,0.000000
232950291,0.00744629,0.00653076,-1.00852966,0.366211,-0.244141,0.000000
232955916,0.00765991,0.00625610,-1.00769043,0.366211,-0.244141,0.000000
247076625,0.00715637,0.00636292,-1.00715637,0.244141,-0.183105,-0.061035
270006458,0.00715637,0.00636292,-1.00715637,0.427246,-0.122070,-0.061035
274380875,0.00737000,0.00650024,-1.00717163,0.244141,-0.183105,0.000000
274384833,0.00584412,0.00628662,-1.00883484,0.305176,-0.061035,-0.061035
281235583,0.00579834,0.00682068,-1.00840759,0.305176,-0.061035,-0.244141
303305875,0.00611877,0.00726318,-1.00758362,0.122070,-0.122070,0.000000
309836375,0.00639343,0.00689697,-1.00798035,0.122070,-0.122070,0.000000
309842916,0.00526428,0.00688171,-1.00747681,0.122070,-0.122070,0.000000
316310166,0.00526428,0.00688171,-1.00747681,0.244141,0.000000,-0.183105
323305583,0.00621033,0.00759888,-1.00778198,0.427246,-0.122070,-0.061035
323312625,0.00621033,0.00759888,-1.00778198,0.366211,-0.305176,-0.183105
329629500,0.00659180,0.00827026,-1.00801086,0.305176,-0.183105,-0.122070
335850250,0.00674438,0.00744629,-1.00871277,0.305176,-0.183105,-0.122070
338398375,0.00674438,0.00744629,-1.00871277,0.366211,-0.305176,-0.122070
345226208,0.00622559,0.00733948,-1.00741577,0.427246,-0.183105,-0.122070
358896625,0.00697327,0.00747681,-1.00682068,0.305176,-0.183105,0.061035
368880958,0.00720215,0.00642395,-1.00781250,0.366211,-0.183105,-0.061035
395836583,0.00654602,0.00669861,-1.00866699,0.366211,-0.183105,-0.061035
398848750,0.00654602,0.00669861,-1.00866699,0.305176,-0.122070,0.000000
398854291,0.00654602,0.00669861,-1.00866699,0.427246,0.000000,-0.061035
406538125,0.00701904,0.00656128,-1.00857544,0.427246,-0.244141,-0.061035
406544333,0.00624084,0.00630188,-1.00794983,0.427246,-0.244141,-0.061035
409330833,0.00607300,0.00631714,-1.00823975,0.366211,-0.244141,-0.122070
419107375,0.00619507,0.00614929,-1.00750732,0.366211,-0.244141,-0.061035
429777208,0.00654602,0.00726318,-1.00805664,0.305176,-0.061035,0.000000
435354375,0.00688171,0.00772095,-1.00811768,0.305176,-0.122070,-0.183105
445653958,0.00718689,0.00724792,-1.00811768,0.183105,-0.183105,0.000000
453645666,0.00712585,0.00717163,-1.00805664,0.183105,-0.183105,0.000000
456190500,0.00712585,0.00717163,-1.00805664,0.305176,-0.122070,0.061035
463777916,0.00726318,0.00724792,-1.00759888,0.305176,-0.122070,0.061035
466358333,0.00726318,0.00724792,-1.00759888,0.366211,-0.183105,-0.061035
473931541,0.00556946,0.00721741,-1.00779724,0.366211,-0.122070,-0.122070
484014000,0.00613403,0.00682068,-1.00752258,0.244141,-0.122070,0.000000
494103833,0.00518799,0.00679016,-1.00805664,0.305176,-0.122070,-0.122070
501671833,0.00642395,0.00657654,-1.00732422,0.305176,-0.122070,-0.122070
504196583,0.00642395,0.00657654,-1.00732422,0.366211,-0.061035,-0.122070
511767750,0.00697327,0.00634766,-1.00749207,0.366211,-0.061035,-0.122070
514295708,0.00697327,0.00634766,-1.00749207,0.366211,-0.244141,0.000000
521871416,0.00674438,0.00708008,-1.00845337,0.366211,-0.244141,0.000000
524404875,0.00674438,0.00708008,-1.00845337,0.305176,-0.061035,0.061035
532029500,0.00695801,0.00570679,-1.00814819,0.305176,-0.061035,0.061035
534593666,0.00695801,0.00570679,-1.00814819,0.427246,-0.183105,-0.061035
542161416,0.00700378,0.00611877,-1.00854492,0.427246,-0.183105,-0.061035
544690041,0.00700378,0.00611877,-1.00854492,0.488281,-0.061035,0.000000
552324291,0.00672913,0.00668335,-1.00878906,0.488281,-0.061035,0.000000
554855500,0.00672913,0.00668335,-1.00878906,0.305176,-0.122070,0.000000
562410041,0.00656128,0.00598145,-1.00784302,0.305176,-0.122070,0.000000
564944083,0.00656128,0.00598145,-1.00784302,0.366211,-0.122070,-0.061035
572508875,0.00677490,0.00650024,-1.00827026,0.366211,-0.122070,-0.061035
575037000,0.00677490,0.00650024,-1.00827026,0.244141,-0.244141,-0.061035
582602833,0.00639343,0.00704956,-1.00917053,0.244141,-0.244141,-0.061035
585124500,0.00639343,0.00704956,-1.00917053,0.305176,-0.183105,0.000000
592672375,0.00628662,0.00715637,-1.00750732,0.305176,-0.183105,0.000000
595205750,0.00628662,0.00715637,-1.00750732,0.305176,-0.183105,0.000000
602774833,0.00563049,0.00758362,-1.00651550,0.305176,-0.183105,0.000000
605351041,0.00563049,0.00758362,-1.00651550,0.305176,-0.061035,0.000000
612901666,0.00532532,0.00737000,-1.00805664,0.305176,-0.061035,0.000000
615420291,0.00532532,0.00737000,-1.00805664,0.305176,-0.183105,0.000000
622587041,0.00555420,0.00769043,-1.00778198,0.305176,-0.183105,0.000000
625105916,0.00555420,0.00769043,-1.00778198,0.244141,-0.183105,0.000000
632649333,0.00621033,0.00796509,-1.00791931,0.244141,-0.183105,0.000000
635170458,0.00621033,0.00796509,-1.00791931,0.244141,-0.183105,-0.061035
642770083,0.00659180,0.00721741,-1.00828552,0.244141,-0.183105,-0.061035
645294791,0.00659180,0.00721741,-1.00828552,0.488281,-0.183105,0.061035
652884666,0.00625610,0.00711060,-1.00781250,0.488281,-0.183105,0.061035
655407791,0.00625610,0.00711060,-1.00781250,0.244141,-0.244141,0.000000
662481875,0.00656128,0.00657654,-1.00830078,0.244141,-0.244141,0.000000
664999250,0.00656128,0.00657654,-1.00830078,0.305176,-0.061035,0.000000
672348708,0.00646973,0.00569153,-1.00952148,0.305176,-0.061035,0.000000
674865041,0.00646973,0.00569153,-1.00952148,0.366211,-0.183105,-0.183105
682462916,0.00576782,0.00656128,-1.00810242,0.366211,-0.183105,-0.183105
684538833,0.00576782,0.00656128,-1.00810242,0.366211,-0.244141,0.000000
692140916,0.00706482,0.00704956,-1.00778198,0.366211,-0.244141,0.000000
694684250,0.00706482,0.00704956,-1.00778198,0.427246,-0.244141,-0.061035
701870625,0.00730896,0.00654602,-1.00704956,0.427246,-0.244141,-0.061035
704422583,0.00730896,0.00654602,-1.00704956,0.366211,-0.244141,0.000000
711903916,0.00727844,0.00549316,-1.00843811,0.366211,-0.244141,0.000000
714430083,0.00727844,0.00549316,-1.00843811,0.427246,-0.244141,-0.061035
721941416,0.00744629,0.00654602,-1.00784302,0.427246,-0.244141,-0.061035
724475875,0.00744629,0.00654602,-1.00784302,0.183105,-0.183105,-0.061035
732046666,0.00746155,0.00689697,-1.00828552,0.183105,-0.183105,-0.061035
734588791,0.00746155,0.00689697,-1.00828552,0.122070,-0.366211,-0.061035
742226208,0.00622559,0.00694275,-1.00743103,0.122070,-0.366211,-0.061035
744849958,0.00622559,0.00694275,-1.00743103,0.305176,-0.061035,0.000000
752015583,0.00646973,0.00715637,-1.00761414,0.305176,-0.061035,0.000000
754563458,0.00646973,0.00715637,-1.00761414,0.305176,-0.061035,-0.122070
762143625,0.00576782,0.00709534,-1.00729370,0.305176,-0.061035,-0.122070
764674000,0.00576782,0.00709534,-1.00729370,0.488281,-0.122070,0.000000
772324000,0.00578308,0.00633240,-1.00863647,0.488281,-0.122070,0.000000
774591125,0.00578308,0.00633240,-1.00863647,0.427246,-0.183105,-0.061035
782194375,0.00552368,0.00680542,-1.00857544,0.427246,-0.183105,-0.061035
784752000,0.00552368,0.00680542,-1.00857544,0.427246,-0.244141,-0.061035
792096500,0.00561523,0.00740051,-1.00727844,0.427246,-0.244141,-0.061035
794630708,0.00561523,0.00740051,-1.00727844,0.366211,-0.122070,0.061035
802261041,0.00614929,0.00709534,-1.00743103,0.366211,-0.122070,0.061035
804840791,0.00614929,0.00709534,-1.00743103,0.244141,-0.305176,0.000000
812448958,0.00627136,0.00688171,-1.00854492,0.244141,-0.305176,0.000000
814996041,0.00627136,0.00688171,-1.00854492,0.488281,-0.183105,0.061035
822600708,0.00585938,0.00730896,-1.00695801,0.488281,-0.183105,0.061035
825150208,0.00585938,0.00730896,-1.00695801,0.305176,-0.183105,-0.061035
832758000,0.00531006,0.00671387,-1.00762939,0.305176,-0.183105,-0.061035
834921208,0.00531006,0.00671387,-1.00762939,0.244141,-0.305176,-0.122070
842398500,0.00614929,0.00700378,-1.00805664,0.244141,-0.305176,-0.122070
844546125,0.00614929,0.00700378,-1.00805664,0.244141,-0.244141,-0.122070
852187083,0.00633240,0.00704956,-1.00743103,0.244141,-0.244141,-0.122070
854744916,0.00633240,0.00704956,-1.00743103,0.305176,-0.244141,0.000000
862062833,0.00595093,0.00674438,-1.00782776,0.305176,-0.244141,0.000000
866836458,0.00595093,0.00674438,-1.00782776,0.366211,-0.122070,-0.061035
874129458,0.00569153,0.00706482,-1.00813293,0.366211,-0.122070,-0.061035
876555416,0.00569153,0.00706482,-1.00813293,0.305176,-0.183105,0.000000
881715166,0.00590515,0.00666809,-1.00907898,0.305176,-0.183105,0.000000
886562541,0.00590515,0.00666809,-1.00907898,0.427246,-0.122070,0.061035
894187458,0.00692749,0.00715637,-1.00851440,0.427246,-0.122070,0.061035
896735416,0.00692749,0.00715637,-1.00851440,0.366211,-0.183105,0.061035
904081750,0.00697327,0.00735474,-1.00761414,0.366211,-0.183105,0.061035
906415500,0.00697327,0.00735474,-1.00761414,0.305176,-0.122070,0.061035
914040958,0.00639343,0.00764465,-1.00682068,0.305176,-0.122070,0.061035
916590583,0.00639343,0.00764465,-1.00682068,0.244141,-0.183105,-0.183105
923747916,0.00651550,0.00770569,-1.00794983,0.244141,-0.183105,-0.183105
926321958,0.00651550,0.00770569,-1.00794983,0.183105,0.000000,-0.122070
933499791,0.00642395,0.00704956,-1.00848389,0.183105,0.000000,-0.122070
936065125,0.00642395,0.00704956,-1.00848389,0.305176,-0.244141,0.000000
943723291,0.00677490,0.00720215,-1.00814819,0.305176,-0.244141,0.000000
946282541,0.00677490,0.00720215,-1.00814819,0.427246,-0.122070,0.061035
953719916,0.00762939,0.00599670,-1.00677490,0.427246,-0.122070,0.061035
956235541,0.00762939,0.00599670,-1.00677490,0.183105,-0.183105,-0.061035
963861666,0.00622559,0.00610352,-1.00767517,0.183105,-0.183105,-0.061035
966408958,0.00622559,0.00610352,-1.00767517,0.366211,-0.183105,-0.122070
974064875,0.00645447,0.00674438,-1.00794983,0.366211,-0.183105,-0.122070
976618166,0.00645447,0.00674438,-1.00794983,0.427246,-0.061035,-0.061035
984218625,0.00714111,0.00672913,-1.00814819,0.427246,-0.061035,-0.061035
986814458,0.00714111,0.00672913,-1.00814819,0.366211,-0.183105,0.061035
991892166,0.00762939,0.00682068,-1.00721741,0.366211,-0.183105,0.061035
996958041,0.00762939,0.00682068,-1.00721741,0.305176,-0.244141,-0.061035
1002073000,0.00779724,0.00650024,-1.00852966,0.305176,-0.244141,-0.061035
1004731125,0.00779724,0.00650024,-1.00852966,0.244141,-0.061035,-0.122070
1012394458,0.00701904,0.00674438,-1.00942993,0.244141,-0.061035,-0.122070
1017517500,0.00701904,0.00674438,-1.00942993,0.366211,-0.244141,-0.061035
1022614041,0.00662231,0.00640869,-1.00825500,0.366211,-0.244141,-0.061035
1025177333,0.00662231,0.00640869,-1.00825500,0.305176,-0.061035,-0.122070
1032584416,0.00622559,0.00631714,-1.00602722,0.305176,-0.061035,-0.122070
1035153375,0.00622559,0.00631714,-1.00602722,0.488281,0.000000,0.000000
1042781250,0.00637817,0.00691223,-1.00711060,0.488281,0.000000,0.000000
1045040708,0.00637817,0.00691223,-1.00711060,0.366211,-0.183105,-0.122070
1052289333,0.00614929,0.00750732,-1.00869751,0.366211,-0.183105,-0.122070
1054861750,0.00614929,0.00750732,-1.00869751,0.183105,-0.183105,-0.061035
1062479791,0.00596619,0.00666809,-1.00753784,0.183105,-0.183105,-0.061035
1064738750,0.00596619,0.00666809,-1.00753784,0.488281,-0.061035,0.000000
1072348125,0.00621033,0.00694275,-1.00788879,0.488281,-0.061035,0.000000
1074902208,0.00621033,0.00694275,-1.00788879,0.366211,-0.061035,-0.183105
1082204208,0.00543213,0.00727844,-1.00866699,0.366211,-0.061035,-0.183105
1084758625,0.00543213,0.00727844,-1.00866699,0.366211,-0.122070,-0.122070
1092376041,0.00671387,0.00753784,-1.00888062,0.366211,-0.122070,-0.122070
1094929416,0.00671387,0.00753784,-1.00888062,0.427246,-0.183105,-0.183105
1102584375,0.00622559,0.00718689,-1.00807190,0.427246,-0.183105,-0.183105
1105206416,0.00622559,0.00718689,-1.00807190,0.488281,-0.061035,0.061035
1112831958,0.00662231,0.00689697,-1.00773621,0.488281,-0.061035,0.061035
1115377791,0.00662231,0.00689697,-1.00773621,0.488281,-0.122070,-0.061035
1122981333,0.00759888,0.00708008,-1.00817871,0.488281,-0.122070,-0.061035
1125183208,0.00759888,0.00708008,-1.00817871,0.610352,-0.183105,0.061035
1132778541,0.00711060,0.00677490,-1.00773621,0.610352,-0.183105,0.061035
1135338583,0.00711060,0.00677490,-1.00773621,0.549316,-0.244141,-0.061035
1142546208,0.00601196,0.00698853,-1.00732422,0.549316,-0.244141,-0.061035
1145064125,0.00601196,0.00698853,-1.00732422,0.366211,-0.122070,-0.122070
1152664125,0.00598145,0.00688171,-1.00869751,0.366211,-0.122070,-0.122070
1155208958,0.00598145,0.00688171,-1.00869751,0.305176,0.000000,-0.122070
1162823166,0.00608826,0.00730896,-1.01000977,0.305176,0.000000,-0.122070
1165362666,0.00608826,0.00730896,-1.01000977,0.244141,-0.122070,-0.122070
1172901208,0.00634766,0.00709534,-1.00868225,0.244141,-0.122070,-0.122070
1175230541,0.00634766,0.00709534,-1.00868225,0.366211,-0.366211,0.000000
1182834708,0.00633240,0.00634766,-1.00726318,0.366211,-0.366211,0.000000
1185383416,0.00633240,0.00634766,-1.00726318,0.305176,0.000000,0.000000
1192815666,0.00625610,0.00692749,-1.00796509,0.305176,0.000000,0.000000
1195364583,0.00625610,0.00692749,-1.00796509,0.488281,0.000000,0.122070
1202966583,0.00625610,0.00788879,-1.00759888,0.488281,0.000000,0.122070
1205542375,0.00625610,0.00788879,-1.00759888,0.549316,-0.122070,-0.061035
1213152333,0.00738525,0.00711060,-1.00712585,0.549316,-0.122070,-0.061035
1215705958,0.00738525,0.00711060,-1.00712585,0.183105,-0.122070,0.061035
1223029125,0.00694275,0.00596619,-1.00906372,0.183105,-0.122070,0.061035
1225582333,0.00694275,0.00596619,-1.00906372,0.305176,-0.183105,-0.061035
1232899875,0.00709534,0.00607300,-1.01107788,0.305176,-0.183105,-0.061035
1235445041,0.00709534,0.00607300,-1.01107788,0.366211,-0.122070,0.000000
1243066250,0.00613403,0.00582886,-1.00596619,0.366211,-0.122070,0.000000
1245628291,0.00613403,0.00582886,-1.00596619,0.244141,-0.183105,-0.122070
1253256958,0.00505066,0.00573730,-1.00602722,0.244141,-0.183105,-0.122070
1255816500,0.00505066,0.00573730,-1.00602722,0.122070,-0.122070,-0.122070
1263477250,0.00570679,0.00659180,-1.00909424,0.122070,-0.122070,-0.122070
1266055625,0.00570679,0.00659180,-1.00909424,0.366211,-0.305176,0.000000
1273774125,0.00761414,0.00740051,-1.00885010,0.366211,-0.305176,0.000000
1275874916,0.00761414,0.00740051,-1.00885010,0.427246,-0.183105,-0.122070
1283514750,0.00733948,0.00703430,-1.00665283,0.427246,-0.183105,-0.122070
1286075375,0.00733948,0.00703430,-1.00665283,0.427246,-0.183105,-0.122070
1293676250,0.00708008,0.00679016,-1.00856018,0.427246,-0.183105,-0.122070
1296229166,0.00708008,0.00679016,-1.00856018,0.244141,-0.244141,-0.061035
1303683791,0.00679016,0.00598145,-1.01077271,0.244141,-0.244141,-0.061035
1306228541,0.00679016,0.00598145,-1.01077271,0.305176,-0.183105,0.061035
1313808083,0.00662231,0.00604248,-1.00926208,0.305176,-0.183105,0.061035
1316361250,0.00662231,0.00604248,-1.00926208,0.244141,-0.244141,-0.122070
1323960166,0.00622559,0.00692749,-1.00762939,0.244141,-0.244141,-0.122070
1326505750,0.00622559,0.00692749,-1.00762939,0.122070,-0.122070,0.061035
1334114666,0.00524902,0.00656128,-1.00856018,0.122070,-0.122070,0.061035
1336664375,0.00524902,0.00656128,-1.00856018,0.305176,-0.122070,0.000000
1344321208,0.00593567,0.00695801,-1.00775146,0.305176,-0.122070,0.000000
1346807875,0.00593567,0.00695801,-1.00775146,0.183105,-0.183105,-0.122070
1354438000,0.00718689,0.00588989,-1.00866699,0.183105,-0.183105,-0.122070
1356544208,0.00718689,0.00588989,-1.00866699,0.305176,-0.183105,0.122070
1364178750,0.00547791,0.00651550,-1.00709534,0.305176,-0.183105,0.122070
1366378208,0.00547791,0.00651550,-1.00709534,0.183105,-0.183105,-0.061035
1374018375,0.00489807,0.00747681,-1.00866699,0.183105,-0.183105,-0.061035
1376571916,0.00489807,0.00747681,-1.00866699,0.061035,-0.183105,-0.061035
1384173625,0.00564575,0.00724792,-1.00837708,0.061035,-0.183105,-0.061035
1386722125,0.00564575,0.00724792,-1.00837708,0.061035,-0.183105,-0.061035
1394347666,0.00619507,0.00654602,-1.00752258,0.061035,-0.183105,-0.061035
1396889666,0.00619507,0.00654602,-1.00752258,0.122070,-0.183105,-0.061035
1404504791,0.00791931,0.00608826,-1.00874329,0.122070,-0.183105,-0.061035
1407067750,0.00791931,0.00608826,-1.00874329,0.183105,-0.122070,-0.061035
1412165375,0.00767517,0.00639343,-1.00720215,0.183105,-0.122070,-0.061035
1414709583,0.00767517,0.00639343,-1.00720215,0.122070,-0.183105,-0.061035
1422340083,0.00784302,0.00703430,-1.00817871,0.122070,-0.183105,-0.061035
1424893166,0.00784302,0.00703430,-1.00817871,0.305176,0.000000,0.061035
1432344916,0.00752258,0.00651550,-1.00752258,0.305176,0.000000,0.061035
1434886041,0.00752258,0.00651550,-1.00752258,0.366211,-0.061035,-0.061035
1444677041,0.00732422,0.00608826,-1.00781250,0.305176,-0.122070,-0.061035
1452282041,0.00651550,0.00619507,-1.00810242,0.305176,-0.122070,-0.061035
1454815250,0.00651550,0.00619507,-1.00810242,0.183105,-0.122070,-0.183105
1462264083,0.00642395,0.00627136,-1.00715637,0.183105,-0.122070,-0.183105
1464802041,0.00642395,0.00627136,-1.00715637,0.244141,-0.305176,0.000000
1472367250,0.00621033,0.00646973,-1.00854492,0.244141,-0.305176,0.000000
1474899875,0.00621033,0.00646973,-1.00854492,0.366211,-0.183105,-0.061035
1482460375,0.00538635,0.00802612,-1.00888062,0.366211,-0.183105,-0.061035
1487012500,0.00538635,0.00802612,-1.00888062,0.366211,-0.122070,0.000000
1494632291,0.00631714,0.00733948,-1.00737000,0.244141,-0.183105,0.000000
1504800041,0.00544739,0.00674438,-1.00813293,0.305176,-0.244141,-0.061035
1514993291,0.00497437,0.00724792,-1.00918579,0.427246,-0.183105,-0.061035
1525121833,0.00503540,0.00708008,-1.00755310,0.488281,-0.183105,0.000000
1532669500,0.00518799,0.00587463,-1.00749207,0.488281,-0.183105,0.000000
1535191875,0.00518799,0.00587463,-1.00749207,0.549316,-0.122070,-0.061035
1542754500,0.00688171,0.00654602,-1.00691223,0.549316,-0.122070,-0.061035
1545290958,0.00688171,0.00654602,-1.00691223,0.305176,-0.244141,-0.122070
1555055833,0.00726318,0.00727844,-1.00801086,0.427246,-0.305176,-0.061035
1565027458,0.00683594,0.00624084,-1.00971985,0.366211,-0.122070,0.061035
1575147000,0.00654602,0.00651550,-1.00817871,0.427246,-0.183105,-0.061035
1582728166,0.00607300,0.00645447,-1.00827026,0.427246,-0.183105,-0.061035
1585262583,0.00607300,0.00645447,-1.00827026,0.427246,-0.061035,0.000000
1592841416,0.00605774,0.00703430,-1.00715637,0.427246,-0.061035,0.000000
1595393875,0.00605774,0.00703430,-1.00715637,0.244141,-0.122070,-0.183105
1602959500,0.00546265,0.00613403,-1.00769043,0.244141,-0.122070,-0.183105
1605515333,0.00546265,0.00613403,-1.00769043,0.244141,-0.122070,0.061035
1613101750,0.00671387,0.00666809,-1.00744629,0.244141,-0.122070,0.061035
1615634750,0.00671387,0.00666809,-1.00744629,0.244141,-0.366211,-0.061035
1622867625,0.00651550,0.00663757,-1.00820923,0.244141,-0.366211,-0.061035
1624954000,0.00651550,0.00663757,-1.00820923,0.427246,-0.122070,-0.061035
1635084125,0.00524902,0.00642395,-1.01019287,0.366211,-0.183105,0.000000
1642712708,0.00674438,0.00669861,-1.00692749,0.366211,-0.183105,0.000000
1645264083,0.00674438,0.00669861,-1.00692749,0.244141,-0.183105,-0.061035
1652861833,0.00633240,0.00750732,-1.00732422,0.244141,-0.183105,-0.061035
1655209500,0.00633240,0.00750732,-1.00732422,0.854492,-0.122070,-0.061035
1662810166,0.00633240,0.00657654,-1.00683594,0.854492,-0.122070,-0.061035
1665378500,0.00633240,0.00657654,-1.00683594,0.488281,0.000000,0.122070
1673004375,0.00616455,0.00552368,-1.00828552,0.488281,0.000000,0.122070
1675311166,0.00616455,0.00552368,-1.00828552,0.488281,-0.244141,0.000000
1682919666,0.00595093,0.00563049,-1.01062012,0.488281,-0.244141,0.000000
1685464916,0.00595093,0.00563049,-1.01062012,0.244141,-0.183105,-0.122070
1693047625,0.00680542,0.00610352,-1.00683594,0.244141,-0.183105,-0.122070
1695582666,0.00680542,0.00610352,-1.00683594,0.305176,-0.183105,-0.061035
1703161541,0.00813293,0.00593567,-1.00761414,0.305176,-0.183105,-0.061035
1705722833,0.00813293,0.00593567,-1.00761414,0.305176,-0.122070,0.000000
1712912125,0.00817871,0.00611877,-1.00781250,0.305176,-0.122070,0.000000
1715449416,0.00817871,0.00611877,-1.00781250,0.305176,-0.122070,0.000000
1722887291,0.00730896,0.00617981,-1.00833130,0.305176,-0.122070,0.000000
1725448833,0.00730896,0.00617981,-1.00833130,0.244141,-0.183105,-0.061035
1733019958,0.00685120,0.00675964,-1.00901794,0.244141,-0.183105,-0.061035
1735562791,0.00685120,0.00675964,-1.00901794,0.366211,-0.061035,0.000000
1743062583,0.00593567,0.00727844,-1.00672913,0.366211,-0.061035,0.000000
1745601000,0.00593567,0.00727844,-1.00672913,0.366211,-0.061035,0.000000
1752689958,0.00656128,0.00848389,-1.00759888,0.366211,-0.061035,0.000000
1755227000,0.00656128,0.00848389,-1.00759888,0.305176,-0.122070,0.000000
1764998916,0.00602722,0.00778198,-1.00756836,0.305176,-0.244141,0.000000
1775102916,0.00555420,0.00787354,-1.00852966,0.488281,-0.061035,-0.061035
1782698541,0.00689697,0.00813293,-1.00755310,0.488281,-0.061035,-0.061035
1785256250,0.00689697,0.00813293,-1.00755310,0.366211,-0.122070,0.000000
1795051708,0.00752258,0.00823975,-1.00773621,0.427246,-0.183105,0.000000
1802700291,0.00659180,0.00723267,-1.00857544,0.427246,-0.183105,0.000000
1805258375,0.00659180,0.00723267,-1.00857544,0.244141,-0.061035,-0.122070
1812853833,0.00692749,0.00701904,-1.00845337,0.244141,-0.061035,-0.122070
1815376458,0.00692749,0.00701904,-1.00845337,0.305176,-0.122070,0.000000
1822904083,0.00697327,0.00634766,-1.00801086,0.305176,-0.122070,0.000000
1825462041,0.00697327,0.00634766,-1.00801086,0.366211,-0.122070,0.061035
1832952625,0.00733948,0.00668335,-1.00650024,0.366211,-0.122070,0.061035
1835527958,0.00733948,0.00668335,-1.00650024,0.183105,-0.183105,-0.122070
1845203333,0.00769043,0.00622559,-1.00843811,0.305176,-0.122070,-0.061035
1852809916,0.00689697,0.00512695,-1.00875854,0.305176,-0.122070,-0.061035
1855350750,0.00689697,0.00512695,-1.00875854,0.366211,-0.183105,-0.122070
1862952041,0.00489807,0.00526428,-1.00810242,0.366211,-0.183105,-0.122070
1865499916,0.00489807,0.00526428,-1.00810242,0.427246,-0.122070,-0.183105
1872930208,0.00653076,0.00585938,-1.00830078,0.427246,-0.122070,-0.183105
1875480750,0.00653076,0.00585938,-1.00830078,0.244141,-0.122070,-0.122070
1883073583,0.00703430,0.00723267,-1.00830078,0.244141,-0.122070,-0.122070
1885631125,0.00703430,0.00723267,-1.00830078,0.427246,-0.122070,-0.122070
1892923416,0.00592041,0.00769043,-1.00724792,0.427246,-0.122070,-0.122070
1895467875,0.00592041,0.00769043,-1.00724792,0.366211,-0.183105,0.000000
1902719833,0.00537109,0.00805664,-1.00796509,0.366211,-0.183105,0.000000
1905283125,0.00537109,0.00805664,-1.00796509,0.305176,-0.183105,-0.061035
1912882666,0.00553894,0.00775146,-1.00846863,0.305176,-0.183105,-0.061035
1915425833,0.00553894,0.00775146,-1.00846863,0.244141,-0.244141,-0.061035
1923007000,0.00570679,0.00700378,-1.00834656,0.244141,-0.244141,-0.061035
1925543708,0.00570679,0.00700378,-1.00834656,0.427246,-0.244141,0.000000
1933188833,0.00637817,0.00685120,-1.00779724,0.427246,-0.244141,0.000000
1935739291,0.00637817,0.00685120,-1.00779724,0.183105,-0.183105,-0.061035
1942925875,0.00695801,0.00784302,-1.00802612,0.183105,-0.183105,-0.061035
1945470833,0.00695801,0.00784302,-1.00802612,0.305176,-0.122070,-0.122070
1953060166,0.00723267,0.00671387,-1.00801086,0.305176,-0.122070,-0.122070
1955623958,0.00723267,0.00671387,-1.00801086,0.305176,-0.244141,-0.061035
1963242541,0.00743103,0.00650024,-1.00733948,0.305176,-0.244141,-0.061035
1965787458,0.00743103,0.00650024,-1.00733948,0.549316,-0.183105,-0.061035
1973154000,0.00718689,0.00624084,-1.00813293,0.549316,-0.183105,-0.061035
1975712458,0.00718689,0.00624084,-1.00813293,0.305176,-0.122070,0.000000
1983313041,0.00654602,0.00524902,-1.00842285,0.305176,-0.122070,0.000000
1985859708,0.00654602,0.00524902,-1.00842285,0.366211,-0.183105,0.000000
1992923458,0.00617981,0.00599670,-1.00746155,0.366211,-0.183105,0.000000
1995463791,0.00617981,0.00599670,-1.00746155,0.244141,-0.122070,0.000000
2003079875,0.00692749,0.00592041,-1.00685120,0.244141,-0.122070,0.000000
2005640791,0.00692749,0.00592041,-1.00685120,0.305176,-0.183105,-0.061035
2013138333,0.00695801,0.00592041,-1.00782776,0.305176,-0.183105,-0.061035
2015696375,0.00695801,0.00592041,-1.00782776,0.305176,-0.183105,-0.183105
2023327708,0.00593567,0.00546265,-1.00825500,0.305176,-0.183105,-0.183105
2025905791,0.00593567,0.00546265,-1.00825500,0.671387,-0.244141,-0.061035
2033488541,0.00480652,0.00607300,-1.00709534,0.671387,-0.244141,-0.061035
2036044041,0.00480652,0.00607300,-1.00709534,0.000000,-0.061035,0.000000
2043689166,0.00599670,0.00584412,-1.00405884,0.000000,-0.061035,0.000000
2046241416,0.00599670,0.00584412,-1.00405884,0.305176,-0.183105,0.000000
2053579458,0.00665283,0.00645447,-1.01681519,0.305176,-0.183105,0.000000
2056138250,0.00665283,0.00645447,-1.01681519,0.061035,-0.122070,-0.122070
2063523708,0.00675964,0.00807190,-1.00572205,0.061035,-0.122070,-0.122070
2066061791,0.00675964,0.00807190,-1.00572205,0.305176,-0.244141,0.000000
2073655000,0.00645447,0.00756836,-1.00819397,0.305176,-0.244141,0.000000
2076198541,0.00645447,0.00756836,-1.00819397,0.305176,-0.183105,-0.061035
2083778416,0.00672913,0.00743103,-1.00830078,0.305176,-0.183105,-0.061035
2086320916,0.00672913,0.00743103,-1.00830078,0.305176,-0.122070,-0.061035
2093917291,0.00596619,0.00718689,-1.00892639,0.305176,-0.122070,-0.061035
2096460125,0.00596619,0.00718689,-1.00892639,0.183105,-0.244141,0.000000
2104057333,0.00646973,0.00727844,-1.00733948,0.183105,-0.244141,0.000000
2106629875,0.00646973,0.00727844,-1.00733948,0.305176,0.000000,0.122070
2114212625,0.00689697,0.00653076,-1.00679016,0.305176,0.000000,0.122070
2116752166,0.00689697,0.00653076,-1.00679016,0.244141,-0.061035,0.000000
2124338291,0.00646973,0.00637817,-1.01000977,0.244141,-0.061035,0.000000
2126872458,0.00646973,0.00637817,-1.01000977,0.366211,-0.061035,0.000000
2134447916,0.00601196,0.00593567,-1.00964355,0.366211,-0.061035,0.000000
2137011250,0.00601196,0.00593567,-1.00964355,0.366211,-0.061035,0.000000
2144331291,0.00633240,0.00585938,-1.00714111,0.366211,-0.061035,0.000000
2146892250,0.00633240,0.00585938,-1.00714111,0.183105,-0.122070,0.061035
2154483208,0.00660706,0.00662231,-1.00856018,0.183105,-0.122070,0.061035
2157018833,0.00660706,0.00662231,-1.00856018,0.305176,-0.183105,0.061035
2164608875,0.00726318,0.00650024,-1.00910950,0.305176,-0.183105,0.061035
2166806166,0.00726318,0.00650024,-1.00910950,0.244141,-0.244141,0.000000
2174396166,0.00663757,0.00604248,-1.00828552,0.244141,-0.244141,0.000000
2176952333,0.00663757,0.00604248,-1.00828552,0.183105,-0.122070,0.061035
2184547916,0.00553894,0.00677490,-1.00621033,0.183105,-0.122070,0.061035
2187087500,0.00553894,0.00677490,-1.00621033,0.427246,-0.244141,0.000000
2194675500,0.00572205,0.00721741,-1.00799561,0.427246,-0.244141,0.000000
2197209500,0.00572205,0.00721741,-1.00799561,0.305176,-0.122070,0.000000
2204773500,0.00585938,0.00602722,-1.00962830,0.305176,-0.122070,0.000000
2207328708,0.00585938,0.00602722,-1.00962830,0.366211,-0.183105,-0.061035
2214920333,0.00660706,0.00581360,-1.00781250,0.366211,-0.183105,-0.061035
2217465625,0.00660706,0.00581360,-1.00781250,0.427246,-0.122070,-0.061035
2225083208,0.00679016,0.00694275,-1.00773621,0.427246,-0.122070,-0.061035
2227651166,0.00679016,0.00694275,-1.00773621,0.366211,-0.122070,-0.122070
2235310208,0.00653076,0.00703430,-1.00738525,0.366211,-0.122070,-0.122070
2237871041,0.00653076,0.00703430,-1.00738525,0.366211,-0.183105,0.000000
2242941666,0.00598145,0.00830078,-1.00810242,0.366211,-0.183105,0.000000
2248008750,0.00598145,0.00830078,-1.00810242,0.427246,-0.061035,0.000000
2253091166,0.00637817,0.00778198,-1.00779724,0.427246,-0.061035,0.000000
2255644583,0.00637817,0.00778198,-1.00779724,0.427246,-0.183105,0.000000
2263243250,0.00578308,0.00692749,-1.00820923,0.427246,-0.183105,0.000000
2265797208,0.00578308,0.00692749,-1.00820923,0.183105,-0.305176,0.000000
2273116625,0.00540161,0.00614929,-1.00828552,0.183105,-0.305176,0.000000
2275670666,0.00540161,0.00614929,-1.00828552,0.244141,-0.244141,0.000000
2283273333,0.00695801,0.00605774,-1.00813293,0.244141,-0.244141,0.000000
2285812541,0.00695801,0.00605774,-1.00813293,0.244141,-0.183105,-0.061035
2293426833,0.00718689,0.00645447,-1.00923157,0.244141,-0.183105,-0.061035
2295978166,0.00718689,0.00645447,-1.00923157,0.244141,-0.122070,-0.061035
2303567958,0.00689697,0.00567627,-1.00810242,0.244141,-0.122070,-0.061035
2305892375,0.00689697,0.00567627,-1.00810242,0.366211,-0.122070,-0.061035
2313515041,0.00579834,0.00679016,-1.00767517,0.366211,-0.122070,-0.061035
2316060125,0.00579834,0.00679016,-1.00767517,0.305176,-0.183105,-0.122070
2323664541,0.00605774,0.00711060,-1.00720215,0.305176,-0.183105,-0.122070
2326210958,0.00605774,0.00711060,-1.00720215,0.366211,-0.061035,-0.061035
2333827750,0.00639343,0.00660706,-1.00849915,0.366211,-0.061035,-0.061035
2336373250,0.00639343,0.00660706,-1.00849915,0.244141,-0.244141,0.061035
2343992333,0.00617981,0.00799561,-1.00816345,0.244141,-0.244141,0.061035
2346552000,0.00617981,0.00799561,-1.00816345,0.427246,-0.183105,-0.122070
2354170250,0.00578308,0.00708008,-1.00773621,0.427246,-0.183105,-0.122070
2356751166,0.00578308,0.00708008,-1.00773621,0.366211,-0.122070,0.061035
2364415291,0.00665283,0.00761414,-1.00759888,0.366211,-0.122070,0.061035
2366968833,0.00665283,0.00761414,-1.00759888,0.427246,-0.122070,-0.183105
2374604000,0.00628662,0.00688171,-1.00767517,0.427246,-0.122070,-0.183105
2377159333,0.00628662,0.00688171,-1.00767517,0.305176,-0.183105,0.000000
2384801750,0.00660706,0.00593567,-1.00753784,0.305176,-0.183105,0.000000
2387379500,0.00660706,0.00593567,-1.00753784,0.366211,-0.122070,-0.061035
2395011375,0.00735474,0.00637817,-1.00743103,0.366211,-0.122070,-0.061035
2397563375,0.00735474,0.00637817,-1.00743103,0.488281,-0.244141,-0.122070
2405165958,0.00851440,0.00682068,-1.00633240,0.488281,-0.244141,-0.122070
2407726708,0.00851440,0.00682068,-1.00633240,0.305176,-0.183105,-0.061035
2415311375,0.00724792,0.00674438,-1.00802612,0.305176,-0.183105,-0.061035
2417899958,0.00724792,0.00674438,-1.00802612,0.366211,-0.183105,-0.061035
2423009666,0.00671387,0.00628662,-1.00875854,0.366211,-0.183105,-0.061035
2428178625,0.00671387,0.00628662,-1.00875854,0.305176,-0.122070,-0.061035
2433288291,0.00679016,0.00578308,-1.00679016,0.305176,-0.122070,-0.061035
2435845750,0.00679016,0.00578308,-1.00679016,0.183105,-0.122070,-0.061035
2443204208,0.00601196,0.00616455,-1.00918579,0.183105,-0.122070,-0.061035
2445761875,0.00601196,0.00616455,-1.00918579,0.244141,-0.183105,0.000000
2453337416,0.00526428,0.00695801,-1.00851440,0.244141,-0.183105,0.000000
2455877500,0.00526428,0.00695801,-1.00851440,0.305176,-0.183105,0.122070
2463457833,0.00480652,0.00708008,-1.00633240,0.305176,-0.183105,0.122070
2465996666,0.00480652,0.00708008,-1.00633240,0.305176,-0.183105,0.000000
2473592041,0.00529480,0.00608826,-1.00714111,0.305176,-0.183105,0.000000
2476133375,0.00529480,0.00608826,-1.00714111,0.244141,-0.183105,-0.122070
2483742791,0.00674438,0.00717163,-1.00915527,0.244141,-0.183105,-0.122070
2486335375,0.00674438,0.00717163,-1.00915527,0.366211,-0.122070,0.061035
2493706291,0.00709534,0.00790405,-1.00857544,0.366211,-0.122070,0.061035
2496263333,0.00709534,0.00790405,-1.00857544,0.305176,-0.122070,0.061035
2503885458,0.00656128,0.00706482,-1.00784302,0.305176,-0.122070,0.061035
2506449333,0.00656128,0.00706482,-1.00784302,0.427246,-0.061035,0.000000
2514086875,0.00659180,0.00671387,-1.00779724,0.427246,-0.061035,0.000000
2516305958,0.00659180,0.00671387,-1.00779724,0.366211,-0.183105,0.061035
2523894500,0.00564575,0.00564575,-1.00782776,0.366211,-0.183105,0.061035
2526442500,0.00564575,0.00564575,-1.00782776,0.427246,-0.183105,-0.122070
2533468291,0.00643921,0.00708008,-1.00781250,0.427246,-0.183105,-0.122070
2535699750,0.00643921,0.00708008,-1.00781250,0.366211,-0.061035,0.000000
2543293416,0.00741577,0.00631714,-1.00750732,0.366211,-0.061035,0.000000
2545719958,0.00741577,0.00631714,-1.00750732,0.305176,-0.183105,-0.061035
2555417958,0.00804138,0.00582886,-1.00852966,0.305176,-0.183105,-0.061035
2557975125,0.00804138,0.00582886,-1.00852966,0.366211,-0.244141,0.000000
2563040333,0.00682068,0.00654602,-1.00852966,0.366211,-0.244141,0.000000
2568097500,0.00682068,0.00654602,-1.00852966,0.122070,-0.183105,0.061035
2573156125,0.00622559,0.00672913,-1.00804138,0.122070,-0.183105,0.061035
2575700041,0.00622559,0.00672913,-1.00804138,0.366211,-0.183105,-0.061035
2585527958,0.00628662,0.00683594,-1.00764465,0.366211,-0.183105,-0.061035
2588065166,0.00628662,0.00683594,-1.00764465,0.244141,-0.183105,0.000000
2594865875,0.00558472,0.00656128,-1.00718689,0.244141,-0.183105,0.000000
2597392333,0.00558472,0.00656128,-1.00718689,0.488281,-0.183105,0.000000
2604952625,0.00653076,0.00665283,-1.00625610,0.488281,-0.183105,0.000000
2607493583,0.00653076,0.00665283,-1.00625610,0.366211,-0.183105,0.000000
2615099250,0.00770569,0.00614929,-1.00733948,0.366211,-0.183105,0.000000
2617649708,0.00770569,0.00614929,-1.00733948,0.366211,-0.244141,0.000000
2625004458,0.00784302,0.00733948,-1.00729370,0.366211,-0.244141,0.000000
2627534166,0.00784302,0.00733948,-1.00729370,0.488281,-0.244141,-0.122070
2635078000,0.00703430,0.00697327,-1.00807190,0.488281,-0.244141,-0.122070
2637609750,0.00703430,0.00697327,-1.00807190,0.488281,-0.244141,-0.122070
2645162250,0.00679016,0.00706482,-1.00782776,0.488281,-0.244141,-0.122070
2647689208,0.00679016,0.00706482,-1.00782776,0.488281,-0.061035,-0.061035
2655243083,0.00549316,0.00666809,-1.00788879,0.488281,-0.061035,-0.061035
2657766875,0.00549316,0.00666809,-1.00788879,0.244141,-0.183105,-0.122070
2665016416,0.00596619,0.00625610,-1.00805664,0.244141,-0.183105,-0.122070
2667554166,0.00596619,0.00625610,-1.00805664,0.305176,-0.183105,-0.061035
2675142666,0.00598145,0.00679016,-1.00846863,0.305176,-0.183105,-0.061035
2677683458,0.00598145,0.00679016,-1.00846863,0.366211,-0.183105,0.000000
2685120916,0.00682068,0.00698853,-1.00839233,0.366211,-0.183105,0.000000
2687666666,0.00682068,0.00698853,-1.00839233,0.305176,-0.183105,-0.061035
2694942916,0.00659180,0.00695801,-1.00808716,0.305176,-0.183105,-0.061035
2697503833,0.00659180,0.00695801,-1.00808716,0.244141,-0.183105,0.000000
2704692666,0.00692749,0.00654602,-1.00827026,0.244141,-0.183105,0.000000
2707264625,0.00692749,0.00654602,-1.00827026,0.183105,-0.244141,0.000000
2714404041,0.00619507,0.00599670,-1.00747681,0.183105,-0.244141,0.000000
2716939208,0.00619507,0.00599670,-1.00747681,0.366211,-0.244141,-0.061035
2724504250,0.00593567,0.00683594,-1.00758362,0.366211,-0.244141,-0.061035
2727057666,0.00593567,0.00683594,-1.00758362,0.244141,-0.244141,0.000000
2734340750,0.00523376,0.00643921,-1.00703430,0.244141,-0.244141,0.000000
2736911791,0.00523376,0.00643921,-1.00703430,0.305176,-0.305176,-0.122070
2744557666,0.00585938,0.00665283,-1.00726318,0.305176,-0.305176,-0.122070
2747123958,0.00585938,0.00665283,-1.00726318,0.366211,-0.122070,-0.122070
2754740541,0.00651550,0.00698853,-1.00891113,0.366211,-0.122070,-0.122070
2757291791,0.00651550,0.00698853,-1.00891113,0.427246,0.000000,-0.061035
2764894208,0.00637817,0.00689697,-1.00828552,0.427246,0.000000,-0.061035
2767440083,0.00637817,0.00689697,-1.00828552,0.427246,-0.061035,0.122070
2775061416,0.00639343,0.00653076,-1.00811768,0.427246,-0.061035,0.122070
2777620333,0.00639343,0.00653076,-1.00811768,0.244141,-0.061035,0.000000
2785205875,0.00727844,0.00735474,-1.00910950,0.244141,-0.061035,0.000000
2787758583,0.00727844,0.00735474,-1.00910950,0.366211,-0.122070,-0.061035
2795370916,0.00665283,0.00697327,-1.00820923,0.366211,-0.122070,-0.061035
2797919166,0.00665283,0.00697327,-1.00820923,0.549316,-0.183105,-0.122070
2805532166,0.00694275,0.00587463,-1.00772095,0.549316,-0.183105,-0.122070
2808096291,0.00694275,0.00587463,-1.00772095,0.244141,-0.122070,0.061035
2815724416,0.00659180,0.00564575,-1.00846863,0.305176,-0.122070,0.000000
2825885541,0.00767517,0.00587463,-1.01025391,0.305176,-0.061035,-0.061035
2836022041,0.00604248,0.00595093,-1.00701904,0.305176,-0.183105,0.000000
2846203666,0.00518799,0.00691223,-1.00573730,0.183105,-0.122070,-0.061035
2853817833,0.00505066,0.00677490,-1.00822449,0.183105,-0.122070,-0.061035
2856363875,0.00505066,0.00677490,-1.00822449,0.244141,-0.244141,-0.183105
2863981708,0.00518799,0.00695801,-1.00901794,0.244141,-0.244141,-0.183105
2866549833,0.00518799,0.00695801,-1.00901794,0.366211,-0.122070,-0.061035
2874184208,0.00486755,0.00735474,-1.00816345,0.366211,-0.122070,-0.061035
2876732000,0.00486755,0.00735474,-1.00816345,0.244141,-0.122070,-0.122070
2884321125,0.00558472,0.00677490,-1.00811768,0.244141,-0.122070,-0.122070
2886873458,0.00558472,0.00677490,-1.00811768,0.488281,-0.122070,-0.061035
2894344333,0.00526428,0.00701904,-1.00677490,0.488281,-0.122070,-0.061035
2896886000,0.00526428,0.00701904,-1.00677490,0.305176,-0.183105,-0.061035
2904536083,0.00561523,0.00759888,-1.00825500,0.305176,-0.183105,-0.061035
2907113666,0.00561523,0.00759888,-1.00825500,0.366211,-0.305176,0.000000
2914775500,0.00569153,0.00685120,-1.00883484,0.366211,-0.305176,0.000000
2917384208,0.00569153,0.00685120,-1.00883484,0.244141,-0.244141,0.000000
2925019666,0.00685120,0.00604248,-1.00706482,0.244141,-0.244141,0.000000
2927575291,0.00685120,0.00604248,-1.00706482,0.366211,-0.122070,0.061035
2935158916,0.00724792,0.00627136,-1.00840759,0.366211,-0.122070,0.061035
2937690541,0.00724792,0.00627136,-1.00840759,0.366211,-0.061035,-0.061035
2945247208,0.00759888,0.00637817,-1.00711060,0.366211,-0.061035,-0.061035
2947797458,0.00759888,0.00637817,-1.00711060,0.244141,-0.244141,0.061035
2955363375,0.00711060,0.00610352,-1.00788879,0.244141,-0.244141,0.061035
2957901750,0.00711060,0.00610352,-1.00788879,0.427246,-0.183105,-0.061035
2965464583,0.00672913,0.00610352,-1.00830078,0.427246,-0.183105,-0.061035
2967990000,0.00672913,0.00610352,-1.00830078,0.366211,-0.122070,-0.122070
2975576000,0.00559998,0.00672913,-1.00810242,0.366211,-0.122070,-0.122070
2978112083,0.00559998,0.00672913,-1.00810242,0.305176,-0.183105,0.000000
2985684708,0.00714111,0.00642395,-1.00764465,0.305176,-0.183105,0.000000
2988221666,0.00714111,0.00642395,-1.00764465,0.427246,-0.244141,-0.122070
2995609458,0.00679016,0.00627136,-1.00764465,0.427246,-0.244141,-0.122070
2998150291,0.00679016,0.00627136,-1.00764465,0.366211,-0.244141,0.061035
3005455041,0.00640869,0.00653076,-1.00880432,0.366211,-0.244141,0.061035
3007987458,0.00640869,0.00653076,-1.00880432,0.366211,-0.183105,-0.061035
3015336458,0.00569153,0.00646973,-1.00807190,0.366211,-0.183105,-0.061035
3017869000,0.00569153,0.00646973,-1.00807190,0.183105,-0.183105,0.061035
3025427541,0.00508118,0.00617981,-1.00799561,0.183105,-0.183105,0.061035
3027969250,0.00508118,0.00617981,-1.00799561,0.244141,-0.305176,-0.061035
3035541000,0.00500488,0.00668335,-1.00856018,0.244141,-0.305176,-0.061035
3038081833,0.00500488,0.00668335,-1.00856018,0.183105,-0.122070,-0.122070
3045356291,0.00637817,0.00778198,-1.00888062,0.183105,-0.122070,-0.122070
3047896083,0.00637817,0.00778198,-1.00888062,0.427246,-0.061035,-0.061035
3055299541,0.00650024,0.00703430,-1.00831604,0.427246,-0.061035,-0.061035
3057838333,0.00650024,0.00703430,-1.00831604,0.305176,-0.122070,-0.061035
3065435666,0.00715637,0.00712585,-1.00773621,0.305176,-0.122070,-0.061035
3067995875,0.00715637,0.00712585,-1.00773621,0.305176,-0.183105,0.061035
3075429166,0.00622559,0.00698853,-1.00814819,0.305176,-0.183105,0.061035
3077950583,0.00622559,0.00698853,-1.00814819,0.305176,-0.122070,-0.061035
3085643125,0.00663757,0.00749207,-1.00810242,0.305176,-0.122070,-0.061035
3088223666,0.00663757,0.00749207,-1.00810242,0.366211,-0.183105,0.000000
3095487375,0.00671387,0.00617981,-1.00794983,0.366211,-0.183105,0.000000
3097647791,0.00671387,0.00617981,-1.00794983,0.427246,-0.244141,0.000000
3105303583,0.00634766,0.00653076,-1.00831604,0.427246,-0.244141,0.000000
3107887375,0.00634766,0.00653076,-1.00831604,0.366211,-0.061035,-0.122070
3115558291,0.00660706,0.00715637,-1.00852966,0.366211,-0.061035,-0.122070
3118145666,0.00660706,0.00715637,-1.00852966,0.366211,0.000000,-0.122070
3125785500,0.00610352,0.00584412,-1.00794983,0.366211,0.000000,-0.122070
3128373916,0.00610352,0.00584412,-1.00794983,0.427246,-0.061035,0.000000
3136023125,0.00579834,0.00599670,-1.00827026,0.366211,-0.122070,0.000000
3146233458,0.00546265,0.00642395,-1.00811768,0.488281,-0.244141,-0.122070
3153867291,0.00737000,0.00663757,-1.00788879,0.488281,-0.244141,-0.122070
3156418750,0.00737000,0.00663757,-1.00788879,0.488281,-0.122070,0.000000
3166136916,0.00700378,0.00686646,-1.00733948,0.366211,-0.183105,0.061035
3173793208,0.00630188,0.00648499,-1.00846863,0.366211,-0.183105,0.061035
3176171916,0.00630188,0.00648499,-1.00846863,0.366211,-0.122070,0.000000
3183723916,0.00582886,0.00579834,-1.00849915,0.366211,-0.122070,0.000000
3186295458,0.00582886,0.00579834,-1.00849915,0.305176,-0.061035,0.000000
3193942083,0.00679016,0.00502014,-1.00863647,0.305176,-0.061035,0.000000
3196501208,0.00679016,0.00502014,-1.00863647,0.305176,-0.122070,-0.122070
3206246875,0.00645447,0.00601196,-1.00759888,0.427246,-0.244141,0.000000
3213919000,0.00637817,0.00708008,-1.00700378,0.427246,-0.244141,0.000000
3216496666,0.00637817,0.00708008,-1.00700378,0.305176,-0.122070,0.061035
3224294625,0.00611877,0.00712585,-1.00724792,0.305176,-0.122070,0.061035
3226863458,0.00611877,0.00712585,-1.00724792,0.122070,-0.183105,0.061035
3234449833,0.00639343,0.00598145,-1.00932312,0.122070,-0.183105,0.061035
3236987583,0.00639343,0.00598145,-1.00932312,0.427246,-0.122070,0.000000
3244297875,0.00553894,0.00651550,-1.00846863,0.427246,-0.122070,0.000000
3246832041,0.00553894,0.00651550,-1.00846863,0.305176,-0.183105,-0.183105
3254402875,0.00567627,0.00639343,-1.00497437,0.305176,-0.183105,-0.183105
3256937208,0.00567627,0.00639343,-1.00497437,0.305176,-0.061035,0.000000
3264479958,0.00613403,0.00669861,-1.00796509,0.305176,-0.061035,0.000000
3267022083,0.00613403,0.00669861,-1.00796509,0.366211,-0.122070,-0.061035
3274649875,0.00692749,0.00665283,-1.00704956,0.366211,-0.122070,-0.061035
3277185875,0.00692749,0.00665283,-1.00704956,0.488281,-0.122070,0.061035
3284761041,0.00706482,0.00617981,-1.00682068,0.488281,-0.122070,0.061035
3286987666,0.00706482,0.00617981,-1.00682068,0.488281,-0.061035,-0.061035
3294553666,0.00666809,0.00534058,-1.00686646,0.488281,-0.061035,-0.061035
3297094291,0.00666809,0.00534058,-1.00686646,0.427246,-0.122070,-0.061035
3304702791,0.00752258,0.00634766,-1.00872803,0.427246,-0.122070,-0.061035
3307240041,0.00752258,0.00634766,-1.00872803,0.366211,-0.183105,0.061035
3314809458,0.00669861,0.00657654,-1.00839233,0.366211,-0.183105,0.061035
3317343250,0.00669861,0.00657654,-1.00839233,0.244141,-0.183105,-0.183105
3324678875,0.00639343,0.00543213,-1.00779724,0.244141,-0.183105,-0.183105
3327212791,0.00639343,0.00543213,-1.00779724,0.366211,-0.122070,-0.061035
3334796666,0.00668335,0.00631714,-1.00892639,0.366211,-0.122070,-0.061035
3337346625,0.00668335,0.00631714,-1.00892639,0.366211,-0.183105,0.000000
3344975875,0.00614929,0.00724792,-1.00848389,0.366211,-0.183105,0.000000
3347407458,0.00614929,0.00724792,-1.00848389,0.427246,-0.244141,0.000000
3355013750,0.00590515,0.00712585,-1.00712585,0.427246,-0.244141,0.000000
3357555791,0.00590515,0.00712585,-1.00712585,0.366211,-0.122070,-0.061035
3365060208,0.00614929,0.00750732,-1.00744629,0.366211,-0.122070,-0.061035
3367600500,0.00614929,0.00750732,-1.00744629,0.305176,-0.244141,-0.061035
3375186833,0.00576782,0.00657654,-1.00816345,0.305176,-0.244141,-0.061035
3377727833,0.00576782,0.00657654,-1.00816345,0.366211,-0.244141,0.000000
3385359666,0.00651550,0.00633240,-1.00822449,0.366211,-0.244141,0.000000
3387884625,0.00651550,0.00633240,-1.00822449,0.183105,-0.183105,-0.122070
3395105875,0.00674438,0.00720215,-1.00712585,0.183105,-0.183105,-0.122070
3397646625,0.00674438,0.00720215,-1.00712585,0.183105,-0.122070,-0.061035
3405133750,0.00625610,0.00689697,-1.00881958,0.183105,-0.122070,-0.061035
3407676250,0.00625610,0.00689697,-1.00881958,0.244141,-0.061035,0.000000
3415009166,0.00640869,0.00642395,-1.00909424,0.244141,-0.061035,0.000000
3417553000,0.00640869,0.00642395,-1.00909424,0.244141,-0.061035,-0.061035
3424930291,0.00726318,0.00677490,-1.00749207,0.244141,-0.061035,-0.061035
3427460583,0.00726318,0.00677490,-1.00749207,0.244141,-0.183105,0.000000
3435006375,0.00727844,0.00639343,-1.00788879,0.244141,-0.183105,0.000000
3437542583,0.00727844,0.00639343,-1.00788879,0.183105,-0.366211,-0.122070
3445011750,0.00773621,0.00549316,-1.00668335,0.183105,-0.366211,-0.122070
3447551541,0.00773621,0.00549316,-1.00668335,0.305176,-0.183105,-0.061035
3455122375,0.00645447,0.00692749,-1.00679016,0.305176,-0.183105,-0.061035
3457658333,0.00645447,0.00692749,-1.00679016,0.305176,-0.183105,-0.122070
3465183083,0.00653076,0.00671387,-1.00894165,0.305176,-0.183105,-0.122070
3467713916,0.00653076,0.00671387,-1.00894165,0.183105,-0.061035,-0.122070
3475338791,0.00727844,0.00666809,-1.00866699,0.183105,-0.061035,-0.122070
3477491708,0.00727844,0.00666809,-1.00866699,0.183105,-0.183105,-0.061035
3485097791,0.00694275,0.00750732,-1.00891113,0.183105,-0.183105,-0.061035
3487683083,0.00694275,0.00750732,-1.00891113,0.244141,-0.122070,0.000000
3495306250,0.00607300,0.00700378,-1.00753784,0.244141,-0.122070,0.000000
3497748125,0.00607300,0.00700378,-1.00753784,0.244141,-0.183105,0.000000
3505161875,0.00592041,0.00785828,-1.00765991,0.244141,-0.183105,0.000000
3507710416,0.00592041,0.00785828,-1.00765991,0.244141,-0.122070,-0.061035
3515276708,0.00663757,0.00703430,-1.00698853,0.244141,-0.122070,-0.061035
3517821750,0.00663757,0.00703430,-1.00698853,0.244141,-0.122070,0.122070
3525384375,0.00555420,0.00723267,-1.00769043,0.244141,-0.122070,0.122070
3527932666,0.00555420,0.00723267,-1.00769043,0.305176,-0.183105,0.000000
3535121791,0.00578308,0.00669861,-1.00914001,0.305176,-0.183105,0.000000
3537667666,0.00578308,0.00669861,-1.00914001,0.366211,-0.061035,0.000000
3545303166,0.00598145,0.00639343,-1.00917053,0.366211,-0.061035,0.000000
3547612000,0.00598145,0.00639343,-1.00917053,0.366211,-0.183105,0.000000
3555202041,0.00648499,0.00653076,-1.00891113,0.366211,-0.183105,0.000000
3557748458,0.00648499,0.00653076,-1.00891113,0.305176,-0.183105,-0.122070
3565362708,0.00703430,0.00674438,-1.00863647,0.305176,-0.183105,-0.122070
3567921916,0.00703430,0.00674438,-1.00863647,0.427246,-0.061035,0.000000
3575693958,0.00758362,0.00575256,-1.00804138,0.427246,-0.061035,0.000000
3577783458,0.00758362,0.00575256,-1.00804138,0.549316,0.061035,-0.122070
3585379875,0.00646973,0.00531006,-1.00772095,0.549316,0.061035,-0.122070
3587924000,0.00646973,0.00531006,-1.00772095,0.305176,-0.061035,0.000000
3595528041,0.00656128,0.00561523,-1.00779724,0.305176,-0.061035,0.000000
3598075083,0.00656128,0.00561523,-1.00779724,0.366211,-0.244141,-0.061035
3605677000,0.00682068,0.00543213,-1.00796509,0.366211,-0.244141,-0.061035
3608229000,0.00682068,0.00543213,-1.00796509,0.244141,-0.305176,-0.061035
3615338958,0.00712585,0.00566101,-1.00798035,0.244141,-0.305176,-0.061035
3617891458,0.00712585,0.00566101,-1.00798035,0.366211,-0.183105,0.000000
3625484666,0.00640869,0.00665283,-1.00880432,0.366211,-0.183105,0.000000
3628026791,0.00640869,0.00665283,-1.00880432,0.305176,-0.122070,0.000000
3635455541,0.00709534,0.00711060,-1.00866699,0.305176,-0.122070,0.000000
3638005750,0.00709534,0.00711060,-1.00866699,0.305176,-0.244141,0.000000
3645623500,0.00675964,0.00703430,-1.00784302,0.305176,-0.244141,0.000000
3648176458,0.00675964,0.00703430,-1.00784302,0.305176,-0.122070,-0.061035
3655482375,0.00573730,0.00765991,-1.00842285,0.305176,-0.122070,-0.061035
3658026166,0.00573730,0.00765991,-1.00842285,0.305176,-0.061035,-0.183105
3665605416,0.00547791,0.00677490,-1.00796509,0.305176,-0.061035,-0.183105
3668151541,0.00547791,0.00677490,-1.00796509,0.305176,-0.122070,-0.061035
3675493208,0.00563049,0.00749207,-1.00819397,0.305176,-0.122070,-0.061035
3678050791,0.00563049,0.00749207,-1.00819397,0.366211,-0.183105,0.000000
3685649250,0.00569153,0.00744629,-1.00791931,0.366211,-0.183105,0.000000
3688192541,0.00569153,0.00744629,-1.00791931,0.366211,-0.061035,0.122070
3695421958,0.00555420,0.00657654,-1.00788879,0.366211,-0.061035,0.122070
3697972333,0.00555420,0.00657654,-1.00788879,0.244141,-0.061035,0.000000
3705617416,0.00691223,0.00683594,-1.00863647,0.244141,-0.061035,0.000000
3708190416,0.00691223,0.00683594,-1.00863647,0.244141,-0.183105,-0.061035
3715788000,0.00733948,0.00611877,-1.00689697,0.244141,-0.183105,-0.061035
3718329458,0.00733948,0.00611877,-1.00689697,0.305176,-0.061035,-0.061035
3725934500,0.00750732,0.00657654,-1.00660706,0.305176,-0.061035,-0.061035
3728484000,0.00750732,0.00657654,-1.00660706,0.427246,-0.244141,-0.061035
3736002666,0.00555420,0.00634766,-1.00781250,0.427246,-0.244141,-0.061035
3738555416,0.00555420,0.00634766,-1.00781250,0.366211,-0.122070,-0.061035
3746167666,0.00627136,0.00617981,-1.00859070,0.366211,-0.122070,-0.061035
3748714750,0.00627136,0.00617981,-1.00859070,0.366211,-0.122070,0.061035
3756313291,0.00640869,0.00592041,-1.00779724,0.366211,-0.122070,0.061035
3758853583,0.00640869,0.00592041,-1.00779724,0.244141,-0.122070,0.061035
3766478791,0.00665283,0.00708008,-1.00798035,0.244141,-0.122070,0.061035
3769028250,0.00665283,0.00708008,-1.00798035,0.427246,-0.183105,-0.122070
3774112541,0.00610352,0.00715637,-1.00611877,0.427246,-0.183105,-0.122070
3776690708,0.00610352,0.00715637,-1.00611877,0.244141,-0.244141,0.000000
3784324625,0.00651550,0.00608826,-1.01197815,0.244141,-0.244141,0.000000
3786884833,0.00651550,0.00608826,-1.01197815,0.305176,-0.061035,0.000000
3794486958,0.00633240,0.00683594,-1.00682068,0.305176,-0.061035,0.000000
3797048750,0.00633240,0.00683594,-1.00682068,0.427246,-0.061035,0.000000
3804274750,0.00486755,0.00694275,-1.00804138,0.427246,-0.061035,0.000000
3806827458,0.00486755,0.00694275,-1.00804138,0.244141,-0.183105,-0.061035
3814424000,0.00517273,0.00744629,-1.00724792,0.244141,-0.183105,-0.061035
3816966791,0.00517273,0.00744629,-1.00724792,0.183105,0.000000,-0.061035
3824582791,0.00462341,0.00726318,-1.00859070,0.183105,0.000000,-0.061035
3827138083,0.00462341,0.00726318,-1.00859070,0.427246,-0.183105,0.061035
3834761916,0.00569153,0.00781250,-1.00733948,0.427246,-0.183105,0.061035
3837002166,0.00569153,0.00781250,-1.00733948,0.183105,-0.183105,0.061035
3844414958,0.00650024,0.00714111,-1.00840759,0.183105,-0.183105,0.061035
3846977000,0.00650024,0.00714111,-1.00840759,0.427246,0.000000,-0.061035
3854581208,0.00814819,0.00663757,-1.00659180,0.427246,0.000000,-0.061035
3857119625,0.00814819,0.00663757,-1.00659180,0.427246,-0.061035,-0.061035
3864901208,0.00828552,0.00737000,-1.00671387,0.427246,-0.061035,-0.061035
3867503166,0.00828552,0.00737000,-1.00671387,0.549316,-0.183105,-0.061035
3875164916,0.00663757,0.00599670,-1.00895691,0.549316,-0.183105,-0.061035
3877726416,0.00663757,0.00599670,-1.00895691,0.366211,-0.183105,-0.061035
3885355625,0.00599670,0.00621033,-1.00671387,0.366211,-0.183105,-0.061035
3887886583,0.00599670,0.00621033,-1.00671387,0.305176,-0.244141,0.061035
3895246250,0.00708008,0.00666809,-1.00564575,0.305176,-0.244141,0.061035
3897804583,0.00708008,0.00666809,-1.00564575,0.244141,-0.244141,-0.061035
3905366458,0.00706482,0.00544739,-1.00845337,0.244141,-0.244141,-0.061035
3907904166,0.00706482,0.00544739,-1.00845337,0.244141,-0.061035,0.000000
3915432541,0.00669861,0.00567627,-1.00807190,0.244141,-0.061035,0.000000
3917990916,0.00669861,0.00567627,-1.00807190,0.244141,-0.122070,0.000000
3925580916,0.00570679,0.00640869,-1.00770569,0.244141,-0.122070,0.000000
3928119708,0.00570679,0.00640869,-1.00770569,0.183105,-0.244141,0.000000
3935436208,0.00523376,0.00654602,-1.00701904,0.183105,-0.244141,0.000000
3937881750,0.00523376,0.00654602,-1.00701904,0.244141,-0.122070,-0.122070
3945010250,0.00466919,0.00654602,-1.00813293,0.244141,-0.122070,-0.122070
3947541000,0.00466919,0.00654602,-1.00813293,0.366211,-0.061035,0.000000
3955179083,0.00485229,0.00712585,-1.00834656,0.366211,-0.061035,0.000000
3957718708,0.00485229,0.00712585,-1.00834656,0.488281,-0.183105,0.000000
3965317583,0.00477600,0.00659180,-1.00781250,0.488281,-0.183105,0.000000
3967861708,0.00477600,0.00659180,-1.00781250,0.183105,-0.183105,0.000000
3975486208,0.00529480,0.00703430,-1.00793457,0.183105,-0.183105,0.000000
3978043916,0.00529480,0.00703430,-1.00793457,0.305176,-0.122070,-0.061035
3985613833,0.00599670,0.00682068,-1.00909424,0.305176,-0.122070,-0.061035
3988170250,0.00599670,0.00682068,-1.00909424,0.488281,-0.183105,-0.061035
3995651708,0.00686646,0.00645447,-1.00802612,0.488281,-0.183105,-0.061035
3998200375,0.00686646,0.00645447,-1.00802612,0.366211,-0.122070,0.000000
4005818958,0.00762939,0.00646973,-1.00750732,0.366211,-0.122070,0.000000
4008376416,0.00762939,0.00646973,-1.00750732,0.244141,-0.122070,0.000000
4015970333,0.00714111,0.00621033,-1.00746155,0.244141,-0.122070,0.000000
4018511625,0.00714111,0.00621033,-1.00746155,0.488281,-0.122070,-0.061035
4026123000,0.00636292,0.00547791,-1.00817871,0.488281,-0.122070,-0.061035
4028535875,0.00636292,0.00547791,-1.00817871,0.244141,-0.183105,0.061035
4036142125,0.00726318,0.00555420,-1.00875854,0.244141,-0.183105,0.061035
4038690750,0.00726318,0.00555420,-1.00875854,0.366211,-0.122070,-0.122070
4046317791,0.00694275,0.00605774,-1.00801086,0.366211,-0.122070,-0.122070
4048868958,0.00694275,0.00605774,-1.00801086,0.366211,-0.244141,0.000000
4056091666,0.00688171,0.00708008,-1.00814819,0.366211,-0.244141,0.000000
4058652500,0.00688171,0.00708008,-1.00814819,0.427246,-0.122070,0.061035
4066091750,0.00636292,0.00692749,-1.00848389,0.427246,-0.122070,0.061035
4068641000,0.00636292,0.00692749,-1.00848389,0.427246,-0.244141,-0.061035
4075986750,0.00588989,0.00706482,-1.00718689,0.427246,-0.244141,-0.061035
4078543208,0.00588989,0.00706482,-1.00718689,0.427246,-0.122070,0.000000
4086132583,0.00584412,0.00711060,-1.00698853,0.427246,-0.122070,0.000000
4088679125,0.00584412,0.00711060,-1.00698853,0.366211,-0.122070,-0.061035
4096277750,0.00543213,0.00665283,-1.00772095,0.366211,-0.122070,-0.061035
4098850208,0.00543213,0.00665283,-1.00772095,0.305176,-0.305176,-0.122070
4106478041,0.00590515,0.00668335,-1.00772095,0.305176,-0.305176,-0.122070
4109032916,0.00590515,0.00668335,-1.00772095,0.549316,-0.061035,0.061035
4116649375,0.00611877,0.00621033,-1.00782776,0.549316,-0.061035,0.061035
4119218333,0.00611877,0.00621033,-1.00782776,0.366211,-0.183105,0.061035
4126516083,0.00689697,0.00666809,-1.00862122,0.366211,-0.183105,0.061035
4129074083,0.00689697,0.00666809,-1.00862122,0.183105,-0.061035,-0.061035
4136380666,0.00729370,0.00599670,-1.00866699,0.183105,-0.061035,-0.061035
4138931291,0.00729370,0.00599670,-1.00866699,0.366211,-0.183105,0.061035
4146313541,0.00622559,0.00611877,-1.00807190,0.366211,-0.183105,0.061035
4148880250,0.00622559,0.00611877,-1.00807190,0.427246,-0.244141,0.000000
4156489875,0.00685120,0.00674438,-1.00790405,0.427246,-0.244141,0.000000
4159043125,0.00685120,0.00674438,-1.00790405,0.183105,-0.244141,0.000000
4166656041,0.00711060,0.00674438,-1.00807190,0.183105,-0.244141,0.000000
4168903750,0.00711060,0.00674438,-1.00807190,0.305176,-0.183105,-0.122070
4176536958,0.00733948,0.00671387,-1.00868225,0.305176,-0.183105,-0.122070
4179099541,0.00733948,0.00671387,-1.00868225,0.366211,-0.122070,0.000000
4186724291,0.00578308,0.00608826,-1.00793457,0.366211,-0.122070,0.000000
4189279250,0.00578308,0.00608826,-1.00793457,0.244141,-0.122070,-0.061035
4196427375,0.00582886,0.00613403,-1.00813293,0.244141,-0.122070,-0.061035
4199011500,0.00582886,0.00613403,-1.00813293,0.366211,-0.183105,0.000000
4206339041,0.00584412,0.00642395,-1.00770569,0.366211,-0.183105,0.000000
4208908125,0.00584412,0.00642395,-1.00770569,0.305176,-0.122070,-0.061035
4216204000,0.00607300,0.00646973,-1.00781250,0.305176,-0.122070,-0.061035
4218754791,0.00607300,0.00646973,-1.00781250,0.305176,-0.122070,0.000000
4226099416,0.00671387,0.00639343,-1.00732422,0.305176,-0.122070,0.000000
4228648000,0.00671387,0.00639343,-1.00732422,0.366211,-0.183105,-0.061035
4236235000,0.00686646,0.00671387,-1.00923157,0.366211,-0.183105,-0.061035
4238796500,0.00686646,0.00671387,-1.00923157,0.366211,-0.183105,-0.061035
4246396333,0.00593567,0.00610352,-1.00883484,0.366211,-0.183105,-0.061035
4248940250,0.00593567,0.00610352,-1.00883484,0.305176,-0.122070,0.000000
4256187583,0.00415039,0.00646973,-1.00779724,0.305176,-0.122070,0.000000
4258743833,0.00415039,0.00646973,-1.00779724,0.244141,-0.183105,-0.183105
4266169833,0.00604248,0.00665283,-1.00701904,0.244141,-0.183105,-0.183105
4268542041,0.00604248,0.00665283,-1.00701904,0.427246,-0.244141,-0.061035
4276173041,0.00650024,0.00607300,-1.00714111,0.427246,-0.244141,-0.061035
4278739125,0.00650024,0.00607300,-1.00714111,0.244141,-0.183105,0.000000
4286370125,0.00700378,0.00611877,-1.00804138,0.244141,-0.183105,0.000000
4288946916,0.00700378,0.00611877,-1.00804138,0.427246,-0.061035,0.000000
4296580250,0.00639343,0.00735474,-1.00791931,0.427246,-0.061035,0.000000
4299138750,0.00639343,0.00735474,-1.00791931,0.366211,-0.183105,0.061035
4306813083,0.00627136,0.00651550,-1.00773621,0.366211,-0.183105,0.061035
4309388500,0.00627136,0.00651550,-1.00773621,0.427246,-0.183105,0.000000
4317072541,0.00622559,0.00704956,-1.00761414,0.244141,-0.061035,-0.061035
4324739500,0.00604248,0.00633240,-1.00703430,0.244141,-0.061035,-0.061035
4327295791,0.00604248,0.00633240,-1.00703430,0.366211,-0.061035,-0.183105
4334710833,0.00645447,0.00689697,-1.00697327,0.366211,-0.061035,-0.183105
4337272375,0.00645447,0.00689697,-1.00697327,0.305176,-0.061035,0.061035
4344781291,0.00669861,0.00604248,-1.00640869,0.305176,-0.061035,0.061035
4347343583,0.00669861,0.00604248,-1.00640869,0.244141,-0.183105,0.000000
4354954708,0.00749207,0.00595093,-1.00776672,0.244141,-0.183105,0.000000
4357502041,0.00749207,0.00595093,-1.00776672,0.305176,-0.183105,-0.061035
4365103208,0.00604248,0.00685120,-1.00880432,0.305176,-0.183105,-0.061035
4367656250,0.00604248,0.00685120,-1.00880432,0.183105,-0.244141,0.061035
4374950500,0.00563049,0.00740051,-1.00814819,0.183105,-0.244141,0.061035
4377510625,0.00563049,0.00740051,-1.00814819,0.366211,-0.061035,0.000000
4385109166,0.00566101,0.00669861,-1.00733948,0.366211,-0.061035,0.000000
4387649458,0.00566101,0.00669861,-1.00733948,0.366211,-0.305176,-0.183105
4397214791,0.00538635,0.00674438,-1.00761414,0.549316,-0.183105,-0.122070
4404831708,0.00659180,0.00695801,-1.00837708,0.549316,-0.183105,-0.122070
4407236000,0.00659180,0.00695801,-1.00837708,0.244141,-0.122070,-0.061035
4414841250,0.00741577,0.00672913,-1.00727844,0.244141,-0.122070,-0.061035
4417382250,0.00741577,0.00672913,-1.00727844,0.244141,-0.061035,-0.061035
4425008041,0.00706482,0.00718689,-1.00698853,0.244141,-0.061035,-0.061035
4427568125,0.00706482,0.00718689,-1.00698853,0.305176,-0.183105,-0.061035
4435157708,0.00621033,0.00566101,-1.00874329,0.305176,-0.183105,-0.061035
4437700125,0.00621033,0.00566101,-1.00874329,0.366211,-0.183105,-0.061035
4445315125,0.00683594,0.00650024,-1.00804138,0.366211,-0.183105,-0.061035
4447863833,0.00683594,0.00650024,-1.00804138,0.305176,-0.244141,0.000000
4455001000,0.00695801,0.00698853,-1.00885010,0.305176,-0.244141,0.000000
4457556125,0.00695801,0.00698853,-1.00885010,0.427246,-0.122070,-0.122070
4465144000,0.00657654,0.00572205,-1.00752258,0.427246,-0.122070,-0.122070
4467682541,0.00657654,0.00572205,-1.00752258,0.305176,-0.122070,-0.061035
4475310875,0.00677490,0.00654602,-1.00746155,0.305176,-0.122070,-0.061035
4477867666,0.00677490,0.00654602,-1.00746155,0.366211,-0.244141,-0.061035
4485463166,0.00668335,0.00683594,-1.00793457,0.366211,-0.244141,-0.061035
4488010166,0.00668335,0.00683594,-1.00793457,0.183105,-0.244141,-0.061035
4495349625,0.00685120,0.00672913,-1.00837708,0.183105,-0.244141,-0.061035
4497902708,0.00685120,0.00672913,-1.00837708,0.366211,-0.183105,0.000000
4505507458,0.00672913,0.00779724,-1.00686646,0.366211,-0.183105,0.000000
4507652416,0.00672913,0.00779724,-1.00686646,0.244141,-0.305176,0.000000
4515251458,0.00660706,0.00627136,-1.00756836,0.244141,-0.305176,0.000000
4517794125,0.00660706,0.00627136,-1.00756836,0.305176,-0.183105,-0.061035
4525295875,0.00654602,0.00619507,-1.00842285,0.305176,-0.183105,-0.061035
4527406500,0.00654602,0.00619507,-1.00842285,0.305176,-0.183105,0.061035
4535003541,0.00662231,0.00666809,-1.00730896,0.305176,-0.183105,0.061035
4537557416,0.00662231,0.00666809,-1.00730896,0.366211,-0.366211,0.000000
4545181958,0.00614929,0.00721741,-1.00849915,0.366211,-0.366211,0.000000
4547735250,0.00614929,0.00721741,-1.00849915,0.305176,-0.122070,0.122070
4555342666,0.00738525,0.00688171,-1.00784302,0.305176,-0.122070,0.122070
4557886625,0.00738525,0.00688171,-1.00784302,0.305176,-0.244141,-0.122070
4565486000,0.00643921,0.00666809,-1.00752258,0.305176,-0.244141,-0.122070
4568027166,0.00643921,0.00666809,-1.00752258,0.366211,-0.122070,0.000000
4575645791,0.00596619,0.00627136,-1.00717163,0.366211,-0.122070,0.000000
4578206708,0.00596619,0.00627136,-1.00717163,0.488281,-0.122070,0.000000
4585825583,0.00611877,0.00671387,-1.00764465,0.488281,-0.122070,0.000000
4588370791,0.00611877,0.00671387,-1.00764465,0.244141,-0.122070,-0.061035
4595953250,0.00476074,0.00674438,-1.00762939,0.244141,-0.122070,-0.061035
4598239791,0.00476074,0.00674438,-1.00762939,0.427246,-0.122070,0.000000
4605847916,0.00532532,0.00711060,-1.00755310,0.427246,-0.122070,0.000000
4608402750,0.00532532,0.00711060,-1.00755310,0.366211,-0.122070,-0.061035
4616010958,0.00688171,0.00648499,-1.00813293,0.366211,-0.122070,-0.061035
4618587375,0.00688171,0.00648499,-1.00813293,0.244141,-0.183105,0.000000
4626270916,0.00727844,0.00639343,-1.00842285,0.244141,-0.183105,0.000000
4628834958,0.00727844,0.00639343,-1.00842285,0.183105,-0.183105,-0.122070
4636454083,0.00723267,0.00566101,-1.00794983,0.183105,-0.183105,-0.122070
4639012583,0.00723267,0.00566101,-1.00794983,0.305176,-0.183105,-0.061035
4646327416,0.00669861,0.00617981,-1.00761414,0.305176,-0.183105,-0.061035
4648881791,0.00669861,0.00617981,-1.00761414,0.305176,-0.244141,-0.061035
4656256791,0.00628662,0.00634766,-1.00901794,0.305176,-0.244141,-0.061035
4658796208,0.00628662,0.00634766,-1.00901794,0.305176,-0.122070,-0.122070
4666104833,0.00675964,0.00601196,-1.00845337,0.305176,-0.122070,-0.122070
4668669000,0.00675964,0.00601196,-1.00845337,0.305176,-0.183105,0.000000
4676285541,0.00648499,0.00668335,-1.00749207,0.305176,-0.183105,0.000000
4678833375,0.00648499,0.00668335,-1.00749207,0.366211,-0.122070,0.000000
4686438125,0.00601196,0.00743103,-1.00816345,0.366211,-0.122070,0.000000
4688991625,0.00601196,0.00743103,-1.00816345,0.366211,-0.244141,-0.122070
4696602875,0.00573730,0.00723267,-1.00756836,0.366211,-0.244141,-0.122070
4699152791,0.00573730,0.00723267,-1.00756836,0.305176,-0.183105,-0.061035
4706766375,0.00634766,0.00724792,-1.00773621,0.305176,-0.183105,-0.061035
4708848458,0.00634766,0.00724792,-1.00773621,0.427246,-0.122070,-0.061035
4716461875,0.00645447,0.00711060,-1.00727844,0.427246,-0.122070,-0.061035
4719003416,0.00645447,0.00711060,-1.00727844,0.305176,-0.122070,-0.122070
4726599916,0.00675964,0.00683594,-1.00761414,0.305176,-0.122070,-0.122070
4729151000,0.00675964,0.00683594,-1.00761414,0.427246,-0.122070,-0.122070
4736696875,0.00646973,0.00607300,-1.00758362,0.427246,-0.122070,-0.122070
4739271583,0.00646973,0.00607300,-1.00758362,0.305176,-0.305176,-0.061035
4746896333,0.00773621,0.00654602,-1.00897217,0.305176,-0.305176,-0.061035
4749441166,0.00773621,0.00654602,-1.00897217,0.244141,-0.183105,0.183105
4757039125,0.00668335,0.00650024,-1.00854492,0.244141,-0.183105,0.183105
4759598333,0.00668335,0.00650024,-1.00854492,0.366211,-0.061035,0.000000
4764722125,0.00666809,0.00727844,-1.00727844,0.366211,-0.061035,0.000000
4769843916,0.00666809,0.00727844,-1.00727844,0.305176,-0.122070,0.000000
4777150291,0.00744629,0.00651550,-1.00781250,0.305176,-0.122070,0.000000
4779731916,0.00744629,0.00651550,-1.00781250,0.549316,-0.183105,0.061035
4784750083,0.00631714,0.00671387,-1.00834656,0.549316,-0.183105,0.061035
4789826333,0.00631714,0.00671387,-1.00834656,0.305176,-0.122070,-0.061035
4797092166,0.00639343,0.00616455,-1.00750732,0.305176,-0.122070,-0.061035
4799644166,0.00639343,0.00616455,-1.00750732,0.305176,-0.183105,0.000000
4804749208,0.00573730,0.00680542,-1.00804138,0.305176,-0.183105,0.000000
4809841916,0.00573730,0.00680542,-1.00804138,0.366211,-0.244141,0.000000
4814916333,0.00559998,0.00712585,-1.00866699,0.366211,-0.244141,0.000000
4819982958,0.00559998,0.00712585,-1.00866699,0.244141,-0.183105,-0.122070
4825050250,0.00634766,0.00610352,-1.00834656,0.244141,-0.183105,-0.122070
4830129833,0.00634766,0.00610352,-1.00834656,0.244141,-0.061035,0.000000
4835218708,0.00704956,0.00680542,-1.00767517,0.244141,-0.061035,0.000000
4837776166,0.00704956,0.00680542,-1.00767517,0.366211,-0.183105,-0.122070
4845060875,0.00595093,0.00740051,-1.00915527,0.366211,-0.183105,-0.122070
4847618208,0.00595093,0.00740051,-1.00915527,0.244141,-0.244141,-0.122070
4857297750,0.00642395,0.00660706,-1.00811768,0.244141,-0.244141,-0.122070
4859846416,0.00642395,0.00660706,-1.00811768,0.305176,-0.122070,-0.061035
4864915708,0.00724792,0.00650024,-1.00726318,0.305176,-0.122070,-0.061035
4869830916,0.00724792,0.00650024,-1.00726318,0.305176,-0.183105,-0.061035
4874911458,0.00660706,0.00593567,-1.00633240,0.305176,-0.183105,-0.061035
4879987583,0.00660706,0.00593567,-1.00633240,0.427246,-0.122070,0.061035
4885072625,0.00723267,0.00637817,-1.00767517,0.427246,-0.122070,0.061035
4889755416,0.00723267,0.00637817,-1.00767517,0.244141,-0.122070,-0.122070
4894860250,0.00624084,0.00686646,-1.00712585,0.244141,-0.122070,-0.122070
4899715541,0.00624084,0.00686646,-1.00712585,0.366211,0.000000,0.000000
4907359750,0.00619507,0.00619507,-1.00801086,0.366211,0.000000,0.000000
4909918875,0.00619507,0.00619507,-1.00801086,0.305176,-0.183105,0.000000
4914987125,0.00650024,0.00624084,-1.00897217,0.305176,-0.183105,0.000000
4920060250,0.00650024,0.00624084,-1.00897217,0.244141,-0.183105,0.000000
4925142833,0.00680542,0.00631714,-1.00730896,0.244141,-0.183105,0.000000
4927700125,0.00680542,0.00631714,-1.00730896,0.366211,-0.183105,-0.061035
4935042583,0.00708008,0.00643921,-1.00793457,0.366211,-0.183105,-0.061035
4940196666,0.00708008,0.00643921,-1.00793457,0.305176,-0.122070,0.000000
4945295708,0.00614929,0.00631714,-1.00836182,0.305176,-0.122070,0.000000
4947838708,0.00614929,0.00631714,-1.00836182,0.244141,-0.183105,-0.061035
4955440041,0.00659180,0.00697327,-1.00880432,0.244141,-0.183105,-0.061035
4957985166,0.00659180,0.00697327,-1.00880432,0.305176,-0.122070,-0.122070
4965464500,0.00733948,0.00625610,-1.00738525,0.305176,-0.122070,-0.122070
4970193250,0.00733948,0.00625610,-1.00738525,0.305176,-0.244141,0.061035
4975095375,0.00614929,0.00622559,-1.00761414,0.305176,-0.244141,0.061035
4977686958,0.00614929,0.00622559,-1.00761414,0.305176,-0.183105,0.061035
4985144375,0.00602722,0.00657654,-1.00764465,0.305176,-0.183105,0.061035
4987730916,0.00602722,0.00657654,-1.00764465,0.305176,-0.122070,0.000000
4995196833,0.00689697,0.00720215,-1.00778198,0.305176,-0.122070,0.000000
4997748583,0.00689697,0.00720215,-1.00778198,0.366211,-0.183105,-0.061035
5005359291,0.00619507,0.00608826,-1.00779724,0.366211,-0.183105,-0.061035
5007734041,0.00619507,0.00608826,-1.00779724,0.366211,-0.183105,0.061035
5015460166,0.00593567,0.00559998,-1.00764465,0.366211,-0.183105,0.061035
5018001375,0.00593567,0.00559998,-1.00764465,0.427246,-0.183105,-0.061035
5025468458,0.00588989,0.00663757,-1.00721741,0.427246,-0.183105,-0.061035
5028016125,0.00588989,0.00663757,-1.00721741,0.366211,-0.183105,0.122070
5035610791,0.00714111,0.00621033,-1.00741577,0.366211,-0.183105,0.122070
5038160875,0.00714111,0.00621033,-1.00741577,0.244141,-0.183105,-0.061035
5045781666,0.00750732,0.00573730,-1.00798035,0.244141,-0.183105,-0.061035
5048348666,0.00750732,0.00573730,-1.00798035,0.366211,-0.183105,-0.122070
5055837583,0.00709534,0.00674438,-1.00796509,0.366211,-0.183105,-0.122070
5058382250,0.00709534,0.00674438,-1.00796509,0.366211,-0.061035,0.000000
5065998666,0.00604248,0.00599670,-1.00675964,0.366211,-0.061035,0.000000
5068547208,0.00604248,0.00599670,-1.00675964,0.183105,-0.183105,-0.061035
5076194125,0.00595093,0.00592041,-1.00759888,0.183105,-0.183105,-0.061035
5078659416,0.00595093,0.00592041,-1.00759888,0.244141,-0.305176,-0.061035
5086187750,0.00686646,0.00590515,-1.00801086,0.244141,-0.305176,-0.061035
5088747000,0.00686646,0.00590515,-1.00801086,0.305176,-0.183105,0.061035
5096349458,0.00616455,0.00663757,-1.00779724,0.305176,-0.183105,0.061035
5098893208,0.00616455,0.00663757,-1.00779724,0.305176,-0.305176,-0.122070
5106508958,0.00663757,0.00643921,-1.00721741,0.305176,-0.305176,-0.122070
5109062166,0.00663757,0.00643921,-1.00721741,0.366211,-0.122070,0.061035
5116686875,0.00660706,0.00671387,-1.00796509,0.366211,-0.122070,0.061035
5119241333,0.00660706,0.00671387,-1.00796509,0.366211,-0.244141,-0.061035
5126231208,0.00659180,0.00741577,-1.00762939,0.366211,-0.244141,-0.061035
5128784375,0.00659180,0.00741577,-1.00762939,0.305176,-0.183105,0.000000
5136385708,0.00578308,0.00717163,-1.00866699,0.305176,-0.183105,0.000000
5138955291,0.00578308,0.00717163,-1.00866699,0.305176,-0.244141,0.000000
5146571541,0.00605774,0.00637817,-1.00891113,0.305176,-0.244141,0.000000
5149127166,0.00605774,0.00637817,-1.00891113,0.305176,-0.122070,-0.122070
5156723083,0.00622559,0.00788879,-1.00833130,0.305176,-0.122070,-0.122070
5159261958,0.00622559,0.00788879,-1.00833130,0.183105,-0.244141,-0.061035
5166877500,0.00611877,0.00677490,-1.00799561,0.183105,-0.244141,-0.061035
5169445166,0.00611877,0.00677490,-1.00799561,0.183105,-0.122070,0.061035
5177070250,0.00582886,0.00622559,-1.00723267,0.183105,-0.122070,0.061035
5179619083,0.00582886,0.00622559,-1.00723267,0.183105,-0.122070,0.122070
5186992833,0.00569153,0.00625610,-1.00820923,0.183105,-0.122070,0.122070
5189538625,0.00569153,0.00625610,-1.00820923,0.305176,0.000000,-0.061035
5197128708,0.00671387,0.00602722,-1.00808716,0.305176,0.000000,-0.061035
5199673750,0.00671387,0.00602722,-1.00808716,0.305176,-0.183105,-0.122070
5207021166,0.00718689,0.00636292,-1.00747681,0.305176,-0.183105,-0.122070
5209489083,0.00718689,0.00636292,-1.00747681,0.366211,-0.183105,-0.122070
5217088166,0.00605774,0.00633240,-1.00738525,0.366211,-0.183105,-0.122070
5219645333,0.00605774,0.00633240,-1.00738525,0.366211,-0.183105,0.000000
5227256333,0.00630188,0.00642395,-1.00723267,0.366211,-0.183105,0.000000
5229813416,0.00630188,0.00642395,-1.00723267,0.305176,-0.183105,0.000000
5237430666,0.00630188,0.00730896,-1.00738525,0.305176,-0.183105,0.000000
5239990208,0.00630188,0.00730896,-1.00738525,0.305176,-0.183105,0.000000
5247632666,0.00709534,0.00715637,-1.00714111,0.366211,-0.122070,-0.061035
5255233958,0.00683594,0.00587463,-1.00767517,0.366211,-0.122070,-0.061035
5257677750,0.00683594,0.00587463,-1.00767517,0.183105,-0.244141,-0.122070
5265292875,0.00668335,0.00750732,-1.00834656,0.183105,-0.244141,-0.122070
5270106083,0.00668335,0.00750732,-1.00834656,0.305176,-0.183105,-0.061035
5275225666,0.00592041,0.00796509,-1.00822449,0.305176,-0.183105,-0.061035
5277773125,0.00592041,0.00796509,-1.00822449,0.366211,-0.122070,-0.122070
5285393625,0.00657654,0.00723267,-1.00698853,0.366211,-0.122070,-0.122070
5287943250,0.00657654,0.00723267,-1.00698853,0.366211,-0.122070,0.000000
5295254250,0.00637817,0.00674438,-1.00772095,0.366211,-0.122070,0.000000
5297809500,0.00637817,0.00674438,-1.00772095,0.366211,-0.122070,-0.061035
5305434208,0.00566101,0.00683594,-1.00761414,0.366211,-0.122070,-0.061035
5307994583,0.00566101,0.00683594,-1.00761414,0.366211,-0.183105,-0.061035
5315562791,0.00714111,0.00682068,-1.00833130,0.366211,-0.183105,-0.061035
5318105333,0.00714111,0.00682068,-1.00833130,0.244141,-0.183105,-0.061035
5325715916,0.00650024,0.00698853,-1.00785828,0.244141,-0.183105,-0.061035
5328277625,0.00650024,0.00698853,-1.00785828,0.488281,-0.183105,0.000000
5335212541,0.00657654,0.00605774,-1.00837708,0.488281,-0.183105,0.000000
5337784208,0.00657654,0.00605774,-1.00837708,0.305176,-0.061035,-0.061035
5345415750,0.00700378,0.00570679,-1.00715637,0.305176,-0.061035,-0.061035
5347973250,0.00700378,0.00570679,-1.00715637,0.427246,-0.122070,0.000000
5355590541,0.00631714,0.00550842,-1.00770569,0.427246,-0.122070,0.000000
5358139375,0.00631714,0.00550842,-1.00770569,0.366211,-0.183105,0.061035
5365730666,0.00622559,0.00654602,-1.00875854,0.366211,-0.183105,0.061035
5368285333,0.00622559,0.00654602,-1.00875854,0.305176,-0.122070,-0.061035
5375906666,0.00492859,0.00689697,-1.00801086,0.305176,-0.122070,-0.061035
5378462416,0.00492859,0.00689697,-1.00801086,0.305176,-0.061035,-0.061035
5386069541,0.00558472,0.00680542,-1.00677490,0.305176,-0.061035,-0.061035
5388617291,0.00558472,0.00680542,-1.00677490,0.427246,0.000000,-0.061035
5396205958,0.00602722,0.00666809,-1.00778198,0.427246,0.000000,-0.061035
5398748750,0.00602722,0.00666809,-1.00778198,0.183105,-0.244141,-0.061035
5406381833,0.00650024,0.00755310,-1.00842285,0.183105,-0.244141,-0.061035
5408963083,0.00650024,0.00755310,-1.00842285,0.183105,-0.183105,0.000000
5416567875,0.00579834,0.00761414,-1.00808716,0.183105,-0.183105,0.000000
5419111208,0.00579834,0.00761414,-1.00808716,0.488281,-0.061035,0.000000
5426731791,0.00628662,0.00714111,-1.00718689,0.488281,-0.061035,0.000000
5429279500,0.00628662,0.00714111,-1.00718689,0.305176,-0.122070,-0.061035
5436640875,0.00610352,0.00695801,-1.00785828,0.305176,-0.122070,-0.061035
5439206791,0.00610352,0.00695801,-1.00785828,0.305176,-0.061035,0.000000
5446800708,0.00727844,0.00650024,-1.00842285,0.305176,-0.061035,0.000000
5449336708,0.00727844,0.00650024,-1.00842285,0.488281,-0.183105,0.000000
5456916333,0.00706482,0.00601196,-1.00791931,0.488281,-0.183105,0.000000
5459460583,0.00706482,0.00601196,-1.00791931,0.366211,-0.183105,0.000000
5467035500,0.00668335,0.00576782,-1.00874329,0.366211,-0.183105,0.000000
5469572750,0.00668335,0.00576782,-1.00874329,0.305176,-0.183105,0.000000
5477183708,0.00605774,0.00753784,-1.00843811,0.305176,-0.183105,0.000000
5479733041,0.00605774,0.00753784,-1.00843811,0.366211,-0.305176,-0.061035
5487335041,0.00679016,0.00709534,-1.00753784,0.366211,-0.305176,-0.061035
5489888541,0.00679016,0.00709534,-1.00753784,0.366211,-0.122070,-0.061035
5497511166,0.00700378,0.00643921,-1.00733948,0.366211,-0.122070,-0.061035
5499590166,0.00700378,0.00643921,-1.00733948,0.244141,-0.244141,-0.183105
5506893666,0.00602722,0.00621033,-1.00875854,0.244141,-0.244141,-0.183105
5509451500,0.00602722,0.00621033,-1.00875854,0.305176,-0.183105,0.061035
5516541541,0.00692749,0.00775146,-1.00827026,0.305176,-0.183105,0.061035
5519090708,0.00692749,0.00775146,-1.00827026,0.305176,-0.244141,0.000000
5526690250,0.00813293,0.00740051,-1.00794983,0.305176,-0.244141,0.000000
5529095333,0.00813293,0.00740051,-1.00794983,0.305176,0.061035,0.061035
5536421541,0.00631714,0.00656128,-1.00852966,0.305176,0.061035,0.061035
5538981375,0.00631714,0.00656128,-1.00852966,0.305176,0.061035,0.061035
5546623500,0.00685120,0.00685120,-1.00895691,0.305176,0.061035,0.061035
5549171458,0.00685120,0.00685120,-1.00895691,0.366211,-0.183105,-0.122070
5556764708,0.00680542,0.00747681,-1.00903320,0.366211,-0.183105,-0.122070
5559316625,0.00680542,0.00747681,-1.00903320,0.488281,-0.061035,0.061035
5566929708,0.00779724,0.00660706,-1.00729370,0.488281,-0.061035,0.061035
5569477041,0.00779724,0.00660706,-1.00729370,0.305176,-0.305176,-0.061035
5577091416,0.00825500,0.00556946,-1.00695801,0.305176,-0.305176,-0.061035
5579638083,0.00825500,0.00556946,-1.00695801,0.305176,-0.244141,-0.061035
5587226375,0.00604248,0.00634766,-1.00816345,0.305176,-0.244141,-0.061035
5589355083,0.00604248,0.00634766,-1.00816345,0.244141,-0.122070,0.000000
5596960375,0.00602722,0.00614929,-1.00811768,0.244141,-0.122070,0.000000
5599526500,0.00602722,0.00614929,-1.00811768,0.244141,-0.183105,-0.061035
5607142708,0.00541687,0.00614929,-1.00750732,0.244141,-0.183105,-0.061035
5609524958,0.00541687,0.00614929,-1.00750732,0.305176,-0.183105,0.061035
5617111916,0.00747681,0.00622559,-1.00761414,0.305176,-0.183105,0.061035
5619647541,0.00747681,0.00622559,-1.00761414,0.183105,-0.183105,-0.122070
5627291375,0.00650024,0.00593567,-1.00743103,0.183105,-0.183105,-0.122070
5629822125,0.00650024,0.00593567,-1.00743103,0.305176,-0.122070,0.000000
5637393125,0.00576782,0.00650024,-1.00743103,0.305176,-0.122070,0.000000
5639909625,0.00576782,0.00650024,-1.00743103,0.366211,-0.122070,0.061035
5647437291,0.00619507,0.00704956,-1.00750732,0.366211,-0.122070,0.061035
5649953958,0.00619507,0.00704956,-1.00750732,0.427246,-0.122070,-0.061035
5657649041,0.00660706,0.00701904,-1.00729370,0.427246,-0.122070,-0.061035
5660175500,0.00660706,0.00701904,-1.00729370,0.305176,-0.183105,0.000000
5667708375,0.00570679,0.00636292,-1.00720215,0.305176,-0.183105,0.000000
5670224333,0.00570679,0.00636292,-1.00720215,0.427246,-0.183105,-0.122070
5677754458,0.00532532,0.00634766,-1.00737000,0.427246,-0.183105,-0.122070
5680270750,0.00532532,0.00634766,-1.00737000,0.366211,-0.122070,0.000000
5687801166,0.00604248,0.00639343,-1.00817871,0.366211,-0.122070,0.000000
5690368333,0.00604248,0.00639343,-1.00817871,0.366211,-0.183105,-0.122070
5698034375,0.00575256,0.00674438,-1.00770569,0.427246,0.000000,0.061035
5708020791,0.00581360,0.00698853,-1.00842285,0.366211,-0.061035,-0.061035
5718113625,0.00656128,0.00653076,-1.00720215,0.244141,-0.122070,0.122070
5727891291,0.00650024,0.00675964,-1.00819397,0.244141,-0.122070,0.122070
5730450250,0.00650024,0.00675964,-1.00819397,0.244141,-0.122070,-0.061035
5738045166,0.00663757,0.00816345,-1.00804138,0.366211,-0.061035,-0.061035
5748185416,0.00654602,0.00698853,-1.00791931,0.244141,-0.183105,0.000000
5755821875,0.00712585,0.00659180,-1.00784302,0.244141,-0.183105,0.000000
5758371750,0.00712585,0.00659180,-1.00784302,0.366211,-0.183105,0.061035
5765718458,0.00785828,0.00633240,-1.00938416,0.366211,-0.183105,0.061035
5768285750,0.00785828,0.00633240,-1.00938416,0.305176,-0.122070,-0.061035
5778147333,0.00630188,0.00584412,-1.00856018,0.427246,-0.061035,0.000000
5785746250,0.00584412,0.00599670,-1.00790405,0.427246,-0.061035,0.000000
5788285916,0.00584412,0.00599670,-1.00790405,0.427246,-0.244141,-0.061035
5795882208,0.00709534,0.00662231,-1.00924683,0.427246,-0.244141,-0.061035
5798423500,0.00709534,0.00662231,-1.00924683,0.305176,-0.122070,0.000000
5806034416,0.00602722,0.00650024,-1.00828552,0.305176,-0.122070,0.000000
5808110083,0.00602722,0.00650024,-1.00828552,0.061035,-0.183105,-0.183105
5817743583,0.00593567,0.00619507,-1.00794983,0.061035,-0.183105,-0.183105
5820291291,0.00593567,0.00619507,-1.00794983,0.366211,-0.122070,-0.122070
5827914875,0.00740051,0.00625610,-1.00733948,0.366211,-0.122070,-0.122070
5830468541,0.00740051,0.00625610,-1.00733948,0.366211,-0.061035,0.000000
5838156291,0.00672913,0.00706482,-1.00752258,0.183105,-0.122070,-0.122070
5847452916,0.00624084,0.00656128,-1.00689697,0.183105,-0.122070,-0.122070
5849652875,0.00624084,0.00656128,-1.00689697,0.183105,-0.305176,-0.061035
5857264291,0.00634766,0.00543213,-1.00947571,0.183105,-0.305176,-0.061035
5859819625,0.00634766,0.00543213,-1.00947571,0.244141,-0.244141,0.000000
5867147333,0.00653076,0.00648499,-1.00904846,0.244141,-0.244141,0.000000
5869687833,0.00653076,0.00648499,-1.00904846,0.366211,-0.183105,-0.183105
5877043708,0.00625610,0.00724792,-1.00935364,0.366211,-0.183105,-0.183105
5879608291,0.00625610,0.00724792,-1.00935364,0.244141,-0.183105,0.000000
5887212375,0.00584412,0.00637817,-1.00711060,0.244141,-0.183105,0.000000
5889755500,0.00584412,0.00637817,-1.00711060,0.366211,-0.122070,0.000000
5897366041,0.00567627,0.00621033,-1.00759888,0.366211,-0.122070,0.000000
5899918666,0.00567627,0.00621033,-1.00759888,0.244141,-0.183105,-0.061035
5907537333,0.00614929,0.00608826,-1.00830078,0.244141,-0.183105,-0.061035
5910087541,0.00614929,0.00608826,-1.00830078,0.366211,-0.244141,-0.061035
5917690458,0.00607300,0.00701904,-1.00790405,0.366211,-0.244141,-0.061035
5920249333,0.00607300,0.00701904,-1.00790405,0.305176,-0.183105,-0.122070
5927850750,0.00630188,0.00625610,-1.00717163,0.305176,-0.183105,-0.122070
5930395500,0.00630188,0.00625610,-1.00717163,0.427246,-0.244141,0.000000
5938008541,0.00672913,0.00656128,-1.00759888,0.427246,-0.244141,0.000000
5940590833,0.00672913,0.00656128,-1.00759888,0.183105,-0.305176,-0.122070
5947582291,0.00830078,0.00727844,-1.00846863,0.183105,-0.305176,-0.122070
5950134333,0.00830078,0.00727844,-1.00846863,0.244141,-0.183105,-0.061035
5957542916,0.00712585,0.00657654,-1.00868225,0.244141,-0.183105,-0.061035
5960086583,0.00712585,0.00657654,-1.00868225,0.244141,-0.183105,-0.183105
5967066750,0.00689697,0.00730896,-1.00823975,0.244141,-0.183105,-0.183105
5969631791,0.00689697,0.00730896,-1.00823975,0.488281,-0.122070,0.061035
5977032500,0.00654602,0.00683594,-1.00804138,0.488281,-0.122070,0.061035
5979587125,0.00654602,0.00683594,-1.00804138,0.366211,-0.122070,0.000000
5987183625,0.00665283,0.00627136,-1.00794983,0.366211,-0.122070,0.000000
5989727666,0.00665283,0.00627136,-1.00794983,0.366211,-0.183105,0.000000
5997315916,0.00538635,0.00656128,-1.00715637,0.366211,-0.183105,0.000000
5999854166,0.00538635,0.00656128,-1.00715637,0.427246,-0.061035,-0.061035
6007232125,0.00631714,0.00610352,-1.00755310,0.427246,-0.061035,-0.061035
6009486875,0.00631714,0.00610352,-1.00755310,0.244141,0.000000,0.000000
6017153500,0.00575256,0.00558472,-1.00891113,0.244141,0.000000,0.000000
6019705166,0.00575256,0.00558472,-1.00891113,0.183105,-0.183105,0.000000
6027321041,0.00650024,0.00663757,-1.00840759,0.183105,-0.183105,0.000000
6029866291,0.00650024,0.00663757,-1.00840759,0.427246,-0.122070,0.061035
6037011625,0.00592041,0.00727844,-1.00791931,0.427246,-0.122070,0.061035
6039601750,0.00592041,0.00727844,-1.00791931,0.305176,-0.183105,0.000000
6047208250,0.00621033,0.00703430,-1.00892639,0.305176,-0.183105,0.000000
6049750916,0.00621033,0.00703430,-1.00892639,0.366211,-0.183105,-0.061035
6057325083,0.00738525,0.00715637,-1.00781250,0.366211,-0.183105,-0.061035
6059870500,0.00738525,0.00715637,-1.00781250,0.305176,-0.183105,0.061035
6067301291,0.00636292,0.00640869,-1.00856018,0.305176,-0.183105,0.061035
6069853083,0.00636292,0.00640869,-1.00856018,0.244141,-0.244141,-0.183105
6077469208,0.00729370,0.00650024,-1.00856018,0.244141,-0.244141,-0.183105
6080025041,0.00729370,0.00650024,-1.00856018,0.366211,-0.122070,0.000000
6087475541,0.00704956,0.00741577,-1.00744629,0.366211,-0.122070,0.000000
6090020291,0.00704956,0.00741577,-1.00744629,0.427246,-0.061035,-0.122070
6097319416,0.00671387,0.00688171,-1.00762939,0.427246,-0.061035,-0.122070
6099872000,0.00671387,0.00688171,-1.00762939,0.305176,-0.183105,-0.061035
6107480708,0.00669861,0.00706482,-1.00714111,0.305176,-0.183105,-0.061035
6110028416,0.00669861,0.00706482,-1.00714111,0.305176,-0.122070,-0.061035
6117632666,0.00701904,0.00625610,-1.00801086,0.305176,-0.122070,-0.061035
6120192291,0.00701904,0.00625610,-1.00801086,0.244141,-0.244141,-0.061035
6127477166,0.00701904,0.00610352,-1.00814819,0.244141,-0.244141,-0.061035
6130023000,0.00701904,0.00610352,-1.00814819,0.427246,-0.244141,0.061035
6137615458,0.00558472,0.00633240,-1.00743103,0.427246,-0.244141,0.061035
6140166083,0.00558472,0.00633240,-1.00743103,0.366211,-0.061035,-0.061035
6147753208,0.00657654,0.00691223,-1.00856018,0.366211,-0.061035,-0.061035
6150293625,0.00657654,0.00691223,-1.00856018,0.366211,-0.183105,-0.061035
6157910291,0.00672913,0.00653076,-1.00811768,0.366211,-0.183105,-0.061035
6160461041,0.00672913,0.00653076,-1.00811768,0.244141,-0.061035,-0.061035
6168046166,0.00695801,0.00628662,-1.00746155,0.244141,-0.061035,-0.061035
6170583666,0.00695801,0.00628662,-1.00746155,0.427246,-0.244141,-0.122070
6178191083,0.00653076,0.00576782,-1.00732422,0.427246,-0.244141,-0.122070
6180415458,0.00653076,0.00576782,-1.00732422,0.366211,-0.244141,0.000000
6187704041,0.00627136,0.00595093,-1.00785828,0.366211,-0.244141,0.000000
6190264916,0.00627136,0.00595093,-1.00785828,0.244141,-0.244141,0.000000
6197885791,0.00596619,0.00640869,-1.00706482,0.244141,-0.244141,0.000000
6200437958,0.00596619,0.00640869,-1.00706482,0.244141,-0.244141,0.122070
6207902916,0.00630188,0.00666809,-1.00862122,0.244141,-0.244141,0.122070
6210452958,0.00630188,0.00666809,-1.00862122,0.366211,-0.061035,0.000000
6218048458,0.00654602,0.00636292,-1.00834656,0.366211,-0.061035,0.000000
6220604041,0.00654602,0.00636292,-1.00834656,0.305176,-0.122070,0.000000
6228216500,0.00697327,0.00730896,-1.00761414,0.305176,-0.122070,0.000000
6230759041,0.00697327,0.00730896,-1.00761414,0.305176,-0.244141,0.000000
6238050833,0.00759888,0.00740051,-1.00875854,0.305176,-0.244141,0.000000
6240599083,0.00759888,0.00740051,-1.00875854,0.305176,-0.183105,0.061035
6247925166,0.00747681,0.00706482,-1.00782776,0.305176,-0.183105,0.061035
6250467166,0.00747681,0.00706482,-1.00782776,0.305176,0.061035,-0.183105
6257615750,0.00651550,0.00654602,-1.00756836,0.305176,0.061035,-0.183105
6260171041,0.00651550,0.00654602,-1.00756836,0.366211,-0.122070,0.000000
6267909791,0.00668335,0.00682068,-1.00804138,0.366211,-0.122070,0.000000
6270483583,0.00668335,0.00682068,-1.00804138,0.427246,-0.061035,0.000000
6278141291,0.00631714,0.00663757,-1.00718689,0.427246,-0.061035,0.000000
6280722375,0.00631714,0.00663757,-1.00718689,0.366211,-0.244141,-0.061035
6287999208,0.00717163,0.00624084,-1.00773621,0.366211,-0.244141,-0.061035
6290537625,0.00717163,0.00624084,-1.00773621,0.305176,-0.183105,-0.122070
6297851708,0.00656128,0.00622559,-1.00747681,0.305176,-0.183105,-0.122070
6300396958,0.00656128,0.00622559,-1.00747681,0.244141,-0.122070,-0.183105
6308021583,0.00611877,0.00669861,-1.00708008,0.244141,-0.122070,-0.183105
6310571708,0.00611877,0.00669861,-1.00708008,0.183105,-0.244141,0.000000
6318160541,0.00579834,0.00604248,-1.00956726,0.183105,-0.244141,0.000000
6320324000,0.00579834,0.00604248,-1.00956726,0.305176,-0.122070,-0.061035
6327945000,0.00547791,0.00717163,-1.00859070,0.305176,-0.122070,-0.061035
6330194083,0.00547791,0.00717163,-1.00859070,0.732422,-0.305176,-0.061035
6337825375,0.00636292,0.00784302,-1.00561523,0.732422,-0.305176,-0.061035
6340436833,0.00636292,0.00784302,-1.00561523,0.366211,-0.061035,0.000000
6348001125,0.00724792,0.00666809,-1.00529480,0.366211,-0.061035,0.000000
6350556791,0.00724792,0.00666809,-1.00529480,0.427246,-0.244141,-0.122070
6358178250,0.00743103,0.00624084,-1.01037598,0.427246,-0.244141,-0.122070
6360731291,0.00743103,0.00624084,-1.01037598,0.244141,-0.061035,-0.061035
6368320541,0.00711060,0.00621033,-1.00813293,0.244141,-0.061035,-0.061035
6370877833,0.00711060,0.00621033,-1.00813293,0.366211,-0.122070,0.000000
6378193333,0.00708008,0.00558472,-1.00845337,0.366211,-0.122070,0.000000
6380550333,0.00708008,0.00558472,-1.00845337,0.244141,-0.183105,-0.122070
6388154333,0.00595093,0.00579834,-1.00733948,0.244141,-0.183105,-0.122070
6390697291,0.00595093,0.00579834,-1.00733948,0.244141,-0.305176,-0.061035
6397875250,0.00694275,0.00582886,-1.00817871,0.244141,-0.305176,-0.061035
6400418625,0.00694275,0.00582886,-1.00817871,0.305176,-0.122070,0.000000
6408053625,0.00689697,0.00595093,-1.00939941,0.305176,-0.122070,0.000000
6410628208,0.00689697,0.00595093,-1.00939941,0.305176,-0.183105,0.000000
6416805833,0.00665283,0.00703430,-1.00857544,0.305176,-0.183105,0.000000
6419365333,0.00665283,0.00703430,-1.00857544,0.244141,-0.061035,0.000000
6427032958,0.00605774,0.00852966,-1.00765991,0.244141,-0.061035,0.000000
6429576666,0.00605774,0.00852966,-1.00765991,0.305176,-0.183105,0.000000
6437223958,0.00613403,0.00772095,-1.00822449,0.305176,-0.183105,0.000000
6439784166,0.00613403,0.00772095,-1.00822449,0.183105,-0.122070,-0.061035
6447423875,0.00558472,0.00813293,-1.00866699,0.183105,-0.122070,-0.061035
6449572375,0.00558472,0.00813293,-1.00866699,0.122070,-0.122070,0.000000
6457267791,0.00491333,0.00790405,-1.00787354,0.122070,-0.122070,0.000000
6459806500,0.00491333,0.00790405,-1.00787354,0.366211,-0.122070,-0.183105
6467312666,0.00563049,0.00619507,-1.00759888,0.366211,-0.122070,-0.183105
6469926416,0.00563049,0.00619507,-1.00759888,0.244141,-0.122070,-0.061035
6477621083,0.00637817,0.00637817,-1.00807190,0.244141,-0.122070,-0.061035
6480174541,0.00637817,0.00637817,-1.00807190,0.244141,-0.305176,0.061035
6487663208,0.00679016,0.00682068,-1.00849915,0.244141,-0.305176,0.061035
6489857666,0.00679016,0.00682068,-1.00849915,0.366211,-0.305176,0.000000
6497442208,0.00683594,0.00695801,-1.00845337,0.366211,-0.305176,0.000000
6499982708,0.00683594,0.00695801,-1.00845337,0.366211,-0.122070,0.000000
6507585333,0.00727844,0.00671387,-1.00909424,0.366211,-0.122070,0.000000
6510133958,0.00727844,0.00671387,-1.00909424,0.366211,-0.122070,0.000000
6517727625,0.00695801,0.00567627,-1.00726318,0.366211,-0.122070,0.000000
6524658875,0.00695801,0.00567627,-1.00726318,0.488281,-0.122070,0.122070
6527219541,0.00746155,0.00588989,-1.00790405,0.488281,-0.122070,0.122070
6529750208,0.00746155,0.00588989,-1.00790405,0.244141,-0.122070,-0.061035
6537172833,0.00735474,0.00518799,-1.00881958,0.244141,-0.122070,-0.061035
6539732875,0.00735474,0.00518799,-1.00881958,0.366211,-0.122070,-0.061035
6547359958,0.00753784,0.00559998,-1.00843811,0.366211,-0.122070,-0.061035
6549900291,0.00753784,0.00559998,-1.00843811,0.488281,-0.244141,0.000000
6557572000,0.00680542,0.00593567,-1.00878906,0.488281,-0.244141,0.000000
6560148083,0.00680542,0.00593567,-1.00878906,0.244141,-0.183105,-0.122070
6567780541,0.00610352,0.00621033,-1.00859070,0.244141,-0.183105,-0.122070
6570349208,0.00610352,0.00621033,-1.00859070,0.244141,-0.122070,0.000000
6577658625,0.00543213,0.00691223,-1.00875854,0.244141,-0.122070,0.000000
6580206041,0.00543213,0.00691223,-1.00875854,0.244141,-0.061035,0.000000
6587784791,0.00517273,0.00764465,-1.00813293,0.244141,-0.061035,0.000000
6590337708,0.00517273,0.00764465,-1.00813293,0.305176,-0.244141,0.000000
6597962625,0.00550842,0.00788879,-1.00666809,0.305176,-0.244141,0.000000
6600518125,0.00550842,0.00788879,-1.00666809,0.366211,-0.183105,-0.122070
6607742208,0.00566101,0.00784302,-1.00769043,0.366211,-0.183105,-0.122070
6610302666,0.00566101,0.00784302,-1.00769043,0.366211,-0.244141,-0.122070
6617953416,0.00569153,0.00714111,-1.00784302,0.366211,-0.244141,-0.122070
6620503500,0.00569153,0.00714111,-1.00784302,0.305176,-0.183105,-0.061035
6628124750,0.00648499,0.00712585,-1.00740051,0.305176,-0.183105,-0.061035
6630670041,0.00648499,0.00712585,-1.00740051,0.488281,-0.122070,0.122070
6638055166,0.00622559,0.00689697,-1.00779724,0.488281,-0.122070,0.122070
6640612208,0.00622559,0.00689697,-1.00779724,0.366211,-0.061035,-0.061035
6648191958,0.00582886,0.00563049,-1.00820923,0.366211,-0.061035,-0.061035
6650405750,0.00582886,0.00563049,-1.00820923,0.305176,-0.183105,-0.061035
6657832625,0.00657654,0.00624084,-1.00837708,0.305176,-0.183105,-0.061035
6660384041,0.00657654,0.00624084,-1.00837708,0.305176,-0.305176,-0.061035
6667996208,0.00758362,0.00665283,-1.00730896,0.305176,-0.305176,-0.061035
6670180791,0.00758362,0.00665283,-1.00730896,0.183105,-0.183105,0.061035
6677753958,0.00677490,0.00524902,-1.00772095,0.183105,-0.183105,0.061035
6680291333,0.00677490,0.00524902,-1.00772095,0.183105,-0.122070,0.000000
6687564458,0.00648499,0.00531006,-1.00868225,0.183105,-0.122070,0.000000
6691173458,0.00648499,0.00531006,-1.00868225,0.183105,-0.061035,0.000000
6706423125,0.00595093,0.00622559,-1.00871277,0.244141,-0.183105,0.000000
6708991041,0.00772095,0.00721741,-1.00935364,0.244141,-0.122070,0.000000
6718792375,0.00782776,0.00820923,-1.00802612,0.244141,-0.183105,-0.061035
6728993833,0.00613403,0.00839233,-1.00779724,0.244141,-0.183105,-0.061035
6739133583,0.00585938,0.00752258,-1.00775146,0.305176,-0.061035,-0.122070
6746711250,0.00549316,0.00724792,-1.00712585,0.305176,-0.061035,-0.122070
6749255583,0.00549316,0.00724792,-1.00712585,0.305176,-0.244141,-0.061035
6758558666,0.00556946,0.00718689,-1.00837708,0.305176,-0.244141,-0.061035
6761117125,0.00556946,0.00718689,-1.00837708,0.427246,-0.061035,0.061035
6768282875,0.00666809,0.00717163,-1.00874329,0.427246,-0.061035,0.061035
6770412166,0.00666809,0.00717163,-1.00874329,0.305176,-0.122070,0.000000
6778034416,0.00643921,0.00692749,-1.00788879,0.305176,-0.122070,0.000000
6780573458,0.00643921,0.00692749,-1.00788879,0.366211,-0.183105,-0.061035
6788144083,0.00662231,0.00630188,-1.00759888,0.366211,-0.183105,-0.061035
6790688208,0.00662231,0.00630188,-1.00759888,0.366211,-0.183105,0.122070
6798243375,0.00675964,0.00680542,-1.00762939,0.366211,-0.183105,0.122070
6800790416,0.00675964,0.00680542,-1.00762939,0.305176,-0.122070,-0.122070
6807993916,0.00747681,0.00622559,-1.00752258,0.305176,-0.122070,-0.122070
6810540000,0.00747681,0.00622559,-1.00752258,0.427246,-0.244141,-0.061035
6817815458,0.00764465,0.00556946,-1.00714111,0.427246,-0.244141,-0.061035
6820381416,0.00764465,0.00556946,-1.00714111,0.305176,-0.244141,0.000000
6828022083,0.00645447,0.00549316,-1.00759888,0.305176,-0.244141,0.000000
6830372750,0.00645447,0.00549316,-1.00759888,0.366211,-0.244141,-0.061035
6837999125,0.00639343,0.00588989,-1.00769043,0.366211,-0.244141,-0.061035
6840555666,0.00639343,0.00588989,-1.00769043,0.366211,-0.122070,0.000000
6848136291,0.00616455,0.00648499,-1.00805664,0.366211,-0.122070,0.000000
6850698875,0.00616455,0.00648499,-1.00805664,0.366211,-0.122070,-0.122070
6858012708,0.00556946,0.00750732,-1.00772095,0.366211,-0.122070,-0.122070
6860579416,0.00556946,0.00750732,-1.00772095,0.427246,-0.061035,-0.061035
6868189041,0.00555420,0.00785828,-1.00904846,0.427246,-0.061035,-0.061035
6870295291,0.00555420,0.00785828,-1.00904846,0.244141,-0.183105,-0.183105
6877939458,0.00595093,0.00822449,-1.00830078,0.244141,-0.183105,-0.183105
6880499750,0.00595093,0.00822449,-1.00830078,0.122070,-0.122070,-0.061035
6887821916,0.00682068,0.00779724,-1.00810242,0.122070,-0.122070,-0.061035
6890359916,0.00682068,0.00779724,-1.00810242,0.183105,-0.183105,0.000000
6897948083,0.00753784,0.00810242,-1.00831604,0.183105,-0.183105,0.000000
6900494625,0.00753784,0.00810242,-1.00831604,0.305176,-0.183105,-0.061035
6908105375,0.00762939,0.00694275,-1.00738525,0.305176,-0.183105,-0.061035
6910655958,0.00762939,0.00694275,-1.00738525,0.427246,-0.122070,-0.061035
6918252000,0.00633240,0.00709534,-1.00883484,0.427246,-0.122070,-0.061035
6920797500,0.00633240,0.00709534,-1.00883484,0.305176,-0.061035,0.000000
6928019375,0.00663757,0.00605774,-1.00756836,0.305176,-0.061035,0.000000
6930542333,0.00663757,0.00605774,-1.00756836,0.366211,-0.122070,-0.183105
6937673125,0.00617981,0.00637817,-1.00636292,0.366211,-0.122070,-0.183105
6940254333,0.00617981,0.00637817,-1.00636292,0.305176,-0.183105,-0.122070
6947842166,0.00663757,0.00605774,-1.00862122,0.305176,-0.183105,-0.122070
6950366333,0.00663757,0.00605774,-1.00862122,0.427246,-0.183105,-0.061035
6957926166,0.00630188,0.00578308,-1.00891113,0.427246,-0.183105,-0.061035
6960270791,0.00630188,0.00578308,-1.00891113,0.244141,0.000000,0.000000
6967858916,0.00627136,0.00517273,-1.00752258,0.244141,0.000000,0.000000
6970407750,0.00627136,0.00517273,-1.00752258,0.244141,-0.183105,0.000000
6978021083,0.00671387,0.00663757,-1.00788879,0.244141,-0.183105,0.000000
6980569708,0.00671387,0.00663757,-1.00788879,0.366211,-0.183105,-0.061035
6987891083,0.00706482,0.00697327,-1.00730896,0.366211,-0.183105,-0.061035
6990403541,0.00706482,0.00697327,-1.00730896,0.427246,-0.061035,-0.061035
6997745666,0.00657654,0.00711060,-1.00794983,0.427246,-0.061035,-0.061035
7000286791,0.00657654,0.00711060,-1.00794983,0.366211,-0.244141,0.000000
7007646333,0.00627136,0.00749207,-1.00770569,0.366211,-0.244141,0.000000
7010195000,0.00627136,0.00749207,-1.00770569,0.488281,-0.183105,-0.122070
7017797750,0.00599670,0.00827026,-1.00759888,0.488281,-0.183105,-0.122070
7020347666,0.00599670,0.00827026,-1.00759888,0.793457,-0.061035,-0.122070
7027935416,0.00624084,0.00747681,-1.00633240,0.793457,-0.061035,-0.122070
7030393916,0.00624084,0.00747681,-1.00633240,1.281738,-0.183105,-0.183105
7038010250,0.00761414,0.00585938,-0.99897766,1.281738,-0.183105,-0.183105
7040565250,0.00761414,0.00585938,-0.99897766,0.000000,-0.122070,0.000000
7048196916,0.00872803,0.00439453,-1.00894165,0.000000,-0.122070,0.000000
7050409250,0.00872803,0.00439453,-1.00894165,0.244141,-0.183105,0.000000
7058045541,0.00653076,0.00720215,-1.02876282,0.244141,-0.183105,0.000000
7060598791,0.00653076,0.00720215,-1.02876282,0.244141,-0.122070,0.000000
7068202791,0.00434875,0.00782776,-1.00204468,0.244141,-0.122070,0.000000
7070414791,0.00434875,0.00782776,-1.00204468,0.366211,-0.183105,0.000000
7078025791,0.00511169,0.00807190,-0.99942017,0.366211,-0.183105,0.000000
7080595958,0.00511169,0.00807190,-0.99942017,0.183105,-0.122070,-0.061035
7088185083,0.00544739,0.00831604,-1.01176453,0.183105,-0.122070,-0.061035
7090725791,0.00544739,0.00831604,-1.01176453,0.366211,-0.061035,-0.061035
7098293791,0.00567627,0.00825500,-1.01260376,0.366211,-0.061035,-0.061035
7100824833,0.00567627,0.00825500,-1.01260376,0.244141,-0.183105,0.000000
7108417833,0.00704956,0.00767517,-1.00599670,0.244141,-0.183105,0.000000
7110968000,0.00704956,0.00767517,-1.00599670,0.366211,-0.122070,0.122070
7118612416,0.00866699,0.00587463,-1.00611877,0.366211,-0.122070,0.122070
7121146041,0.00866699,0.00587463,-1.00611877,0.366211,-0.183105,0.000000
7128653958,0.00836182,0.00503540,-1.00927734,0.366211,-0.183105,0.000000
7131189708,0.00836182,0.00503540,-1.00927734,0.427246,-0.183105,0.000000
7138820875,0.00714111,0.00373840,-1.00819397,0.427246,-0.183105,0.000000
7141354875,0.00714111,0.00373840,-1.00819397,0.366211,-0.061035,-0.061035
7148192416,0.00662231,0.00312805,-1.00738525,0.366211,-0.061035,-0.061035
7150255375,0.00662231,0.00312805,-1.00738525,0.488281,-0.305176,-0.122070
7157871250,0.00793457,0.00584412,-1.00784302,0.488281,-0.305176,-0.122070
7160430416,0.00793457,0.00584412,-1.00784302,0.549316,-0.183105,0.000000
7168053625,0.00714111,0.00755310,-1.00827026,0.549316,-0.183105,0.000000
7170605500,0.00714111,0.00755310,-1.00827026,0.427246,-0.122070,-0.061035
7178210750,0.00685120,0.00779724,-1.00857544,0.427246,-0.122070,-0.061035
7180745083,0.00685120,0.00779724,-1.00857544,0.427246,-0.183105,0.000000
7188320958,0.00575256,0.00823975,-1.00680542,0.427246,-0.183105,0.000000
7190861333,0.00575256,0.00823975,-1.00680542,0.305176,-0.244141,-0.061035
7198408333,0.00666809,0.00830078,-1.00898743,0.305176,-0.244141,-0.061035
7200929625,0.00666809,0.00830078,-1.00898743,0.305176,-0.122070,-0.061035
7208523041,0.00604248,0.00743103,-1.01045227,0.305176,-0.122070,-0.061035
7211071416,0.00604248,0.00743103,-1.01045227,0.305176,-0.122070,0.000000
7218663416,0.00579834,0.00640869,-1.00825500,0.305176,-0.122070,0.000000
7221194875,0.00579834,0.00640869,-1.00825500,0.366211,-0.061035,0.061035
7228784041,0.00624084,0.00595093,-1.00634766,0.366211,-0.061035,0.061035
7231325708,0.00624084,0.00595093,-1.00634766,0.488281,-0.183105,-0.061035
7238911666,0.00657654,0.00610352,-1.00823975,0.488281,-0.183105,-0.061035
7241461833,0.00657654,0.00610352,-1.00823975,0.244141,-0.061035,0.000000
7249065916,0.00732422,0.00601196,-1.00889587,0.244141,-0.061035,0.000000
7251614833,0.00732422,0.00601196,-1.00889587,0.366211,-0.244141,0.000000
7259170541,0.00682068,0.00656128,-1.00691223,0.488281,-0.061035,-0.122070
7266759166,0.00749207,0.00645447,-1.00856018,0.488281,-0.061035,-0.122070
7269308375,0.00749207,0.00645447,-1.00856018,0.244141,-0.122070,-0.061035
7276679583,0.00656128,0.00642395,-1.00868225,0.244141,-0.122070,-0.061035
7279236208,0.00656128,0.00642395,-1.00868225,0.244141,-0.122070,-0.122070
7289089625,0.00689697,0.00619507,-1.00819397,0.244141,-0.122070,-0.122070
7291675041,0.00689697,0.00619507,-1.00819397,0.305176,-0.122070,0.061035
7296740916,0.00584412,0.00630188,-1.00726318,0.305176,-0.122070,0.061035
7299277625,0.00584412,0.00630188,-1.00726318,0.244141,-0.183105,-0.061035
7306753208,0.00544739,0.00704956,-1.00724792,0.244141,-0.183105,-0.061035
7311814000,0.00544739,0.00704956,-1.00724792,0.305176,-0.122070,-0.122070
7318615041,0.00646973,0.00733948,-1.00798035,0.305176,-0.122070,-0.122070
7321168000,0.00646973,0.00733948,-1.00798035,0.183105,-0.183105,-0.061035
7328542458,0.00523376,0.00695801,-1.00708008,0.183105,-0.183105,-0.061035
7331113333,0.00523376,0.00695801,-1.00708008,0.305176,-0.305176,-0.061035
7338814250,0.00563049,0.00706482,-1.00816345,0.305176,-0.305176,-0.061035
7341394041,0.00563049,0.00706482,-1.00816345,0.244141,-0.122070,-0.061035
7348313916,0.00659180,0.00708008,-1.00915527,0.244141,-0.122070,-0.061035
7350865916,0.00659180,0.00708008,-1.00915527,0.244141,-0.305176,0.000000
7358487708,0.00633240,0.00679016,-1.00769043,0.244141,-0.305176,0.000000
7361047333,0.00633240,0.00679016,-1.00769043,0.244141,-0.122070,0.000000
7368739541,0.00692749,0.00608826,-1.00759888,0.244141,-0.122070,0.000000
7371357208,0.00692749,0.00608826,-1.00759888,0.488281,-0.183105,0.000000
7378985458,0.00758362,0.00555420,-1.00842285,0.488281,-0.183105,0.000000
7381519375,0.00758362,0.00555420,-1.00842285,0.244141,-0.122070,-0.061035
7389136916,0.00607300,0.00534058,-1.00875854,0.244141,-0.122070,-0.061035
7391692625,0.00607300,0.00534058,-1.00875854,0.305176,-0.122070,0.061035
7396809250,0.00708008,0.00634766,-1.00807190,0.305176,-0.122070,0.061035
7401733625,0.00708008,0.00634766,-1.00807190,0.305176,-0.122070,-0.061035
7408677583,0.00727844,0.00596619,-1.00700378,0.305176,-0.122070,-0.061035
7411283041,0.00727844,0.00596619,-1.00700378,0.305176,-0.122070,-0.061035
7418482416,0.00601196,0.00561523,-1.00837708,0.305176,-0.122070,-0.061035
7421020875,0.00601196,0.00561523,-1.00837708,0.244141,-0.183105,0.061035
7428788083,0.00619507,0.00607300,-1.00820923,0.244141,-0.183105,0.061035
7431339125,0.00619507,0.00607300,-1.00820923,0.366211,-0.061035,0.000000
7438636875,0.00671387,0.00628662,-1.00862122,0.366211,-0.061035,0.000000
7441191833,0.00671387,0.00628662,-1.00862122,0.366211,-0.305176,0.000000
7448873000,0.00558472,0.00596619,-1.00852966,0.366211,-0.305176,0.000000
7451432208,0.00558472,0.00596619,-1.00852966,0.427246,-0.061035,0.000000
7458744541,0.00651550,0.00587463,-1.00769043,0.427246,-0.061035,0.000000
7461349458,0.00651550,0.00587463,-1.00769043,0.305176,-0.122070,0.122070
7468530333,0.00642395,0.00613403,-1.00708008,0.305176,-0.122070,0.122070
7471084166,0.00642395,0.00613403,-1.00708008,0.366211,-0.305176,0.061035
7478762833,0.00613403,0.00700378,-1.00746155,0.366211,-0.305176,0.061035
7481178625,0.00613403,0.00700378,-1.00746155,0.427246,-0.122070,-0.061035
7488633916,0.00675964,0.00732422,-1.00880432,0.427246,-0.122070,-0.061035
7491189208,0.00675964,0.00732422,-1.00880432,0.305176,-0.122070,-0.061035
7498872250,0.00616455,0.00627136,-1.00833130,0.305176,-0.122070,-0.061035
7501541166,0.00616455,0.00627136,-1.00833130,0.366211,-0.122070,-0.122070
7509319958,0.00686646,0.00624084,-1.00831604,0.366211,-0.122070,-0.122070
7512431791,0.00686646,0.00624084,-1.00831604,0.244141,-0.122070,-0.061035
7517300666,0.00679016,0.00717163,-1.00816345,0.244141,-0.122070,-0.061035
7519895291,0.00679016,0.00717163,-1.00816345,0.122070,-0.244141,0.061035
7527148125,0.00704956,0.00599670,-1.00906372,0.122070,-0.244141,0.061035
7529738625,0.00704956,0.00599670,-1.00906372,0.305176,-0.183105,-0.122070
7537415708,0.00679016,0.00535583,-1.00852966,0.305176,-0.183105,-0.122070
7539990541,0.00679016,0.00535583,-1.00852966,0.244141,-0.244141,-0.061035
7547704291,0.00648499,0.00546265,-1.00802612,0.244141,-0.244141,-0.061035
7549805000,0.00648499,0.00546265,-1.00802612,0.305176,-0.244141,0.000000
7556953041,0.00660706,0.00556946,-1.00776672,0.305176,-0.244141,0.000000
7565457666,0.00660706,0.00556946,-1.00776672,0.305176,-0.183105,0.061035
7568031333,0.00659180,0.00627136,-1.00765991,0.305176,-0.183105,0.061035
7570622708,0.00659180,0.00627136,-1.00765991,0.305176,-0.244141,-0.061035
7578262833,0.00689697,0.00614929,-1.00860596,0.305176,-0.244141,-0.061035
7580818083,0.00689697,0.00614929,-1.00860596,0.305176,-0.244141,-0.122070
7588462791,0.00569153,0.00735474,-1.00848389,0.305176,-0.244141,-0.122070
7591016541,0.00569153,0.00735474,-1.00848389,0.305176,-0.122070,0.000000
7598128208,0.00614929,0.00668335,-1.00794983,0.305176,-0.122070,0.000000
7600685291,0.00614929,0.00668335,-1.00794983,0.488281,-0.061035,-0.061035
7607861125,0.00753784,0.00671387,-1.00738525,0.488281,-0.061035,-0.061035
7610410250,0.00753784,0.00671387,-1.00738525,0.244141,-0.122070,0.000000
7617868875,0.00495911,0.00683594,-1.00817871,0.244141,-0.122070,0.000000
7620517958,0.00495911,0.00683594,-1.00817871,0.183105,-0.244141,-0.122070
7627680791,0.00572205,0.00657654,-1.00886536,0.183105,-0.244141,-0.122070
7630223125,0.00572205,0.00657654,-1.00886536,0.244141,-0.122070,0.000000
7637841666,0.00592041,0.00671387,-1.00828552,0.244141,-0.122070,0.000000
7640399625,0.00592041,0.00671387,-1.00828552,0.244141,-0.061035,0.000000
7647900041,0.00575256,0.00717163,-1.00828552,0.244141,-0.061035,0.000000
7650518416,0.00575256,0.00717163,-1.00828552,0.244141,-0.122070,-0.061035
7658234208,0.00588989,0.00692749,-1.00807190,0.244141,-0.122070,-0.061035
7660805875,0.00588989,0.00692749,-1.00807190,0.305176,-0.122070,0.000000
7668472625,0.00654602,0.00645447,-1.00799561,0.305176,-0.122070,0.000000
7671035333,0.00654602,0.00645447,-1.00799561,0.427246,-0.305176,-0.183105
7678691416,0.00709534,0.00598145,-1.00759888,0.427246,-0.305176,-0.183105
7681251625,0.00709534,0.00598145,-1.00759888,0.244141,-0.244141,-0.061035
7687732958,0.00529480,0.00701904,-1.00805664,0.244141,-0.244141,-0.061035
7689872708,0.00529480,0.00701904,-1.00805664,0.366211,-0.061035,0.000000
7697037583,0.00610352,0.00709534,-1.00784302,0.366211,-0.061035,0.000000
7701561375,0.00610352,0.00709534,-1.00784302,0.427246,-0.183105,-0.061035
7708751791,0.00553894,0.00646973,-1.00764465,0.427246,-0.183105,-0.061035
7711186791,0.00553894,0.00646973,-1.00764465,0.427246,-0.122070,0.061035
7718916916,0.00521851,0.00621033,-1.00791931,0.427246,-0.122070,0.061035
7721020458,0.00521851,0.00621033,-1.00791931,0.427246,-0.122070,0.000000
7728710416,0.00646973,0.00656128,-1.00827026,0.427246,-0.122070,0.000000
7730895541,0.00646973,0.00656128,-1.00827026,0.305176,-0.061035,0.000000
7738579208,0.00585938,0.00593567,-1.00834656,0.305176,-0.061035,0.000000
7740765291,0.00585938,0.00593567,-1.00834656,0.366211,-0.183105,0.000000
7748312000,0.00570679,0.00666809,-1.00689697,0.366211,-0.183105,0.000000
7750931333,0.00570679,0.00666809,-1.00689697,0.305176,-0.122070,0.000000
7758620291,0.00753784,0.00595093,-1.00692749,0.305176,-0.122070,0.000000
7761192166,0.00753784,0.00595093,-1.00692749,0.244141,-0.183105,0.000000
7768855166,0.00701904,0.00535583,-1.00750732,0.244141,-0.183105,0.000000
7771447541,0.00701904,0.00535583,-1.00750732,0.305176,-0.061035,-0.122070
7778762083,0.00646973,0.00617981,-1.00866699,0.305176,-0.061035,-0.122070
7781324833,0.00646973,0.00617981,-1.00866699,0.427246,-0.122070,0.061035
7788964166,0.00572205,0.00735474,-1.00871277,0.427246,-0.122070,0.061035
7791529958,0.00572205,0.00735474,-1.00871277,0.366211,-0.183105,-0.061035
7799168916,0.00659180,0.00711060,-1.00814819,0.366211,-0.183105,-0.061035
7801727875,0.00659180,0.00711060,-1.00814819,0.366211,-0.122070,-0.122070
7809342666,0.00668335,0.00694275,-1.00778198,0.366211,-0.122070,-0.122070
7811894916,0.00668335,0.00694275,-1.00778198,0.122070,-0.183105,-0.061035
7819478291,0.00555420,0.00718689,-1.00842285,0.122070,-0.183105,-0.061035
7822066208,0.00555420,0.00718689,-1.00842285,0.366211,-0.122070,0.061035
7827128916,0.00619507,0.00582886,-1.00883484,0.366211,-0.122070,0.061035
7831993041,0.00619507,0.00582886,-1.00883484,0.488281,-0.183105,-0.122070
7839627750,0.00631714,0.00592041,-1.00791931,0.488281,-0.183105,-0.122070
7842177208,0.00631714,0.00592041,-1.00791931,0.244141,-0.183105,-0.061035
7849535458,0.00636292,0.00675964,-1.00723267,0.244141,-0.183105,-0.061035
7852097083,0.00636292,0.00675964,-1.00723267,0.305176,-0.122070,-0.061035
7857202416,0.00721741,0.00588989,-1.00781250,0.305176,-0.122070,-0.061035
7859729708,0.00721741,0.00588989,-1.00781250,0.244141,-0.183105,-0.122070
7867286208,0.00646973,0.00657654,-1.00888062,0.244141,-0.183105,-0.122070
7869875125,0.00646973,0.00657654,-1.00888062,0.488281,-0.183105,-0.061035
7879558625,0.00622559,0.00666809,-1.00788879,0.488281,-0.183105,-0.061035
7882121041,0.00622559,0.00666809,-1.00788879,0.244141,-0.183105,-0.122070
7889559083,0.00650024,0.00621033,-1.00793457,0.244141,-0.183105,-0.122070
7892134458,0.00650024,0.00621033,-1.00793457,0.305176,-0.122070,0.000000
7899346166,0.00599670,0.00628662,-1.00741577,0.305176,-0.122070,0.000000
7901751708,0.00599670,0.00628662,-1.00741577,0.305176,-0.244141,-0.183105
7909250791,0.00686646,0.00669861,-1.00848389,0.305176,-0.244141,-0.183105
7911799750,0.00686646,0.00669861,-1.00848389,0.305176,-0.122070,0.061035
7919377875,0.00643921,0.00636292,-1.00857544,0.305176,-0.122070,0.061035
7921903041,0.00643921,0.00636292,-1.00857544,0.366211,-0.183105,-0.061035
7929475583,0.00633240,0.00654602,-1.00735474,0.366211,-0.183105,-0.061035
7932006833,0.00633240,0.00654602,-1.00735474,0.244141,-0.183105,-0.122070
7939594333,0.00631714,0.00660706,-1.00828552,0.244141,-0.183105,-0.122070
7942133083,0.00631714,0.00660706,-1.00828552,0.305176,-0.244141,0.000000
7947191833,0.00546265,0.00662231,-1.00830078,0.305176,-0.244141,0.000000
7949721791,0.00546265,0.00662231,-1.00830078,0.427246,-0.061035,-0.061035
7957290416,0.00552368,0.00724792,-1.00740051,0.427246,-0.061035,-0.061035
7959840958,0.00552368,0.00724792,-1.00740051,0.427246,0.061035,0.061035
7969977083,0.00602722,0.00608826,-1.00767517,0.183105,0.000000,-0.122070
7980069166,0.00671387,0.00604248,-1.00915527,0.427246,-0.122070,0.000000
7989496333,0.00653076,0.00689697,-1.00895691,0.427246,-0.122070,0.000000
7992037208,0.00653076,0.00689697,-1.00895691,0.183105,-0.183105,-0.061035
7999606083,0.00703430,0.00621033,-1.00769043,0.183105,-0.183105,-0.061035
8002140625,0.00703430,0.00621033,-1.00769043,0.244141,-0.183105,-0.122070
8009705833,0.00666809,0.00688171,-1.00817871,0.366211,-0.305176,-0.122070
8019826125,0.00538635,0.00732422,-1.00851440,0.244141,-0.183105,-0.061035
8029921583,0.00650024,0.00656128,-1.00775146,0.244141,-0.183105,-0.061035
8032463416,0.00650024,0.00656128,-1.00775146,0.427246,-0.061035,0.061035
8040075958,0.00640869,0.00717163,-1.00822449,0.427246,-0.183105,0.000000
8047672708,0.00613403,0.00671387,-1.00895691,0.427246,-0.183105,0.000000
8050196916,0.00613403,0.00671387,-1.00895691,0.366211,0.000000,0.061035
8057806250,0.00579834,0.00659180,-1.00799561,0.366211,0.000000,0.061035
8060343291,0.00579834,0.00659180,-1.00799561,0.244141,-0.122070,0.000000
8067925041,0.00709534,0.00627136,-1.00794983,0.244141,-0.122070,0.000000
8070468791,0.00709534,0.00627136,-1.00794983,0.366211,-0.122070,0.061035
8078051500,0.00625610,0.00543213,-1.00878906,0.366211,-0.122070,0.061035
8080600333,0.00625610,0.00543213,-1.00878906,0.305176,-0.061035,0.061035
8088167291,0.00700378,0.00531006,-1.00885010,0.305176,-0.061035,0.061035
8090690375,0.00700378,0.00531006,-1.00885010,1.342773,-0.122070,0.061035
8098242250,0.00727844,0.00596619,-1.00769043,1.342773,-0.122070,0.061035
8100766250,0.00727844,0.00596619,-1.00769043,-0.061035,-0.061035,0.061035
8108368000,0.00732422,0.00474548,-1.00480652,-0.061035,-0.061035,0.061035
8110899500,0.00732422,0.00474548,-1.00480652,0.244141,-0.061035,-0.122070
8118547416,0.00677490,0.00431824,-1.01770020,0.244141,-0.061035,-0.122070
8120819708,0.00677490,0.00431824,-1.01770020,-0.061035,-0.183105,-0.061035
8128377166,0.00645447,0.00518799,-1.00459290,-0.061035,-0.183105,-0.061035
8130915541,0.00645447,0.00518799,-1.00459290,0.366211,-0.061035,0.000000
8138551125,0.00608826,0.00627136,-1.00796509,0.366211,-0.061035,0.000000
8141104708,0.00608826,0.00627136,-1.00796509,0.244141,-0.122070,0.000000
8148679250,0.00595093,0.00642395,-1.00770569,0.244141,-0.122070,0.000000
8151199791,0.00595093,0.00642395,-1.00770569,0.488281,-0.183105,-0.183105
8158934500,0.00601196,0.00631714,-1.00950623,0.488281,-0.183105,-0.183105
8161473291,0.00601196,0.00631714,-1.00950623,0.305176,-0.061035,-0.061035
8169036208,0.00515747,0.00663757,-1.00859070,0.305176,-0.061035,-0.061035
8171593958,0.00515747,0.00663757,-1.00859070,0.305176,-0.183105,-0.122070
8179182666,0.00656128,0.00675964,-1.00585938,0.305176,-0.183105,-0.122070
8181710000,0.00656128,0.00675964,-1.00585938,0.305176,-0.122070,-0.061035
8189028708,0.00689697,0.00769043,-1.00929260,0.305176,-0.122070,-0.061035
8191574875,0.00689697,0.00769043,-1.00929260,0.366211,-0.183105,0.000000
8198939625,0.00547791,0.00785828,-1.00906372,0.366211,-0.183105,0.000000
8201473875,0.00547791,0.00785828,-1.00906372,0.183105,-0.305176,-0.183105
8209088625,0.00686646,0.00791931,-1.00743103,0.183105,-0.305176,-0.183105
8211634458,0.00686646,0.00791931,-1.00743103,0.183105,-0.061035,0.000000
8219203916,0.00717163,0.00607300,-1.00756836,0.183105,-0.061035,0.000000
8221743666,0.00717163,0.00607300,-1.00756836,0.366211,-0.122070,-0.122070
8229319916,0.00602722,0.00627136,-1.00787354,0.366211,-0.122070,-0.122070
8231847458,0.00602722,0.00627136,-1.00787354,0.244141,-0.061035,0.061035
8238522166,0.00712585,0.00593567,-1.00790405,0.244141,-0.061035,0.061035
8241100000,0.00712585,0.00593567,-1.00790405,0.366211,-0.244141,-0.061035
8248707583,0.00712585,0.00479126,-1.00680542,0.366211,-0.244141,-0.061035
8251240083,0.00712585,0.00479126,-1.00680542,0.244141,-0.183105,-0.061035
8258836291,0.00700378,0.00566101,-1.00839233,0.244141,-0.183105,-0.061035
8261392833,0.00700378,0.00566101,-1.00839233,0.366211,-0.183105,-0.061035
8268651958,0.00723267,0.00637817,-1.00889587,0.366211,-0.183105,-0.061035
8271209958,0.00723267,0.00637817,-1.00889587,0.305176,-0.061035,-0.122070
8278795333,0.00686646,0.00633240,-1.00820923,0.305176,-0.061035,-0.122070
8281342625,0.00686646,0.00633240,-1.00820923,0.427246,-0.122070,-0.061035
8288950958,0.00694275,0.00697327,-1.00762939,0.427246,-0.122070,-0.061035
8291491000,0.00694275,0.00697327,-1.00762939,0.244141,-0.183105,-0.122070
8299108208,0.00625610,0.00730896,-1.00866699,0.244141,-0.183105,-0.122070
8301673708,0.00625610,0.00730896,-1.00866699,0.366211,-0.122070,-0.061035
8309316458,0.00573730,0.00659180,-1.00845337,0.366211,-0.122070,-0.061035
8311700625,0.00573730,0.00659180,-1.00845337,0.488281,0.061035,-0.061035
8318716208,0.00511169,0.00680542,-1.00714111,0.488281,0.061035,-0.061035
8321249416,0.00511169,0.00680542,-1.00714111,0.366211,-0.183105,-0.183105
8328840583,0.00524902,0.00680542,-1.00872803,0.366211,-0.183105,-0.183105
8331374750,0.00524902,0.00680542,-1.00872803,0.366211,-0.122070,-0.061035
8338960208,0.00643921,0.00659180,-1.01022339,0.366211,-0.122070,-0.061035
8341519541,0.00643921,0.00659180,-1.01022339,0.427246,-0.183105,0.000000
8348951875,0.00646973,0.00683594,-1.00816345,0.427246,-0.183105,0.000000
8351500000,0.00646973,0.00683594,-1.00816345,0.183105,-0.122070,-0.061035
8359136541,0.00659180,0.00633240,-1.00762939,0.183105,-0.122070,-0.061035
8361667916,0.00659180,0.00633240,-1.00762939,0.244141,-0.305176,-0.061035
8369235333,0.00643921,0.00590515,-1.00840759,0.244141,-0.305176,-0.061035
8371775000,0.00643921,0.00590515,-1.00840759,0.366211,-0.122070,0.000000
8379275708,0.00630188,0.00743103,-1.00865173,0.366211,-0.122070,0.000000
8381838416,0.00630188,0.00743103,-1.00865173,0.244141,-0.061035,-0.061035
8389412666,0.00634766,0.00619507,-1.00703430,0.244141,-0.061035,-0.061035
8391963416,0.00634766,0.00619507,-1.00703430,0.305176,-0.183105,0.000000
8399642208,0.00633240,0.00616455,-1.00694275,0.305176,-0.183105,0.000000
8402195708,0.00633240,0.00616455,-1.00694275,0.427246,-0.061035,0.061035
8409774666,0.00665283,0.00674438,-1.00885010,0.427246,-0.061035,0.061035
8412323916,0.00665283,0.00674438,-1.00885010,0.366211,-0.244141,0.000000
8419980375,0.00691223,0.00540161,-1.00857544,0.366211,-0.244141,0.000000
8422543583,0.00691223,0.00540161,-1.00857544,0.305176,-0.305176,-0.183105
8429838583,0.00727844,0.00593567,-1.00801086,0.305176,-0.305176,-0.183105
8432366916,0.00727844,0.00593567,-1.00801086,0.305176,-0.122070,0.061035
8439949291,0.00627136,0.00646973,-1.00888062,0.305176,-0.122070,0.061035
8442481708,0.00627136,0.00646973,-1.00888062,0.366211,-0.122070,0.061035
8449863833,0.00500488,0.00665283,-1.00857544,0.366211,-0.122070,0.061035
8452394000,0.00500488,0.00665283,-1.00857544,0.244141,-0.244141,-0.122070
8459940791,0.00611877,0.00610352,-1.00859070,0.244141,-0.244141,-0.122070
8462469958,0.00611877,0.00610352,-1.00859070,0.183105,-0.244141,-0.122070
8469825500,0.00677490,0.00671387,-1.00814819,0.183105,-0.244141,-0.122070
8472358625,0.00677490,0.00671387,-1.00814819,0.305176,-0.122070,-0.061035
8479918000,0.00642395,0.00791931,-1.00842285,0.305176,-0.122070,-0.061035
8482448916,0.00642395,0.00791931,-1.00842285,0.305176,-0.244141,0.061035
8489585250,0.00709534,0.00753784,-1.00833130,0.305176,-0.244141,0.061035
8492114125,0.00709534,0.00753784,-1.00833130,0.305176,-0.122070,-0.061035
8499672333,0.00703430,0.00665283,-1.00859070,0.305176,-0.122070,-0.061035
8502210500,0.00703430,0.00665283,-1.00859070,0.305176,-0.366211,-0.183105
8509381333,0.00602722,0.00627136,-1.00984192,0.305176,-0.366211,-0.183105
8511942791,0.00602722,0.00627136,-1.00984192,0.305176,-0.061035,-0.061035
8519160333,0.00601196,0.00614929,-1.00917053,0.305176,-0.061035,-0.061035
8521690625,0.00601196,0.00614929,-1.00917053,0.488281,-0.244141,0.000000
8529299875,0.00527954,0.00613403,-1.00830078,0.488281,-0.244141,0.000000
8531832833,0.00527954,0.00613403,-1.00830078,0.366211,-0.122070,0.000000
8538986125,0.00621033,0.00521851,-1.00851440,0.366211,-0.122070,0.000000
8541513458,0.00621033,0.00521851,-1.00851440,0.427246,-0.061035,-0.122070
8549092125,0.00692749,0.00549316,-1.00888062,0.427246,-0.061035,-0.122070
8551663166,0.00692749,0.00549316,-1.00888062,0.305176,-0.061035,-0.061035
