timestamp_ns,accel_x,accel_y,accel_z,gyro_x,gyro_y,gyro_z
61620000,0.00048828,0.00822449,-1.00773621,0.366211,-0.061035,-0.061035
70517875,0.00076294,0.00889587,-1.00782776,0.366211,0.122070,-0.061035
71617541,0.00119019,0.00901794,-1.00621033,0.183105,0.061035,0.000000
76631500,0.00169373,0.00910950,-1.00477600,0.366211,0.061035,0.000000
81618500,0.00158691,0.00926208,-1.00523376,0.305176,0.000000,-0.122070
86634041,0.00117493,0.00942993,-1.00793457,0.305176,0.061035,0.000000
92293125,0.00128174,0.00962830,-1.01026917,0.183105,-0.061035,-0.061035
98574458,0.00177002,0.00941467,-1.00920105,0.427246,0.000000,0.000000
104440666,0.00219727,0.00863647,-1.00559998,0.244141,-0.061035,0.000000
106902958,0.00288391,0.00805664,-1.00376892,0.244141,0.244141,0.000000
117680208,0.00387573,0.00790405,-1.00479126,0.305176,0.061035,-0.122070
117690500,0.00431824,0.00765991,-1.00590515,0.366211,0.000000,-0.183105
123899541,0.00393677,0.00709534,-1.00604248,0.366211,0.000000,-0.183105
127223166,0.00344849,0.00625610,-1.00640869,0.305176,0.000000,-0.122070
132111041,0.00340271,0.00527954,-1.00740051,0.244141,0.183105,-0.061035
137177041,0.00367737,0.00457764,-1.00755310,0.305176,0.122070,-0.183105
141612166,0.00372314,0.00447083,-1.00624084,0.610352,0.122070,-0.122070
147239833,0.00318909,0.00477600,-1.00502014,0.305176,0.000000,-0.183105
152690875,0.00238037,0.00511169,-1.00540161,0.305176,0.000000,-0.183105
157717166,0.00173950,0.00558472,-1.00672913,0.305176,0.061035,-0.061035
162348166,0.00163269,0.00645447,-1.00782776,0.244141,0.061035,-0.061035
166619750,0.00186157,0.00730896,-1.00845337,0.427246,0.061035,0.061035
171662250,0.00192261,0.00773621,-1.00813293,0.366211,0.061035,-0.122070
176624166,0.00161743,0.00770569,-1.00700378,0.427246,0.000000,-0.061035
181620666,0.00114441,0.00779724,-1.00602722,0.366211,0.122070,-0.183105
186638416,0.00080872,0.00837708,-1.00581360,0.427246,0.122070,-0.061035
191613583,0.00059509,0.00904846,-1.00619507,0.244141,0.000000,-0.122070
196696750,0.00054932,0.00907898,-1.00686646,0.305176,0.061035,-0.122070
201704583,0.00077820,0.00863647,-1.00758362,0.305176,0.000000,-0.183105
206655000,0.00106812,0.00848389,-1.00793457,0.244141,0.061035,0.000000
211625833,0.00146484,0.00868225,-1.00767517,0.366211,0.000000,-0.183105
216669791,0.00198364,0.00880432,-1.00698853,0.305176,0.061035,-0.061035
221703708,0.00213623,0.00880432,-1.00648499,0.366211,0.061035,0.000000
226662166,0.00158691,0.00871277,-1.00650024,0.244141,0.122070,-0.061035
231670458,0.00082397,0.00842285,-1.00653076,0.427246,0.000000,-0.122070
236656250,0.00041199,0.00769043,-1.00651550,0.305176,0.000000,-0.061035
241642208,0.00039673,0.00685120,-1.00651550,0.488281,-0.061035,-0.061035
246666458,0.00053406,0.00672913,-1.00608826,0.427246,0.244141,-0.061035
251662833,0.00085449,0.00729370,-1.00572205,0.061035,0.061035,-0.122070
256639916,0.00134277,0.00770569,-1.00595093,0.244141,0.122070,-0.122070
261650458,0.00177002,0.00756836,-1.00617981,0.244141,0.000000,-0.061035
266702000,0.00202942,0.00718689,-1.00616455,0.305176,0.000000,-0.122070
271637625,0.00242615,0.00692749,-1.00611877,0.427246,0.183105,-0.122070
276658375,0.00300598,0.00703430,-1.00582886,0.305176,0.061035,-0.122070
281630541,0.00292969,0.00717163,-1.00546265,0.488281,0.061035,-0.244141
286654000,0.00231934,0.00697327,-1.00550842,0.366211,0.122070,-0.183105
291655541,0.00210571,0.00703430,-1.00610352,0.488281,0.061035,-0.183105
296663791,0.00219727,0.00762939,-1.00669861,0.366211,0.000000,-0.122070
301650416,0.00184631,0.00779724,-1.00691223,0.244141,0.122070,-0.244141
306658583,0.00125122,0.00709534,-1.00692749,0.366211,0.000000,0.000000
311643583,0.00126648,0.00634766,-1.00692749,0.427246,0.122070,-0.122070
316651583,0.00184631,0.00621033,-1.00704956,0.244141,0.183105,-0.183105
321638208,0.00190735,0.00682068,-1.00708008,0.305176,0.122070,-0.122070
326678916,0.00149536,0.00778198,-1.00679016,0.183105,0.122070,-0.244141
331645333,0.00125122,0.00833130,-1.00663757,0.427246,0.000000,-0.061035
336694666,0.00097656,0.00820923,-1.00665283,0.427246,0.061035,-0.061035
341639541,0.00042725,0.00790405,-1.00640869,0.305176,-0.061035,-0.061035
346662041,0.00018311,0.00793457,-1.00602722,0.427246,0.122070,-0.061035
351654625,0.00054932,0.00819397,-1.00624084,0.244141,0.122070,-0.183105
356676958,0.00096130,0.00837708,-1.00700378,0.244141,0.000000,-0.122070
361656791,0.00105286,0.00848389,-1.00712585,0.244141,0.061035,-0.061035
366678041,0.00099182,0.00843811,-1.00633240,0.366211,0.061035,-0.122070
371744666,0.00105286,0.00836182,-1.00573730,0.366211,0.000000,-0.122070
376713791,0.00141907,0.00849915,-1.00630188,0.244141,-0.061035,0.000000
381672583,0.00213623,0.00848389,-1.00717163,0.244141,0.122070,0.000000
386666416,0.00267029,0.00813293,-1.00721741,0.183105,0.122070,-0.061035
391679958,0.00248718,0.00791931,-1.00685120,0.244141,0.000000,-0.061035
396681791,0.00231934,0.00834656,-1.00683594,0.305176,0.183105,0.000000
401674916,0.00280762,0.00891113,-1.00714111,0.366211,0.122070,-0.122070
406667208,0.00334167,0.00863647,-1.00720215,0.244141,0.000000,-0.061035
411668375,0.00332642,0.00772095,-1.00662231,0.488281,0.061035,-0.061035
416670750,0.00302124,0.00729370,-1.00581360,0.366211,0.061035,-0.122070
421679375,0.00299072,0.00741577,-1.00570679,0.488281,0.122070,-0.061035
426677083,0.00303650,0.00714111,-1.00633240,0.305176,-0.061035,-0.061035
431655333,0.00259399,0.00624084,-1.00686646,0.366211,0.122070,-0.122070
436695291,0.00199890,0.00546265,-1.00695801,0.305176,0.122070,0.000000
441647583,0.00161743,0.00534058,-1.00683594,0.305176,-0.122070,-0.244141
446673000,0.00146484,0.00550842,-1.00668335,0.122070,0.000000,-0.122070
451660708,0.00141907,0.00532532,-1.00674438,0.366211,0.061035,-0.183105
456683375,0.00144958,0.00511169,-1.00683594,0.305176,0.061035,0.000000
461664625,0.00152588,0.00543213,-1.00671387,0.244141,0.061035,-0.061035
466659250,0.00144958,0.00617981,-1.00651550,0.305176,0.000000,-0.244141
471682708,0.00085449,0.00695801,-1.00619507,0.244141,0.122070,0.000000
476696583,0.00018311,0.00765991,-1.00616455,0.305176,0.061035,-0.183105
481714250,0.00012207,0.00820923,-1.00657654,0.244141,0.122070,-0.122070
486677333,0.00036621,0.00842285,-1.00700378,0.488281,0.122070,-0.122070
491678791,0.00062561,0.00840759,-1.00709534,0.305176,0.122070,-0.061035
496650333,0.00120544,0.00857544,-1.00680542,0.305176,-0.122070,-0.061035
501691208,0.00169373,0.00900269,-1.00634766,0.305176,0.122070,0.061035
506723583,0.00146484,0.00950623,-1.00604248,0.244141,-0.061035,-0.061035
511695791,0.00096130,0.00984192,-1.00624084,0.183105,0.000000,-0.122070
516684916,0.00074768,0.01013184,-1.00666809,0.122070,0.000000,0.000000
521660208,0.00077820,0.01028442,-1.00672913,0.183105,0.000000,0.000000
526701416,0.00094604,0.01011658,-1.00662231,0.427246,0.183105,-0.061035
531645125,0.00154114,0.00996399,-1.00671387,0.305176,0.061035,-0.122070
536670041,0.00210571,0.00964355,-1.00682068,0.244141,0.244141,-0.122070
541746916,0.00205994,0.00891113,-1.00691223,0.244141,0.000000,-0.061035
546668791,0.00190735,0.00801086,-1.00714111,0.244141,0.000000,-0.122070
551707625,0.00190735,0.00729370,-1.00721741,0.244141,0.000000,0.000000
556707125,0.00178528,0.00694275,-1.00666809,0.244141,0.061035,-0.061035
561689708,0.00166321,0.00714111,-1.00579834,0.366211,0.122070,0.061035
566681750,0.00181580,0.00720215,-1.00559998,0.427246,0.183105,-0.122070
571689125,0.00227356,0.00662231,-1.00617981,0.427246,0.061035,-0.122070
576671916,0.00292969,0.00587463,-1.00666809,0.427246,0.122070,0.061035
581680541,0.00326538,0.00535583,-1.00669861,0.366211,0.000000,-0.122070
586730916,0.00303650,0.00506592,-1.00679016,0.305176,0.061035,0.000000
591666875,0.00251770,0.00540161,-1.00704956,0.427246,0.061035,-0.061035
596665541,0.00196838,0.00636292,-1.00704956,0.244141,0.061035,-0.244141
601692375,0.00152588,0.00682068,-1.00689697,0.427246,0.000000,-0.122070
606738250,0.00128174,0.00679016,-1.00682068,0.305176,0.061035,-0.183105
611660041,0.00119019,0.00700378,-1.00672913,0.366211,-0.061035,-0.122070
616674000,0.00125122,0.00729370,-1.00666809,0.427246,0.122070,-0.122070
621681708,0.00120544,0.00743103,-1.00675964,0.366211,0.122070,-0.061035
626700041,0.00088501,0.00764465,-1.00682068,0.305176,0.061035,-0.122070
631659041,0.00065613,0.00807190,-1.00692749,0.305176,0.000000,-0.183105
636678333,0.00057983,0.00854492,-1.00717163,0.549316,0.122070,0.061035
641672541,0.00051880,0.00898743,-1.00726318,0.427246,0.000000,-0.061035
646723833,0.00047302,0.00918579,-1.00704956,0.427246,0.183105,0.000000
651702250,0.00041199,0.00886536,-1.00689697,0.427246,0.122070,-0.122070
656959125,0.00024414,0.00857544,-1.00711060,0.427246,0.183105,-0.061035
661665000,0.00024414,0.00883484,-1.00756836,0.244141,-0.122070,-0.183105
666704916,0.00073242,0.00920105,-1.00790405,0.305176,0.000000,-0.183105
671771208,0.00152588,0.00894165,-1.00782776,0.305176,0.061035,0.061035
676686125,0.00201416,0.00807190,-1.00721741,0.366211,0.000000,-0.061035
681672208,0.00205994,0.00747681,-1.00625610,0.305176,0.000000,-0.183105
686699416,0.00195312,0.00759888,-1.00552368,0.122070,0.061035,0.000000
691768083,0.00195312,0.00798035,-1.00558472,0.427246,0.061035,-0.061035
696704416,0.00219727,0.00781250,-1.00628662,0.427246,0.000000,-0.122070
701711208,0.00270081,0.00700378,-1.00688171,0.305176,0.061035,-0.183105
706680958,0.00321960,0.00621033,-1.00698853,0.183105,0.061035,0.000000
711665750,0.00347900,0.00587463,-1.00694275,0.427246,0.122070,-0.122070
716691708,0.00317383,0.00602722,-1.00709534,0.427246,0.183105,-0.122070
721687541,0.00241089,0.00625610,-1.00729370,0.366211,0.183105,-0.061035
726716125,0.00187683,0.00610352,-1.00717163,0.244141,0.183105,-0.122070
731699625,0.00187683,0.00582886,-1.00680542,0.305176,0.122070,-0.061035
736690916,0.00205994,0.00581360,-1.00662231,0.427246,0.122070,0.000000
741684958,0.00177002,0.00625610,-1.00672913,0.366211,0.061035,-0.122070
746694416,0.00123596,0.00691223,-1.00686646,0.366211,0.061035,-0.122070
751690625,0.00126648,0.00733948,-1.00701904,0.366211,0.122070,0.000000
756693500,0.00155640,0.00740051,-1.00718689,0.366211,0.183105,-0.122070
761695083,0.00137329,0.00735474,-1.00704956,0.427246,0.061035,-0.183105
766699125,0.00103760,0.00752258,-1.00663757,0.488281,0.244141,-0.183105
771686125,0.00106812,0.00794983,-1.00636292,0.244141,0.061035,-0.183105
776682166,0.00111389,0.00842285,-1.00651550,0.305176,0.122070,-0.061035
781696208,0.00083923,0.00891113,-1.00714111,0.305176,0.122070,0.000000
786721375,0.00083923,0.00938416,-1.00772095,0.305176,0.000000,0.000000
791724666,0.00155640,0.00952148,-1.00765991,0.122070,0.000000,-0.061035
796749208,0.00212097,0.00914001,-1.00709534,0.244141,0.061035,-0.061035
801698708,0.00158691,0.00863647,-1.00648499,0.305176,0.061035,-0.122070
806693916,0.00068665,0.00843811,-1.00601196,0.305176,0.061035,-0.061035
811697208,0.00038147,0.00830078,-1.00582886,0.305176,0.061035,-0.061035
816708916,0.00091553,0.00817871,-1.00598145,0.488281,0.061035,-0.061035
821708916,0.00201416,0.00802612,-1.00634766,0.305176,0.122070,-0.061035
826712250,0.00297546,0.00764465,-1.00660706,0.305176,0.000000,-0.183105
831691625,0.00306702,0.00727844,-1.00656128,0.427246,0.061035,0.000000
836697458,0.00262451,0.00691223,-1.00634766,0.244141,0.183105,0.000000
841713666,0.00236511,0.00639343,-1.00616455,0.366211,0.122070,-0.061035
846711541,0.00236511,0.00625610,-1.00651550,0.244141,0.122070,-0.122070
851679208,0.00241089,0.00651550,-1.00708008,0.244141,0.183105,-0.122070
856722125,0.00225830,0.00621033,-1.00703430,0.244141,0.183105,-0.061035
861697916,0.00189209,0.00538635,-1.00683594,0.305176,0.061035,-0.183105
866729625,0.00190735,0.00512695,-1.00714111,0.244141,0.061035,-0.183105
871723458,0.00215149,0.00570679,-1.00733948,0.305176,0.000000,-0.061035
876714625,0.00201416,0.00671387,-1.00698853,0.366211,0.122070,-0.061035
881692666,0.00152588,0.00761414,-1.00665283,0.366211,0.061035,-0.183105
886709375,0.00146484,0.00788879,-1.00691223,0.427246,0.122070,-0.122070
891730458,0.00196838,0.00762939,-1.00711060,0.366211,0.000000,-0.183105
896737375,0.00213623,0.00747681,-1.00666809,0.244141,0.000000,-0.183105
901723041,0.00157166,0.00779724,-1.00630188,0.488281,0.122070,0.000000
906705416,0.00108337,0.00843811,-1.00675964,0.244141,0.061035,-0.122070
911700458,0.00115967,0.00885010,-1.00758362,0.305176,0.061035,-0.061035
916704000,0.00129700,0.00891113,-1.00793457,0.305176,0.000000,0.000000
921694208,0.00126648,0.00898743,-1.00767517,0.427246,0.000000,-0.122070
926696458,0.00119019,0.00906372,-1.00732422,0.244141,0.000000,0.000000
931706375,0.00106812,0.00877380,-1.00695801,0.366211,0.061035,-0.061035
936714000,0.00090027,0.00834656,-1.00642395,0.305176,0.122070,0.000000
941686833,0.00068665,0.00820923,-1.00605774,0.366211,0.000000,-0.122070
946703375,0.00051880,0.00843811,-1.00640869,0.244141,0.000000,-0.122070
951687958,0.00062561,0.00874329,-1.00704956,0.366211,0.061035,-0.061035
956699916,0.00076294,0.00862122,-1.00700378,0.488281,0.061035,0.000000
961738125,0.00062561,0.00814819,-1.00633240,0.427246,0.061035,-0.061035
966742000,0.00036621,0.00776672,-1.00607300,0.427246,0.122070,-0.122070
971696000,0.00027466,0.00752258,-1.00659180,0.305176,0.061035,-0.122070
976719750,0.00059509,0.00735474,-1.00747681,0.366211,0.061035,0.000000
981690375,0.00129700,0.00741577,-1.00811768,0.427246,-0.061035,0.061035
986699625,0.00202942,0.00765991,-1.00794983,0.244141,-0.061035,-0.061035
991724583,0.00238037,0.00762939,-1.00732422,0.244141,0.061035,-0.122070
996747083,0.00216675,0.00718689,-1.00688171,0.366211,0.122070,-0.061035
1001715375,0.00198364,0.00683594,-1.00677490,0.305176,0.061035,-0.061035
1006708750,0.00230408,0.00695801,-1.00654602,0.488281,0.183105,-0.122070
1011694958,0.00248718,0.00727844,-1.00642395,0.305176,0.061035,0.000000
1016720625,0.00196838,0.00724792,-1.00660706,0.244141,0.061035,-0.122070
1021711625,0.00119019,0.00675964,-1.00662231,0.366211,0.122070,-0.122070
1026742708,0.00091553,0.00634766,-1.00651550,0.488281,0.122070,-0.122070
1031700750,0.00128174,0.00631714,-1.00653076,0.183105,0.061035,-0.183105
1036712541,0.00173950,0.00677490,-1.00666809,0.366211,0.061035,-0.061035
1041696666,0.00195312,0.00746155,-1.00692749,0.305176,0.122070,-0.183105
1046724541,0.00186157,0.00787354,-1.00697327,0.366211,0.061035,-0.122070
1051712375,0.00143433,0.00779724,-1.00665283,0.305176,0.000000,0.000000
1056790416,0.00117493,0.00753784,-1.00634766,0.244141,0.122070,-0.061035
1061715041,0.00143433,0.00765991,-1.00633240,0.244141,0.000000,-0.244141
1066713666,0.00173950,0.00834656,-1.00656128,0.366211,0.000000,-0.061035
1071693958,0.00186157,0.00889587,-1.00671387,0.366211,0.122070,-0.122070
1076704916,0.00192261,0.00854492,-1.00646973,0.183105,0.000000,-0.122070
1081708916,0.00196838,0.00785828,-1.00607300,0.244141,0.000000,-0.122070
1086738625,0.00205994,0.00788879,-1.00604248,0.244141,0.000000,-0.061035
1091736166,0.00196838,0.00862122,-1.00640869,0.244141,-0.061035,-0.061035
1096750208,0.00132751,0.00917053,-1.00675964,0.366211,0.244141,-0.122070
1101741583,0.00050354,0.00892639,-1.00672913,0.366211,0.122070,0.000000
1106829916,0.00047302,0.00813293,-1.00651550,0.244141,0.061035,-0.061035
1111766083,0.00137329,0.00764465,-1.00662231,0.305176,0.061035,-0.061035
1116808750,0.00205994,0.00752258,-1.00666809,0.305176,0.122070,-0.061035
1121756541,0.00215149,0.00740051,-1.00631714,0.244141,0.061035,-0.061035
1126701333,0.00216675,0.00726318,-1.00621033,0.305176,0.000000,-0.061035
1131675875,0.00231934,0.00715637,-1.00685120,0.488281,0.122070,-0.122070
1136705666,0.00216675,0.00709534,-1.00764465,0.305176,0.061035,0.000000
1141749125,0.00175476,0.00677490,-1.00756836,0.244141,0.061035,-0.122070
1146731166,0.00166321,0.00648499,-1.00663757,0.305176,0.061035,-0.061035
1151706958,0.00186157,0.00650024,-1.00616455,0.366211,0.000000,0.000000
1156770333,0.00198364,0.00665283,-1.00668335,0.366211,0.122070,0.000000
1161742625,0.00196838,0.00697327,-1.00726318,0.305176,0.061035,-0.122070
1166737708,0.00193787,0.00741577,-1.00721741,0.244141,0.122070,-0.183105
1171731291,0.00193787,0.00744629,-1.00694275,0.366211,0.122070,-0.061035
1176702500,0.00193787,0.00721741,-1.00695801,0.244141,0.061035,-0.122070
1181700833,0.00184631,0.00741577,-1.00704956,0.305176,0.061035,-0.122070
1186703625,0.00164795,0.00779724,-1.00695801,0.183105,0.183105,-0.183105
1191827958,0.00163269,0.00790405,-1.00683594,0.305176,0.061035,-0.061035
1196740041,0.00164795,0.00791931,-1.00662231,0.305176,0.000000,0.000000
1201748958,0.00143433,0.00811768,-1.00598145,0.305176,0.183105,-0.122070
1206752750,0.00134277,0.00834656,-1.00524902,0.183105,0.122070,-0.244141
1211743166,0.00125122,0.00834656,-1.00537109,0.427246,0.122070,-0.122070
1216714833,0.00093079,0.00816345,-1.00636292,0.366211,0.000000,-0.061035
1221740000,0.00076294,0.00813293,-1.00741577,0.488281,0.183105,0.000000
1226750625,0.00061035,0.00822449,-1.00769043,0.427246,0.183105,0.000000
1231737750,0.00042725,0.00813293,-1.00709534,0.244141,0.122070,-0.183105
1236705750,0.00064087,0.00808716,-1.00643921,0.305176,0.061035,0.000000
1241757708,0.00125122,0.00810242,-1.00622559,0.244141,0.061035,-0.122070
1246733666,0.00199890,0.00782776,-1.00634766,0.305176,0.061035,0.000000
1251713333,0.00247192,0.00764465,-1.00668335,0.366211,0.061035,-0.122070
1256784166,0.00259399,0.00784302,-1.00714111,0.488281,0.122070,-0.061035
1261789541,0.00271606,0.00817871,-1.00717163,0.183105,0.061035,-0.061035
1266777083,0.00273132,0.00822449,-1.00640869,0.427246,0.183105,-0.061035
1271712250,0.00216675,0.00785828,-1.00543213,0.244141,0.061035,-0.061035
1276743666,0.00144958,0.00772095,-1.00544739,0.244141,0.000000,-0.122070
1281711083,0.00152588,0.00781250,-1.00636292,0.366211,0.000000,0.000000
1286739541,0.00209045,0.00747681,-1.00686646,0.427246,0.000000,0.061035
1291760125,0.00221252,0.00679016,-1.00653076,0.366211,0.244141,0.000000
1296739833,0.00201416,0.00614929,-1.00587463,0.366211,0.122070,-0.061035
1301732250,0.00190735,0.00595093,-1.00543213,0.366211,0.061035,-0.183105
1306887625,0.00193787,0.00616455,-1.00558472,0.366211,0.061035,-0.122070
1311718750,0.00215149,0.00654602,-1.00631714,0.366211,0.183105,-0.122070
1316737916,0.00234985,0.00701904,-1.00679016,0.366211,0.061035,-0.122070
1321931000,0.00228882,0.00733948,-1.00672913,0.305176,0.122070,-0.122070
1326795791,0.00224304,0.00740051,-1.00669861,0.427246,0.061035,-0.122070
1331847750,0.00239563,0.00750732,-1.00677490,0.305176,0.061035,-0.122070
1336734833,0.00207520,0.00759888,-1.00653076,0.183105,0.122070,-0.183105
1341741333,0.00111389,0.00756836,-1.00611877,0.305176,0.061035,0.000000
1346746208,0.00024414,0.00793457,-1.00624084,0.122070,0.122070,-0.122070
1351712625,0.00024414,0.00865173,-1.00686646,0.366211,0.000000,-0.061035
1356781291,0.00085449,0.00895691,-1.00738525,0.305176,-0.061035,-0.061035
1361790958,0.00141907,0.00843811,-1.00752258,0.305176,0.061035,-0.183105
1366801208,0.00160217,0.00788879,-1.00718689,0.183105,0.061035,-0.061035
1371730500,0.00152588,0.00784302,-1.00672913,0.366211,0.183105,-0.122070
1376747541,0.00144958,0.00772095,-1.00691223,0.366211,0.122070,-0.061035
1381741291,0.00138855,0.00741577,-1.00753784,0.183105,0.061035,0.061035
1386730416,0.00122070,0.00724792,-1.00778198,0.244141,0.061035,-0.122070
1391766458,0.00125122,0.00717163,-1.00752258,0.244141,0.061035,-0.122070
1396773458,0.00177002,0.00701904,-1.00730896,0.305176,0.000000,-0.122070
1401733083,0.00233459,0.00701904,-1.00735474,0.244141,-0.061035,-0.122070
1406809666,0.00254822,0.00709534,-1.00755310,0.366211,0.061035,-0.061035
1411833500,0.00257874,0.00682068,-1.00746155,0.244141,-0.061035,-0.183105
1416754375,0.00271606,0.00654602,-1.00692749,0.366211,0.061035,-0.122070
1421884083,0.00259399,0.00663757,-1.00642395,0.366211,0.061035,-0.122070
1426758041,0.00199890,0.00675964,-1.00636292,0.305176,0.000000,-0.244141
1431715833,0.00152588,0.00663757,-1.00665283,0.305176,-0.061035,0.000000
1436765666,0.00173950,0.00665283,-1.00691223,0.244141,0.122070,0.000000
1441795791,0.00216675,0.00704956,-1.00711060,0.183105,0.000000,-0.183105
1446754250,0.00205994,0.00735474,-1.00714111,0.183105,0.000000,-0.122070
1451741125,0.00155640,0.00747681,-1.00665283,0.305176,0.061035,0.000000
1456796791,0.00128174,0.00798035,-1.00614929,0.122070,0.000000,0.000000
1461751875,0.00144958,0.00866699,-1.00616455,0.427246,0.000000,-0.061035
1466783833,0.00141907,0.00842285,-1.00653076,0.366211,0.000000,-0.122070
1471753666,0.00099182,0.00746155,-1.00689697,0.366211,0.122070,-0.061035
1476803666,0.00077820,0.00729370,-1.00712585,0.305176,-0.061035,-0.183105
1481730458,0.00090027,0.00810242,-1.00695801,0.305176,0.183105,0.000000
1486758000,0.00128174,0.00891113,-1.00662231,0.366211,0.122070,-0.122070
1491825708,0.00207520,0.00901794,-1.00663757,0.244141,0.000000,-0.122070
1496767250,0.00254822,0.00857544,-1.00688171,0.305176,0.122070,-0.122070
1501728708,0.00219727,0.00839233,-1.00695801,0.305176,0.000000,-0.061035
1506776500,0.00175476,0.00868225,-1.00680542,0.305176,0.061035,-0.061035
1511723041,0.00173950,0.00881958,-1.00650024,0.244141,-0.061035,0.000000
1516752708,0.00190735,0.00845337,-1.00619507,0.244141,0.000000,-0.244141
1521834166,0.00227356,0.00793457,-1.00581360,0.366211,0.061035,-0.183105
1526767375,0.00259399,0.00759888,-1.00567627,0.305176,-0.061035,-0.122070
1531734875,0.00212097,0.00755310,-1.00617981,0.122070,0.122070,0.000000
1536814083,0.00134277,0.00762939,-1.00708008,0.305176,0.000000,-0.122070
1541771458,0.00126648,0.00759888,-1.00764465,0.183105,0.000000,-0.183105
1546758666,0.00149536,0.00776672,-1.00726318,0.305176,0.000000,-0.122070
1551740791,0.00141907,0.00794983,-1.00622559,0.366211,0.122070,-0.183105
1556796833,0.00132751,0.00796509,-1.00561523,0.244141,0.061035,-0.183105
1561739500,0.00140381,0.00804138,-1.00602722,0.305176,0.122070,-0.061035
1566753333,0.00146484,0.00801086,-1.00671387,0.366211,0.000000,-0.122070
1571790250,0.00148010,0.00769043,-1.00677490,0.366211,0.122070,0.000000
1576758750,0.00146484,0.00724792,-1.00645447,0.427246,0.061035,-0.183105
1581750541,0.00161743,0.00691223,-1.00639343,0.244141,0.061035,-0.122070
1586757583,0.00204468,0.00677490,-1.00656128,0.427246,0.183105,-0.122070
1591842458,0.00239563,0.00674438,-1.00654602,0.366211,0.122070,-0.122070
1596771333,0.00230408,0.00682068,-1.00636292,0.244141,0.061035,-0.183105
1601776458,0.00181580,0.00717163,-1.00619507,0.427246,0.122070,-0.122070
1606789958,0.00143433,0.00762939,-1.00630188,0.244141,0.000000,-0.061035
1611734791,0.00140381,0.00791931,-1.00677490,0.244141,0.000000,0.000000
1616749208,0.00166321,0.00811768,-1.00695801,0.366211,0.000000,-0.122070
1621770000,0.00210571,0.00820923,-1.00654602,0.366211,0.061035,-0.061035
1626766500,0.00242615,0.00775146,-1.00604248,0.244141,0.000000,-0.244141
1631745041,0.00239563,0.00683594,-1.00611877,0.305176,0.000000,-0.122070
1636802291,0.00202942,0.00648499,-1.00672913,0.305176,0.183105,-0.183105
1641745583,0.00164795,0.00703430,-1.00686646,0.305176,0.061035,-0.122070
1646766500,0.00164795,0.00779724,-1.00634766,0.244141,0.000000,-0.061035
1651744458,0.00167847,0.00808716,-1.00617981,0.244141,0.061035,-0.183105
1656817833,0.00137329,0.00791931,-1.00669861,0.427246,0.000000,0.000000
1661789541,0.00132751,0.00758362,-1.00727844,0.427246,0.061035,-0.122070
1666788750,0.00170898,0.00735474,-1.00735474,0.122070,0.000000,-0.183105
1671775416,0.00172424,0.00752258,-1.00691223,0.183105,0.122070,-0.061035
1676836625,0.00149536,0.00798035,-1.00630188,0.305176,-0.061035,-0.122070
1681734583,0.00173950,0.00822449,-1.00588989,0.183105,0.122070,-0.061035
1687075416,0.00201416,0.00804138,-1.00593567,0.305176,0.122070,-0.122070
1691774291,0.00152588,0.00788879,-1.00657654,0.183105,0.061035,-0.061035
1696767416,0.00071716,0.00794983,-1.00733948,0.244141,0.061035,-0.122070
1701733833,0.00051880,0.00775146,-1.00749207,0.183105,0.000000,0.000000
1706838458,0.00108337,0.00740051,-1.00701904,0.061035,-0.122070,-0.244141
1711736875,0.00190735,0.00718689,-1.00672913,0.061035,-0.122070,-0.061035
1716758666,0.00233459,0.00703430,-1.00747681,0.305176,0.183105,-0.061035
1721899666,0.00204468,0.00704956,-1.00883484,0.122070,0.061035,-0.061035
1726753708,0.00140381,0.00735474,-1.00907898,0.122070,0.000000,-0.122070
1731751916,0.00115967,0.00805664,-1.00759888,0.122070,0.000000,-0.183105
1736785916,0.00161743,0.00889587,-1.00570679,0.244141,0.122070,-0.061035
1741765000,0.00231934,0.00897217,-1.00485229,0.183105,0.061035,-0.122070
1746772791,0.00251770,0.00787354,-1.00527954,0.122070,-0.061035,-0.122070
1751754791,0.00183105,0.00643921,-1.00622559,0.305176,0.061035,-0.061035
1756772416,0.00090027,0.00593567,-1.00691223,0.366211,0.061035,-0.122070
1761739208,0.00077820,0.00646973,-1.00721741,0.244141,0.061035,-0.061035
1766759708,0.00128174,0.00715637,-1.00714111,0.000000,0.000000,-0.122070
1771759458,0.00163269,0.00730896,-1.00675964,0.061035,0.061035,-0.061035
1776764375,0.00180054,0.00686646,-1.00648499,0.244141,0.122070,0.000000
1781792333,0.00195312,0.00659180,-1.00675964,0.183105,-0.061035,-0.122070
1786762083,0.00215149,0.00712585,-1.00694275,0.183105,0.244141,-0.061035
1791785750,0.00219727,0.00779724,-1.00624084,0.244141,0.244141,-0.122070
1796798000,0.00183105,0.00810242,-1.00572205,-0.061035,-0.061035,-0.183105
1801763458,0.00138855,0.00828552,-1.00624084,0.305176,0.122070,-0.122070
1806795000,0.00090027,0.00854492,-1.00659180,0.305176,0.122070,-0.122070
1811735041,0.00016785,0.00863647,-1.00625610,0.122070,0.000000,-0.183105
1816770083,-0.00042725,0.00843811,-1.00608826,0.366211,0.122070,-0.061035
1821789833,-0.00048828,0.00827026,-1.00627136,0.183105,0.000000,-0.183105
1826805333,-0.00003052,0.00823975,-1.00636292,0.183105,-0.122070,0.000000
1831765583,0.00070190,0.00830078,-1.00595093,0.183105,0.000000,-0.122070
1836767375,0.00132751,0.00849915,-1.00538635,0.366211,0.061035,-0.122070
1841826416,0.00149536,0.00872803,-1.00602722,0.366211,0.000000,-0.122070
1846781125,0.00134277,0.00875854,-1.00740051,0.305176,0.000000,0.000000
1851765125,0.00158691,0.00843811,-1.00769043,0.366211,0.061035,-0.122070
1856821083,0.00236511,0.00798035,-1.00689697,0.488281,0.122070,0.000000
1861743958,0.00259399,0.00785828,-1.00622559,0.366211,-0.061035,-0.061035
1866818916,0.00205994,0.00796509,-1.00584412,0.488281,0.000000,-0.061035
1871773208,0.00193787,0.00779724,-1.00558472,0.427246,0.061035,-0.122070
1876769375,0.00247192,0.00743103,-1.00605774,0.183105,0.061035,-0.122070
1881754458,0.00267029,0.00724792,-1.00715637,0.366211,0.000000,0.000000
1886859583,0.00228882,0.00735474,-1.00749207,0.366211,0.122070,-0.183105
1891780750,0.00216675,0.00758362,-1.00668335,0.244141,0.000000,0.061035
1896890875,0.00256348,0.00756836,-1.00587463,0.427246,0.183105,-0.061035
1901781875,0.00286865,0.00753784,-1.00637817,0.244141,0.061035,-0.061035
1906918583,0.00256348,0.00782776,-1.00772095,0.305176,0.122070,-0.061035
1911781083,0.00175476,0.00799561,-1.00828552,0.427246,0.183105,0.000000
1916772958,0.00094604,0.00776672,-1.00764465,0.244141,0.122070,-0.061035
1921838625,0.00073242,0.00773621,-1.00663757,0.305176,0.061035,-0.183105
1926761833,0.00112915,0.00805664,-1.00588989,0.305176,0.122070,-0.061035
1931777583,0.00160217,0.00830078,-1.00549316,0.244141,0.061035,-0.122070
1936900916,0.00177002,0.00819397,-1.00567627,0.305176,-0.061035,-0.061035
1941804666,0.00146484,0.00784302,-1.00663757,0.305176,0.122070,-0.122070
1946761166,0.00111389,0.00767517,-1.00779724,0.366211,0.000000,-0.061035
1951736833,0.00120544,0.00794983,-1.00827026,0.427246,0.061035,-0.061035
1956785375,0.00154114,0.00820923,-1.00772095,0.366211,0.000000,-0.122070
1961734166,0.00135803,0.00831604,-1.00703430,0.427246,0.061035,-0.061035
1966779666,0.00065613,0.00856018,-1.00685120,0.366211,0.183105,-0.061035
1971783750,0.00010681,0.00874329,-1.00691223,0.427246,0.000000,-0.122070
1976810416,0.00036621,0.00849915,-1.00708008,0.244141,0.122070,-0.061035
1981774125,0.00141907,0.00785828,-1.00718689,0.305176,0.061035,-0.061035
1986790000,0.00218201,0.00759888,-1.00665283,0.183105,0.061035,-0.061035
1991768791,0.00202942,0.00794983,-1.00563049,0.427246,0.183105,-0.061035
1996814041,0.00173950,0.00831604,-1.00546265,0.244141,0.061035,-0.122070
2001771875,0.00163269,0.00836182,-1.00640869,0.244141,0.183105,-0.183105
2006816291,0.00154114,0.00827026,-1.00703430,0.244141,0.061035,-0.061035
2011767000,0.00173950,0.00807190,-1.00653076,0.366211,0.061035,-0.122070
2016787916,0.00224304,0.00793457,-1.00567627,0.366211,0.000000,-0.061035
2021771583,0.00274658,0.00798035,-1.00547791,0.305176,0.061035,-0.183105
2026787208,0.00294495,0.00781250,-1.00608826,0.488281,0.122070,-0.122070
2031788541,0.00267029,0.00750732,-1.00677490,0.305176,0.061035,-0.183105
2036827166,0.00221252,0.00770569,-1.00698853,0.305176,0.183105,-0.061035
2041837500,0.00209045,0.00836182,-1.00692749,0.366211,0.061035,-0.061035
2046793333,0.00186157,0.00865173,-1.00685120,0.305176,0.061035,-0.061035
2051774250,0.00109863,0.00863647,-1.00675964,0.427246,0.000000,-0.061035
2056791291,0.00070190,0.00883484,-1.00675964,0.244141,0.244141,-0.061035
2061795875,0.00114441,0.00883484,-1.00720215,0.305176,0.122070,-0.122070
2066779166,0.00160217,0.00852966,-1.00770569,0.366211,0.061035,0.000000
2071764000,0.00160217,0.00849915,-1.00761414,0.366211,0.061035,-0.122070
2076799500,0.00157166,0.00860596,-1.00703430,0.305176,0.061035,-0.183105
2081753166,0.00158691,0.00854492,-1.00650024,0.305176,0.061035,-0.061035
2086777458,0.00151062,0.00862122,-1.00646973,0.305176,0.183105,-0.122070
2091794125,0.00144958,0.00878906,-1.00672913,0.305176,0.000000,-0.061035
2096817041,0.00146484,0.00860596,-1.00689697,0.305176,0.000000,0.000000
2101788333,0.00164795,0.00831604,-1.00677490,0.427246,0.061035,-0.244141
2106787500,0.00192261,0.00816345,-1.00633240,0.305176,0.061035,-0.061035
2111771291,0.00218201,0.00799561,-1.00592041,0.488281,0.000000,-0.061035
2116784833,0.00230408,0.00781250,-1.00598145,0.366211,0.122070,-0.061035
2121784666,0.00218201,0.00770569,-1.00666809,0.305176,0.061035,-0.122070
2126814666,0.00207520,0.00743103,-1.00750732,0.366211,0.061035,-0.061035
2131790291,0.00196838,0.00703430,-1.00781250,0.305176,-0.061035,-0.061035
2136806041,0.00186157,0.00701904,-1.00747681,0.427246,0.122070,-0.183105
2141767916,0.00205994,0.00752258,-1.00679016,0.305176,0.061035,-0.183105
2146799833,0.00251770,0.00819397,-1.00602722,0.244141,0.000000,-0.183105
2151763125,0.00271606,0.00843811,-1.00592041,0.366211,0.061035,0.000000
2156807916,0.00242615,0.00801086,-1.00669861,0.305176,0.000000,-0.061035
2161763916,0.00199890,0.00744629,-1.00737000,0.305176,-0.061035,-0.122070
2166808291,0.00164795,0.00724792,-1.00749207,0.244141,0.061035,-0.061035
2171790000,0.00129700,0.00750732,-1.00732422,0.244141,0.061035,0.000000
2176789375,0.00119019,0.00798035,-1.00700378,0.366211,0.122070,-0.061035
2181766708,0.00148010,0.00802612,-1.00682068,0.244141,0.122070,-0.183105
2186799416,0.00189209,0.00761414,-1.00700378,0.427246,0.122070,-0.061035
2191815250,0.00215149,0.00749207,-1.00695801,0.244141,0.061035,-0.122070
2196860500,0.00215149,0.00793457,-1.00663757,0.549316,0.122070,-0.061035
2201796166,0.00201416,0.00830078,-1.00642395,0.488281,0.183105,0.061035
2206791000,0.00199890,0.00828552,-1.00636292,0.244141,0.061035,-0.183105
2211771333,0.00177002,0.00817871,-1.00636292,0.488281,0.061035,-0.122070
2216806625,0.00132751,0.00808716,-1.00636292,0.183105,-0.061035,-0.122070
2221775750,0.00117493,0.00807190,-1.00636292,0.305176,0.061035,-0.061035
2226840250,0.00122070,0.00839233,-1.00634766,0.305176,0.122070,-0.061035
2231798583,0.00119019,0.00891113,-1.00631714,0.427246,0.000000,0.000000
2236810708,0.00129700,0.00901794,-1.00610352,0.305176,0.061035,-0.061035
2241785083,0.00160217,0.00839233,-1.00573730,0.305176,0.061035,0.000000
2246804250,0.00221252,0.00785828,-1.00584412,0.366211,0.061035,-0.122070
2251789291,0.00265503,0.00793457,-1.00659180,0.366211,0.122070,-0.122070
2256852541,0.00233459,0.00801086,-1.00723267,0.366211,0.061035,-0.122070
2261787416,0.00149536,0.00767517,-1.00701904,0.366211,0.000000,-0.122070
2266818041,0.00094604,0.00753784,-1.00621033,0.366211,0.061035,-0.122070
2271803666,0.00120544,0.00793457,-1.00598145,0.244141,0.122070,-0.122070
2276811833,0.00204468,0.00822449,-1.00674438,0.244141,0.122070,-0.183105
2281775666,0.00248718,0.00804138,-1.00718689,0.427246,0.061035,-0.122070
2286813666,0.00241089,0.00779724,-1.00668335,0.366211,0.183105,-0.061035
2291772000,0.00241089,0.00764465,-1.00628662,0.305176,0.122070,-0.061035
2296818208,0.00213623,0.00746155,-1.00650024,0.488281,0.000000,-0.122070
2301791875,0.00164795,0.00740051,-1.00682068,0.305176,0.061035,-0.061035
2306809875,0.00143433,0.00776672,-1.00677490,0.427246,0.122070,-0.061035
2311794541,0.00158691,0.00836182,-1.00653076,0.366211,0.122070,-0.183105
2316797666,0.00180054,0.00845337,-1.00654602,0.488281,0.061035,-0.061035
2321784708,0.00172424,0.00787354,-1.00653076,0.305176,-0.061035,-0.061035
2326850625,0.00149536,0.00762939,-1.00614929,0.427246,0.061035,-0.183105
2331811208,0.00141907,0.00799561,-1.00570679,0.366211,0.122070,-0.061035
2336807666,0.00143433,0.00819397,-1.00608826,0.183105,0.122070,-0.122070
2341773083,0.00146484,0.00798035,-1.00717163,0.183105,0.183105,-0.061035
2346817166,0.00157166,0.00769043,-1.00744629,0.305176,0.122070,-0.061035
2351829916,0.00166321,0.00756836,-1.00671387,0.305176,0.122070,-0.061035
2356845958,0.00172424,0.00767517,-1.00648499,0.305176,0.122070,0.061035
2361766666,0.00161743,0.00785828,-1.00694275,0.488281,0.061035,-0.122070
2366852208,0.00108337,0.00825500,-1.00700378,0.427246,0.122070,0.000000
2371930333,0.00082397,0.00880432,-1.00692749,0.305176,0.122070,0.000000
2376805166,0.00129700,0.00889587,-1.00735474,0.305176,0.061035,-0.061035
2381782916,0.00161743,0.00836182,-1.00770569,0.366211,0.122070,-0.183105
2386819541,0.00131226,0.00798035,-1.00721741,0.305176,0.122070,-0.122070
2391824500,0.00097656,0.00827026,-1.00627136,0.305176,0.183105,-0.122070
2396842625,0.00109863,0.00871277,-1.00561523,0.427246,0.122070,-0.061035
2401814416,0.00158691,0.00886536,-1.00543213,0.305176,0.000000,0.000000
2406822208,0.00209045,0.00880432,-1.00572205,0.488281,0.244141,-0.061035
2411797041,0.00195312,0.00875854,-1.00633240,0.244141,0.183105,-0.122070
2416814000,0.00125122,0.00875854,-1.00694275,0.244141,0.183105,-0.122070
2421795666,0.00111389,0.00875854,-1.00732422,0.427246,0.183105,0.000000
2426850250,0.00137329,0.00862122,-1.00737000,0.244141,0.122070,-0.122070
2431824833,0.00119019,0.00823975,-1.00733948,0.305176,0.122070,-0.061035
2436811375,0.00123596,0.00775146,-1.00753784,0.305176,0.061035,-0.122070
2441794833,0.00186157,0.00764465,-1.00779724,0.183105,0.000000,-0.122070
2446806833,0.00213623,0.00799561,-1.00767517,0.366211,0.061035,-0.122070
2451792625,0.00164795,0.00831604,-1.00717163,0.488281,0.122070,-0.183105
2456835750,0.00137329,0.00836182,-1.00682068,0.244141,0.061035,-0.183105
2461786750,0.00181580,0.00823975,-1.00691223,0.305176,-0.061035,0.000000
2466842083,0.00215149,0.00781250,-1.00703430,0.366211,0.061035,0.000000
2471787458,0.00199890,0.00718689,-1.00662231,0.244141,0.000000,-0.122070
2476813791,0.00184631,0.00701904,-1.00616455,0.305176,0.000000,0.000000
2481808625,0.00190735,0.00740051,-1.00634766,0.305176,0.183105,-0.061035
2486822791,0.00209045,0.00762939,-1.00677490,0.366211,0.122070,-0.061035
2491793583,0.00216675,0.00761414,-1.00694275,0.244141,-0.061035,-0.122070
2496827291,0.00190735,0.00784302,-1.00689697,0.244141,0.122070,-0.122070
2501802583,0.00172424,0.00796509,-1.00683594,0.488281,0.122070,-0.061035
2506855208,0.00192261,0.00761414,-1.00669861,0.305176,0.122070,-0.061035
2511785875,0.00213623,0.00730896,-1.00646973,0.366211,0.122070,-0.183105
2516806458,0.00212097,0.00756836,-1.00630188,0.427246,0.122070,0.000000
2521775791,0.00210571,0.00807190,-1.00616455,0.427246,0.061035,-0.061035
2526837041,0.00193787,0.00814819,-1.00631714,0.427246,0.000000,-0.061035
2531796000,0.00151062,0.00762939,-1.00679016,0.488281,0.061035,-0.122070
2536813625,0.00138855,0.00737000,-1.00668335,0.305176,0.122070,-0.122070
2541842500,0.00172424,0.00781250,-1.00593567,0.366211,0.000000,-0.061035
2546806791,0.00186157,0.00830078,-1.00535583,0.488281,0.122070,-0.061035
2551781041,0.00141907,0.00842285,-1.00538635,0.183105,0.061035,-0.183105
2556802708,0.00076294,0.00831604,-1.00593567,0.305176,0.061035,-0.183105
2561766166,0.00061035,0.00805664,-1.00665283,0.366211,0.122070,0.000000
2566820583,0.00119019,0.00802612,-1.00721741,0.366211,0.000000,-0.122070
2571811333,0.00183105,0.00837708,-1.00740051,0.244141,0.000000,-0.183105
2576871916,0.00184631,0.00866699,-1.00712585,0.366211,0.061035,0.000000
2581831500,0.00151062,0.00836182,-1.00665283,0.488281,0.061035,0.122070
2586847041,0.00134277,0.00775146,-1.00648499,0.427246,0.122070,-0.061035
2591842500,0.00131226,0.00758362,-1.00651550,0.366211,0.000000,-0.122070
2596849250,0.00114441,0.00782776,-1.00633240,0.305176,0.061035,-0.061035
2601827875,0.00096130,0.00779724,-1.00581360,0.244141,0.061035,-0.122070
2606844416,0.00080872,0.00772095,-1.00563049,0.244141,0.061035,0.061035
2611865458,0.00079346,0.00799561,-1.00624084,0.244141,0.061035,-0.122070
2616818250,0.00108337,0.00823975,-1.00701904,0.183105,0.000000,-0.122070
2621805125,0.00163269,0.00801086,-1.00709534,0.244141,0.122070,-0.122070
2626848500,0.00193787,0.00764465,-1.00683594,0.366211,0.061035,-0.183105
2631837416,0.00175476,0.00762939,-1.00688171,0.366211,0.000000,-0.122070
2636838708,0.00148010,0.00776672,-1.00685120,0.305176,0.061035,-0.122070
2641846875,0.00149536,0.00784302,-1.00669861,0.305176,0.061035,-0.122070
2646819000,0.00175476,0.00798035,-1.00697327,0.366211,-0.122070,-0.183105
2651804708,0.00175476,0.00837708,-1.00735474,0.427246,0.122070,-0.183105
2656845500,0.00122070,0.00872803,-1.00698853,0.244141,0.000000,0.000000
2661795583,0.00080872,0.00874329,-1.00631714,0.305176,0.061035,-0.061035
2666814708,0.00108337,0.00877380,-1.00627136,0.305176,-0.061035,-0.122070
2671862833,0.00170898,0.00886536,-1.00668335,0.366211,0.183105,-0.244141
2676820791,0.00186157,0.00863647,-1.00691223,0.427246,0.000000,0.000000
2681816250,0.00140381,0.00833130,-1.00682068,0.305176,0.122070,0.000000
2686865916,0.00079346,0.00833130,-1.00643921,0.366211,0.000000,-0.122070
2691829583,0.00050354,0.00843811,-1.00604248,0.427246,0.244141,-0.122070
2696824958,0.00082397,0.00837708,-1.00608826,0.427246,0.061035,-0.061035
2701799250,0.00146484,0.00819397,-1.00631714,0.549316,0.061035,-0.122070
2706890333,0.00190735,0.00784302,-1.00614929,0.427246,0.000000,-0.183105
2711824708,0.00199890,0.00752258,-1.00610352,0.305176,0.061035,-0.122070
2716835541,0.00204468,0.00732422,-1.00648499,0.427246,0.061035,0.000000
2721820916,0.00204468,0.00706482,-1.00663757,0.244141,0.000000,-0.061035
2726826333,0.00213623,0.00694275,-1.00653076,0.244141,0.061035,-0.122070
2731811208,0.00228882,0.00724792,-1.00659180,0.305176,0.000000,-0.122070
2736841833,0.00195312,0.00778198,-1.00666809,0.427246,0.000000,-0.183105
2741821791,0.00123596,0.00814819,-1.00656128,0.427246,0.061035,-0.061035
2746831333,0.00091553,0.00810242,-1.00660706,0.427246,0.061035,-0.061035
2751805541,0.00108337,0.00799561,-1.00682068,0.366211,0.183105,0.000000
2756822541,0.00120544,0.00813293,-1.00694275,0.366211,-0.061035,-0.061035
2761819958,0.00134277,0.00830078,-1.00683594,0.305176,0.000000,-0.061035
2766873375,0.00175476,0.00849915,-1.00662231,0.183105,0.061035,-0.305176
2771827166,0.00218201,0.00885010,-1.00679016,0.305176,0.183105,-0.183105
2776870958,0.00219727,0.00892639,-1.00701904,0.183105,0.122070,-0.122070
2781830083,0.00175476,0.00843811,-1.00671387,0.366211,0.122070,-0.183105
2786847458,0.00120544,0.00790405,-1.00622559,0.366211,0.183105,-0.183105
2791814166,0.00094604,0.00798035,-1.00611877,0.183105,0.061035,-0.183105
2796847083,0.00129700,0.00834656,-1.00613403,0.427246,0.000000,-0.183105
2801812750,0.00192261,0.00839233,-1.00616455,0.305176,0.061035,-0.122070
2806832708,0.00189209,0.00827026,-1.00650024,0.427246,-0.061035,-0.244141
2811817916,0.00151062,0.00813293,-1.00682068,0.427246,0.122070,-0.122070
2816826416,0.00181580,0.00807190,-1.00672913,0.305176,0.061035,-0.122070
2821811041,0.00241089,0.00805664,-1.00648499,0.366211,0.000000,-0.061035
2826830208,0.00222778,0.00814819,-1.00643921,0.244141,0.061035,0.000000
2831837583,0.00178528,0.00825500,-1.00643921,0.244141,-0.061035,-0.122070
2836830625,0.00155640,0.00801086,-1.00639343,0.183105,-0.061035,-0.183105
2841830166,0.00119019,0.00773621,-1.00634766,0.305176,0.122070,-0.122070
2846853000,0.00082397,0.00784302,-1.00631714,0.244141,-0.061035,-0.061035
2851834458,0.00076294,0.00805664,-1.00608826,0.427246,0.061035,0.000000
2856858125,0.00115967,0.00817871,-1.00581360,0.366211,0.122070,-0.061035
2861840250,0.00170898,0.00816345,-1.00633240,0.183105,0.000000,-0.122070
2866869625,0.00183105,0.00782776,-1.00735474,0.366211,0.122070,-0.122070
2871824375,0.00158691,0.00741577,-1.00765991,0.244141,0.122070,0.000000
2876852125,0.00141907,0.00726318,-1.00701904,0.305176,0.183105,-0.122070
2881834291,0.00152588,0.00755310,-1.00610352,0.427246,0.305176,-0.061035
2886869541,0.00192261,0.00807190,-1.00532532,0.427246,0.061035,-0.122070
2891860958,0.00225830,0.00825500,-1.00492859,0.366211,0.122070,-0.122070
2896854708,0.00218201,0.00802612,-1.00515747,0.244141,0.061035,-0.244141
2901828708,0.00196838,0.00779724,-1.00596619,0.366211,0.122070,-0.122070
2906841791,0.00198364,0.00784302,-1.00691223,0.305176,0.061035,-0.183105
2911820708,0.00222778,0.00814819,-1.00741577,0.488281,-0.061035,-0.061035
2916851500,0.00224304,0.00822449,-1.00744629,0.305176,0.061035,-0.061035
2921827166,0.00195312,0.00767517,-1.00737000,0.366211,0.122070,-0.122070
2926894583,0.00158691,0.00703430,-1.00738525,0.366211,0.000000,-0.061035
2931814625,0.00152588,0.00703430,-1.00759888,0.427246,0.061035,-0.122070
2936857375,0.00187683,0.00762939,-1.00767517,0.244141,0.061035,-0.122070
2941837375,0.00201416,0.00831604,-1.00732422,0.305176,0.244141,0.061035
2946855541,0.00155640,0.00872803,-1.00680542,0.183105,0.000000,0.061035
2951833375,0.00114441,0.00881958,-1.00657654,0.305176,0.000000,0.000000
2956890458,0.00112915,0.00859070,-1.00650024,0.488281,0.061035,-0.122070
2961863125,0.00151062,0.00804138,-1.00630188,0.305176,0.000000,-0.183105
2966841083,0.00199890,0.00779724,-1.00653076,0.305176,0.000000,0.000000
2971889000,0.00189209,0.00799561,-1.00726318,0.305176,0.122070,0.061035
2976862916,0.00117493,0.00793457,-1.00758362,0.366211,0.122070,0.061035
2981841958,0.00053406,0.00746155,-1.00692749,0.366211,0.000000,-0.183105
2986859333,0.00051880,0.00737000,-1.00630188,0.366211,0.183105,-0.061035
2991844916,0.00106812,0.00779724,-1.00645447,0.366211,-0.061035,-0.122070
2996860416,0.00169373,0.00820923,-1.00675964,0.366211,0.122070,-0.122070
3001867791,0.00172424,0.00816345,-1.00682068,0.427246,0.122070,-0.122070
3006864500,0.00114441,0.00788879,-1.00717163,0.427246,0.000000,-0.122070
3011824791,0.00123596,0.00778198,-1.00756836,0.244141,-0.061035,-0.122070
3016846958,0.00239563,0.00801086,-1.00727844,0.366211,0.000000,-0.122070
3021842833,0.00312805,0.00839233,-1.00654602,0.305176,0.061035,-0.122070
3026871375,0.00267029,0.00834656,-1.00628662,0.305176,-0.061035,-0.061035
3031861916,0.00205994,0.00808716,-1.00624084,0.366211,0.061035,-0.061035
3036851750,0.00199890,0.00793457,-1.00616455,0.244141,0.061035,-0.183105
3041832458,0.00228882,0.00781250,-1.00657654,0.427246,0.122070,-0.061035
3046856375,0.00245667,0.00791931,-1.00682068,0.305176,0.000000,-0.122070
3051842208,0.00227356,0.00799561,-1.00624084,0.305176,0.061035,-0.183105
3056874875,0.00180054,0.00807190,-1.00596619,0.305176,0.000000,-0.061035
3061848458,0.00167847,0.00816345,-1.00683594,0.305176,0.000000,-0.061035
3066883166,0.00213623,0.00804138,-1.00773621,0.366211,0.061035,0.000000
3071832875,0.00236511,0.00785828,-1.00758362,0.305176,0.122070,0.000000
3076905625,0.00210571,0.00801086,-1.00679016,0.244141,0.122070,0.000000
3081829666,0.00181580,0.00854492,-1.00628662,0.244141,0.061035,-0.061035
3086853458,0.00187683,0.00892639,-1.00619507,0.427246,0.122070,-0.183105
3091826250,0.00170898,0.00877380,-1.00614929,0.244141,0.061035,0.000000
3096890833,0.00141907,0.00834656,-1.00637817,0.488281,-0.122070,-0.061035
3101867000,0.00161743,0.00796509,-1.00694275,0.488281,0.061035,-0.061035
3106862166,0.00216675,0.00782776,-1.00703430,0.366211,0.000000,-0.122070
3111849458,0.00230408,0.00820923,-1.00643921,0.305176,0.061035,-0.061035
3116864208,0.00172424,0.00874329,-1.00610352,0.183105,0.122070,-0.244141
3121854291,0.00105286,0.00874329,-1.00636292,0.366211,0.061035,-0.061035
3126874958,0.00090027,0.00846863,-1.00659180,0.305176,0.000000,-0.183105
3131854541,0.00117493,0.00857544,-1.00634766,0.244141,0.122070,-0.061035
3136868875,0.00157166,0.00900269,-1.00561523,0.183105,0.000000,-0.122070
3141835958,0.00212097,0.00891113,-1.00518799,0.366211,0.061035,-0.183105
3146869333,0.00253296,0.00808716,-1.00572205,0.305176,0.000000,-0.061035
3151840375,0.00224304,0.00727844,-1.00662231,0.305176,-0.061035,-0.183105
3156903833,0.00186157,0.00723267,-1.00712585,0.244141,0.061035,-0.061035
3161853666,0.00195312,0.00785828,-1.00701904,0.427246,0.000000,0.061035
3166864583,0.00205994,0.00827026,-1.00645447,0.427246,0.122070,0.000000
3171832875,0.00199890,0.00798035,-1.00604248,0.427246,0.000000,-0.122070
3176869875,0.00190735,0.00744629,-1.00631714,0.244141,0.061035,-0.122070
3181839833,0.00169373,0.00714111,-1.00689697,0.366211,0.122070,-0.122070
3186862666,0.00126648,0.00718689,-1.00717163,0.305176,0.061035,-0.122070
3191881208,0.00094604,0.00761414,-1.00689697,0.244141,0.061035,-0.061035
3196902333,0.00102234,0.00827026,-1.00645447,0.366211,0.000000,-0.061035
3201860291,0.00111389,0.00863647,-1.00614929,0.366211,0.061035,-0.244141
3206862333,0.00112915,0.00839233,-1.00602722,0.366211,0.122070,0.061035
3211854375,0.00138855,0.00801086,-1.00617981,0.244141,-0.061035,0.000000
3216844208,0.00164795,0.00810242,-1.00653076,0.427246,0.000000,-0.061035
3221827958,0.00154114,0.00863647,-1.00689697,0.305176,0.122070,-0.122070
3226899125,0.00138855,0.00892639,-1.00698853,0.427246,0.122070,0.000000
3231911791,0.00126648,0.00837708,-1.00677490,0.305176,0.122070,-0.061035
3236855916,0.00100708,0.00778198,-1.00646973,0.366211,0.061035,-0.122070
3241884791,0.00054932,0.00801086,-1.00659180,0.366211,0.061035,-0.122070
3246939125,0.00028992,0.00849915,-1.00721741,0.427246,0.061035,-0.061035
3251856333,0.00067139,0.00840759,-1.00750732,0.244141,0.061035,-0.183105
3256943250,0.00114441,0.00790405,-1.00688171,0.366211,0.061035,-0.183105
3261850166,0.00134277,0.00762939,-1.00607300,0.427246,0.183105,-0.061035
3266878416,0.00172424,0.00784302,-1.00588989,0.244141,0.183105,-0.061035
3271851958,0.00213623,0.00811768,-1.00628662,0.305176,0.000000,-0.244141
3276881333,0.00198364,0.00788879,-1.00674438,0.305176,0.122070,-0.061035
3281845166,0.00161743,0.00743103,-1.00682068,0.366211,0.122070,0.000000
3286865583,0.00169373,0.00727844,-1.00621033,0.366211,0.000000,-0.061035
3291871083,0.00205994,0.00755310,-1.00540161,0.366211,0.061035,-0.061035
3296912708,0.00212097,0.00810242,-1.00531006,0.427246,0.061035,-0.122070
3301891583,0.00180054,0.00881958,-1.00570679,0.427246,0.122070,-0.061035
3306908875,0.00157166,0.00923157,-1.00636292,0.244141,0.061035,-0.061035
3311842625,0.00161743,0.00897217,-1.00701904,0.427246,0.061035,-0.183105
3316858458,0.00148010,0.00830078,-1.00689697,0.427246,0.061035,-0.122070
3321876500,0.00134277,0.00791931,-1.00630188,0.366211,0.122070,-0.122070
3326880041,0.00183105,0.00807190,-1.00605774,0.244141,0.183105,-0.061035
3331863708,0.00215149,0.00819397,-1.00614929,0.305176,0.061035,-0.061035
3336880041,0.00146484,0.00804138,-1.00672913,0.305176,0.000000,-0.122070
3341848458,0.00103760,0.00813293,-1.00761414,0.366211,0.061035,-0.061035
3346858791,0.00161743,0.00846863,-1.00749207,0.366211,0.122070,-0.061035
3351866208,0.00187683,0.00836182,-1.00627136,0.183105,0.122070,-0.061035
3356916708,0.00138855,0.00790405,-1.00567627,0.366211,0.122070,0.000000
3361879125,0.00115967,0.00749207,-1.00602722,0.305176,0.000000,-0.122070
3366900833,0.00143433,0.00756836,-1.00627136,0.427246,0.061035,-0.061035
3371864541,0.00143433,0.00805664,-1.00611877,0.305176,0.122070,-0.061035
3376891041,0.00122070,0.00842285,-1.00614929,0.366211,-0.061035,-0.061035
3381869458,0.00148010,0.00816345,-1.00624084,0.427246,0.183105,-0.061035
3386922166,0.00210571,0.00753784,-1.00592041,0.305176,0.122070,0.000000
3391892291,0.00228882,0.00737000,-1.00584412,0.427246,0.122070,-0.122070
3396908416,0.00170898,0.00765991,-1.00671387,0.366211,0.122070,-0.061035
3401887791,0.00088501,0.00790405,-1.00758362,0.305176,0.183105,-0.122070
3406895666,0.00061035,0.00810242,-1.00758362,0.366211,0.122070,-0.061035
3411867958,0.00086975,0.00827026,-1.00711060,0.366211,0.122070,-0.061035
3416894708,0.00135803,0.00825500,-1.00680542,0.183105,-0.061035,-0.061035
3421914625,0.00190735,0.00791931,-1.00672913,0.305176,0.122070,-0.122070
3426917666,0.00234985,0.00753784,-1.00653076,0.305176,0.061035,-0.061035
3431896791,0.00257874,0.00737000,-1.00627136,0.488281,0.122070,-0.183105
3436894958,0.00256348,0.00758362,-1.00614929,0.488281,0.061035,-0.061035
3441877208,0.00227356,0.00799561,-1.00602722,0.183105,0.061035,-0.183105
3446888500,0.00198364,0.00798035,-1.00601196,0.305176,-0.061035,-0.122070
3451875375,0.00193787,0.00756836,-1.00643921,0.427246,0.061035,-0.183105
3456885791,0.00215149,0.00743103,-1.00712585,0.427246,-0.061035,-0.122070
3461861833,0.00216675,0.00782776,-1.00764465,0.488281,0.061035,-0.122070
3466892041,0.00169373,0.00820923,-1.00769043,0.366211,0.122070,-0.122070
3471876708,0.00111389,0.00825500,-1.00747681,0.366211,0.061035,-0.183105
3476902791,0.00086975,0.00822449,-1.00735474,0.366211,-0.122070,0.000000
3481878375,0.00091553,0.00827026,-1.00685120,0.305176,-0.061035,-0.061035
3486890500,0.00097656,0.00827026,-1.00622559,0.366211,0.122070,-0.061035
3491851166,0.00103760,0.00804138,-1.00650024,0.427246,0.061035,-0.183105
3496895916,0.00123596,0.00764465,-1.00714111,0.366211,0.122070,-0.183105
3501867750,0.00144958,0.00765991,-1.00721741,0.427246,0.061035,-0.122070
3506870666,0.00158691,0.00827026,-1.00692749,0.244141,0.000000,-0.183105
3511865875,0.00178528,0.00883484,-1.00680542,0.305176,0.061035,-0.061035
3516894583,0.00181580,0.00889587,-1.00689697,0.244141,0.000000,-0.183105
3521871166,0.00173950,0.00859070,-1.00721741,0.366211,0.122070,0.000000
3526916750,0.00175476,0.00816345,-1.00752258,0.244141,0.122070,-0.122070
3531879916,0.00170898,0.00775146,-1.00714111,0.305176,0.122070,-0.122070
3536903750,0.00181580,0.00761414,-1.00611877,0.427246,0.122070,-0.244141
3541961291,0.00227356,0.00769043,-1.00555420,0.427246,-0.122070,0.061035
3546899791,0.00242615,0.00761414,-1.00582886,0.427246,0.122070,0.000000
3551879958,0.00215149,0.00747681,-1.00650024,0.366211,0.122070,-0.061035
3556906083,0.00199890,0.00769043,-1.00712585,0.244141,-0.061035,-0.061035
3561875750,0.00207520,0.00808716,-1.00711060,0.305176,-0.061035,-0.122070
3566930958,0.00177002,0.00808716,-1.00636292,0.183105,0.000000,-0.122070
3571905791,0.00128174,0.00773621,-1.00576782,0.488281,0.061035,-0.122070
3576892250,0.00138855,0.00767517,-1.00617981,0.244141,0.000000,-0.061035
3581884125,0.00183105,0.00773621,-1.00708008,0.305176,-0.061035,-0.122070
3586882708,0.00202942,0.00738525,-1.00762939,0.366211,0.061035,-0.061035
3591924541,0.00198364,0.00708008,-1.00764465,0.488281,0.122070,0.000000
3596878791,0.00184631,0.00717163,-1.00706482,0.366211,0.061035,-0.061035
3601895625,0.00155640,0.00747681,-1.00645447,0.244141,0.000000,-0.183105
3606951458,0.00117493,0.00796509,-1.00643921,0.061035,0.000000,-0.244141
3611901166,0.00096130,0.00846863,-1.00674438,0.305176,0.183105,-0.061035
3616895708,0.00111389,0.00863647,-1.00682068,0.488281,0.061035,-0.061035
3621887625,0.00158691,0.00819397,-1.00651550,0.549316,0.183105,-0.122070
3626892375,0.00183105,0.00741577,-1.00617981,0.427246,0.061035,0.000000
3631930583,0.00164795,0.00709534,-1.00622559,0.183105,-0.061035,-0.122070
3636897791,0.00149536,0.00749207,-1.00645447,0.427246,-0.061035,0.000000
3641900541,0.00170898,0.00805664,-1.00646973,0.305176,0.061035,-0.061035
3646878416,0.00198364,0.00834656,-1.00642395,0.427246,0.122070,-0.122070
3651903500,0.00181580,0.00836182,-1.00654602,0.366211,0.000000,0.000000
3656915958,0.00152588,0.00837708,-1.00674438,0.122070,0.061035,-0.122070
3661906833,0.00161743,0.00854492,-1.00700378,0.366211,0.000000,-0.061035
3666922166,0.00205994,0.00845337,-1.00726318,0.366211,0.000000,-0.061035
3671916625,0.00242615,0.00820923,-1.00737000,0.183105,0.183105,-0.061035
3676898291,0.00234985,0.00808716,-1.00729370,0.305176,0.122070,-0.183105
3681866666,0.00166321,0.00794983,-1.00714111,0.366211,0.061035,-0.061035
3686909083,0.00080872,0.00794983,-1.00714111,0.305176,-0.061035,-0.061035
3691921791,0.00047302,0.00817871,-1.00746155,0.305176,0.000000,-0.183105
3697024291,0.00091553,0.00848389,-1.00743103,0.366211,0.000000,-0.183105
3701900125,0.00177002,0.00839233,-1.00686646,0.610352,0.183105,0.061035
3706930208,0.00233459,0.00772095,-1.00659180,0.488281,0.061035,0.000000
3711877958,0.00202942,0.00730896,-1.00662231,0.427246,0.000000,-0.061035
3716890791,0.00105286,0.00756836,-1.00637817,0.366211,0.000000,-0.061035
3721899208,0.00044250,0.00810242,-1.00614929,0.305176,0.061035,-0.122070
3726918750,0.00090027,0.00856018,-1.00622559,0.427246,0.122070,-0.122070
3731897708,0.00202942,0.00845337,-1.00639343,0.366211,0.061035,-0.061035
3736909416,0.00286865,0.00785828,-1.00665283,0.244141,-0.061035,-0.122070
3741892166,0.00276184,0.00762939,-1.00732422,0.305176,0.122070,0.000000
3746916833,0.00195312,0.00810242,-1.00787354,0.305176,0.061035,-0.183105
3751890250,0.00117493,0.00848389,-1.00761414,0.244141,0.000000,-0.183105
3756929916,0.00094604,0.00840759,-1.00685120,0.427246,0.061035,-0.061035
3761907416,0.00112915,0.00813293,-1.00616455,0.366211,0.122070,-0.122070
3766950000,0.00105286,0.00787354,-1.00595093,0.427246,0.061035,-0.183105
3771887875,0.00071716,0.00775146,-1.00630188,0.366211,0.000000,-0.061035
3776894666,0.00070190,0.00782776,-1.00695801,0.366211,0.000000,-0.183105
3781879458,0.00132751,0.00814819,-1.00747681,0.244141,0.000000,-0.061035
3786904500,0.00225830,0.00860596,-1.00738525,0.305176,0.183105,0.061035
3791922708,0.00270081,0.00883484,-1.00706482,0.183105,0.122070,-0.122070
3796933416,0.00228882,0.00881958,-1.00708008,0.244141,0.122070,-0.183105
3801900750,0.00180054,0.00866699,-1.00711060,0.244141,0.000000,-0.122070
3806894000,0.00195312,0.00828552,-1.00668335,0.305176,0.000000,0.000000
3811897458,0.00209045,0.00773621,-1.00636292,0.366211,0.000000,0.000000
3816912750,0.00166321,0.00737000,-1.00666809,0.427246,0.122070,0.000000
3821909666,0.00143433,0.00753784,-1.00701904,0.183105,0.183105,-0.183105
3826924791,0.00184631,0.00817871,-1.00712585,0.488281,0.061035,-0.061035
3831899125,0.00231934,0.00863647,-1.00689697,0.244141,0.000000,-0.061035
3836920791,0.00212097,0.00856018,-1.00674438,0.366211,0.122070,-0.061035
3841883458,0.00135803,0.00831604,-1.00718689,0.305176,0.000000,-0.183105
3846908666,0.00109863,0.00822449,-1.00776672,0.244141,0.000000,-0.122070
3851925291,0.00180054,0.00817871,-1.00752258,0.488281,0.061035,-0.183105
3856955125,0.00244141,0.00816345,-1.00671387,0.366211,0.000000,-0.122070
3861923250,0.00228882,0.00837708,-1.00628662,0.427246,0.000000,-0.061035
3866946166,0.00170898,0.00843811,-1.00660706,0.427246,-0.061035,-0.122070
3871915458,0.00119019,0.00810242,-1.00735474,0.549316,0.061035,-0.122070
3876922333,0.00111389,0.00782776,-1.00737000,0.488281,0.061035,0.061035
3881903500,0.00128174,0.00782776,-1.00611877,0.549316,0.061035,-0.061035
3886916208,0.00125122,0.00767517,-1.00459290,0.366211,0.122070,-0.061035
3891945916,0.00122070,0.00743103,-1.00442505,0.122070,0.061035,-0.061035
3896945250,0.00135803,0.00737000,-1.00599670,0.305176,0.061035,-0.061035
3901905875,0.00152588,0.00727844,-1.00791931,0.183105,0.183105,-0.061035
3906917458,0.00172424,0.00715637,-1.00955200,0.183105,0.183105,-0.122070
3911913333,0.00172424,0.00752258,-1.01098633,0.305176,0.183105,0.061035
3916918791,0.00155640,0.00814819,-1.01058960,0.305176,0.122070,-0.061035
3921916416,0.00143433,0.00859070,-1.00779724,0.122070,0.122070,0.000000
3926928541,0.00154114,0.00897217,-1.00521851,0.305176,0.000000,-0.122070
3931901458,0.00196838,0.00907898,-1.00474548,0.305176,0.061035,0.000000
3936925541,0.00222778,0.00889587,-1.00585938,0.366211,0.000000,-0.061035
3941925708,0.00193787,0.00874329,-1.00706482,0.122070,0.000000,-0.183105
3946925875,0.00152588,0.00878906,-1.00752258,0.183105,0.000000,-0.244141
3951900625,0.00151062,0.00897217,-1.00744629,0.305176,0.000000,0.000000
3956936291,0.00180054,0.00898743,-1.00721741,0.366211,0.061035,-0.122070
3961922500,0.00186157,0.00880432,-1.00675964,0.305176,0.122070,-0.122070
3966927208,0.00137329,0.00854492,-1.00617981,0.366211,0.122070,0.000000
3971907208,0.00068665,0.00830078,-1.00604248,0.305176,0.000000,-0.061035
3976937875,0.00042725,0.00810242,-1.00621033,0.305176,0.122070,0.061035
3981919416,0.00077820,0.00788879,-1.00614929,0.366211,-0.061035,-0.183105
3986910666,0.00141907,0.00776672,-1.00607300,0.244141,0.061035,-0.061035
3991911625,0.00181580,0.00776672,-1.00636292,0.305176,0.061035,-0.061035
3996924583,0.00157166,0.00773621,-1.00682068,0.366211,0.061035,-0.122070
4001921000,0.00115967,0.00749207,-1.00717163,0.366211,0.061035,-0.183105
4007006875,0.00129700,0.00708008,-1.00735474,0.244141,0.061035,-0.122070
4011907500,0.00177002,0.00692749,-1.00750732,0.427246,0.000000,0.000000
4016929875,0.00215149,0.00709534,-1.00759888,0.305176,0.183105,0.061035
4021906333,0.00253296,0.00724792,-1.00724792,0.427246,0.061035,-0.061035
4026971208,0.00277710,0.00714111,-1.00660706,0.427246,0.122070,-0.122070
4031946833,0.00260925,0.00700378,-1.00627136,0.488281,0.061035,0.000000
4036931708,0.00212097,0.00730896,-1.00617981,0.427246,0.000000,-0.305176
4041913916,0.00151062,0.00778198,-1.00585938,0.671387,0.122070,-0.183105
4046931375,0.00115967,0.00817871,-1.00564575,0.488281,0.061035,-0.122070
4051914458,0.00111389,0.00863647,-1.00599670,0.305176,0.122070,-0.061035
4056919750,0.00086975,0.00921631,-1.00659180,0.427246,0.061035,-0.122070
4061930541,0.00071716,0.00926208,-1.00721741,0.488281,0.122070,0.000000
4066949125,0.00099182,0.00852966,-1.00770569,0.244141,0.061035,-0.122070
4071935083,0.00109863,0.00784302,-1.00796509,0.244141,0.061035,-0.183105
4076942625,0.00094604,0.00793457,-1.00820923,0.366211,0.122070,-0.122070
4081920500,0.00126648,0.00851440,-1.00833130,0.549316,0.183105,-0.061035
4086938916,0.00196838,0.00880432,-1.00794983,0.488281,0.122070,-0.061035
4091930416,0.00218201,0.00868225,-1.00726318,0.366211,0.061035,0.000000
4096932250,0.00160217,0.00862122,-1.00656128,0.488281,0.061035,-0.122070
4101899041,0.00125122,0.00859070,-1.00610352,0.427246,0.000000,-0.061035
4106949833,0.00144958,0.00840759,-1.00622559,0.427246,0.061035,-0.061035
4111954000,0.00140381,0.00820923,-1.00660706,0.427246,0.000000,-0.183105
4116934458,0.00128174,0.00793457,-1.00645447,0.427246,0.061035,-0.061035
4121918708,0.00154114,0.00759888,-1.00599670,0.488281,0.061035,0.061035
4126961000,0.00198364,0.00752258,-1.00590515,0.427246,0.061035,-0.122070
4131943291,0.00262451,0.00747681,-1.00637817,0.610352,0.061035,-0.061035
4136931250,0.00343323,0.00712585,-1.00700378,0.366211,0.000000,-0.122070
4141911833,0.00361633,0.00682068,-1.00718689,0.366211,-0.061035,-0.122070
4146938625,0.00274658,0.00682068,-1.00703430,0.488281,0.122070,0.000000
4151938500,0.00164795,0.00721741,-1.00701904,0.671387,0.061035,-0.061035
4156934750,0.00102234,0.00788879,-1.00686646,0.427246,-0.061035,-0.244141
4162009500,0.00106812,0.00851440,-1.00633240,0.488281,0.061035,0.000000
4166970166,0.00146484,0.00863647,-1.00596619,0.366211,0.000000,-0.061035
4171941875,0.00144958,0.00819397,-1.00592041,0.427246,0.122070,-0.061035
4176952125,0.00123596,0.00769043,-1.00617981,0.549316,0.061035,0.061035
4181928000,0.00123596,0.00738525,-1.00689697,0.488281,0.122070,0.000000
4186941750,0.00125122,0.00727844,-1.00776672,0.427246,0.122070,0.000000
4191954791,0.00151062,0.00730896,-1.00802612,0.305176,-0.122070,-0.061035
4196951458,0.00190735,0.00759888,-1.00759888,0.244141,0.061035,-0.122070
4201930583,0.00170898,0.00807190,-1.00753784,0.305176,0.061035,-0.122070
4206984666,0.00126648,0.00834656,-1.00804138,0.183105,0.122070,-0.183105
4211908208,0.00138855,0.00834656,-1.00828552,0.122070,0.061035,-0.061035
4216932916,0.00169373,0.00827026,-1.00794983,0.122070,0.122070,-0.122070
4221931250,0.00173950,0.00813293,-1.00762939,0.122070,-0.061035,-0.061035
4226966166,0.00178528,0.00810242,-1.00827026,0.061035,0.061035,-0.061035
4231927583,0.00161743,0.00814819,-1.00910950,0.122070,0.122070,-0.061035
4236941541,0.00091553,0.00833130,-1.00878906,0.244141,0.122070,0.000000
4241949916,0.00054932,0.00862122,-1.00773621,0.122070,0.122070,-0.061035
4246951208,0.00109863,0.00857544,-1.00657654,0.183105,0.122070,-0.061035
4251915791,0.00177002,0.00782776,-1.00535583,0.366211,0.000000,0.000000
4256933458,0.00163269,0.00701904,-1.00431824,0.427246,0.122070,0.122070
4261928375,0.00083923,0.00691223,-1.00398254,0.366211,0.122070,0.000000
4266983375,0.00028992,0.00715637,-1.00442505,0.488281,0.000000,-0.183105
4271937791,0.00044250,0.00729370,-1.00531006,0.427246,0.183105,-0.183105
4276957208,0.00103760,0.00756836,-1.00631714,0.549316,0.122070,0.000000
4281921541,0.00148010,0.00798035,-1.00703430,0.488281,0.061035,-0.061035
4286947541,0.00154114,0.00814819,-1.00694275,0.427246,0.061035,-0.061035
4291917250,0.00152588,0.00769043,-1.00604248,0.488281,0.122070,-0.122070
4296942041,0.00155640,0.00718689,-1.00555420,0.488281,0.122070,-0.061035
4301949291,0.00160217,0.00743103,-1.00637817,0.366211,0.000000,-0.244141
4306959458,0.00192261,0.00804138,-1.00724792,0.305176,0.061035,-0.061035
4311940333,0.00244141,0.00817871,-1.00708008,0.427246,0.061035,-0.122070
4316983250,0.00239563,0.00798035,-1.00633240,0.427246,0.061035,0.000000
4321920083,0.00189209,0.00801086,-1.00593567,0.305176,0.061035,-0.122070
4326967708,0.00148010,0.00822449,-1.00617981,0.305176,0.122070,-0.122070
4331934166,0.00074768,0.00817871,-1.00653076,0.427246,0.183105,0.000000
4336954125,-0.00033569,0.00775146,-1.00653076,0.427246,0.000000,0.000000
4341915666,-0.00083923,0.00717163,-1.00643921,0.427246,0.061035,0.000000
4346953416,-0.00018311,0.00686646,-1.00643921,0.305176,0.000000,-0.061035
4351940125,0.00096130,0.00709534,-1.00637817,0.427246,0.122070,-0.061035
4356943125,0.00160217,0.00759888,-1.00634766,0.244141,0.000000,-0.061035
4361963250,0.00161743,0.00782776,-1.00677490,0.366211,-0.061035,-0.061035
4366962750,0.00161743,0.00773621,-1.00723267,0.488281,0.061035,-0.183105
4371949166,0.00181580,0.00765991,-1.00708008,0.366211,0.000000,-0.122070
4376964041,0.00196838,0.00750732,-1.00639343,0.427246,0.000000,-0.061035
4381934208,0.00195312,0.00724792,-1.00592041,0.366211,0.122070,0.000000
4386964375,0.00184631,0.00695801,-1.00628662,0.244141,0.122070,-0.061035
4391962458,0.00186157,0.00689697,-1.00718689,0.244141,0.000000,-0.061035
4396989041,0.00216675,0.00723267,-1.00767517,0.305176,0.061035,-0.122070
4401943791,0.00259399,0.00759888,-1.00744629,0.427246,0.183105,-0.061035
4406944375,0.00254822,0.00778198,-1.00700378,0.427246,0.000000,-0.122070
4411940458,0.00213623,0.00790405,-1.00659180,0.305176,0.061035,-0.122070
4416953916,0.00187683,0.00811768,-1.00608826,0.305176,0.000000,-0.183105
4421936541,0.00187683,0.00808716,-1.00579834,0.366211,0.061035,-0.183105
4426981958,0.00199890,0.00752258,-1.00614929,0.305176,0.122070,-0.122070
4431957958,0.00213623,0.00679016,-1.00662231,0.305176,0.122070,-0.061035
4436965458,0.00222778,0.00651550,-1.00662231,0.366211,0.000000,-0.061035
4441920541,0.00219727,0.00698853,-1.00630188,0.305176,0.061035,-0.122070
4446956083,0.00180054,0.00762939,-1.00581360,0.488281,0.061035,0.000000
4451939750,0.00114441,0.00793457,-1.00569153,0.305176,0.000000,-0.061035
4456978875,0.00106812,0.00805664,-1.00636292,0.305176,0.061035,0.000000
4461962250,0.00138855,0.00810242,-1.00714111,0.366211,-0.061035,0.000000
4466958708,0.00111389,0.00778198,-1.00711060,0.305176,0.000000,-0.122070
4472003750,0.00068665,0.00737000,-1.00671387,0.305176,0.122070,-0.183105
4476960708,0.00094604,0.00723267,-1.00666809,0.366211,0.061035,-0.122070
4481948125,0.00138855,0.00727844,-1.00680542,0.305176,0.183105,-0.122070
4486967833,0.00126648,0.00735474,-1.00674438,0.549316,0.122070,0.000000
4491957166,0.00076294,0.00761414,-1.00648499,0.244141,0.122070,-0.061035
4496999041,0.00064087,0.00807190,-1.00633240,0.427246,0.061035,-0.061035
4501959625,0.00112915,0.00833130,-1.00625610,0.183105,-0.061035,-0.061035
4506958791,0.00177002,0.00823975,-1.00605774,0.488281,0.122070,-0.061035
4511949458,0.00198364,0.00811768,-1.00604248,0.488281,0.061035,-0.122070
4516963875,0.00184631,0.00823975,-1.00648499,0.183105,0.122070,-0.183105
4521929291,0.00180054,0.00830078,-1.00711060,0.549316,0.061035,-0.061035
4526997000,0.00189209,0.00807190,-1.00759888,0.366211,0.122070,-0.061035
4531948166,0.00196838,0.00787354,-1.00791931,0.305176,0.122070,-0.061035
4536967208,0.00199890,0.00787354,-1.00758362,0.183105,0.000000,-0.244141
4541956416,0.00199890,0.00784302,-1.00662231,0.366211,0.061035,-0.122070
4546969125,0.00163269,0.00759888,-1.00610352,0.183105,0.061035,-0.061035
4551944250,0.00119019,0.00718689,-1.00640869,0.366211,0.000000,-0.122070
4556997541,0.00120544,0.00706482,-1.00683594,0.244141,0.122070,0.000000
4561964583,0.00144958,0.00721741,-1.00694275,0.305176,0.061035,-0.061035
4566960125,0.00180054,0.00724792,-1.00688171,0.305176,-0.061035,-0.183105
4571962875,0.00221252,0.00701904,-1.00686646,0.305176,0.061035,-0.061035
4577032708,0.00236511,0.00695801,-1.00715637,0.366211,0.183105,-0.061035
4581961041,0.00231934,0.00724792,-1.00755310,0.366211,0.061035,-0.122070
4586971333,0.00234985,0.00767517,-1.00735474,0.427246,0.183105,-0.122070
4591991000,0.00230408,0.00799561,-1.00640869,0.366211,0.122070,-0.061035
4597005291,0.00192261,0.00813293,-1.00558472,0.366211,0.122070,0.000000
4601953291,0.00143433,0.00799561,-1.00575256,0.305176,0.183105,-0.122070
4606996333,0.00137329,0.00775146,-1.00669861,0.366211,0.122070,-0.061035
4611947333,0.00186157,0.00749207,-1.00738525,0.488281,0.061035,-0.122070
4616955333,0.00218201,0.00730896,-1.00740051,0.488281,0.000000,0.061035
4621980708,0.00172424,0.00737000,-1.00704956,0.366211,0.122070,-0.122070
4626992083,0.00134277,0.00755310,-1.00680542,0.427246,0.000000,-0.061035
4631966916,0.00173950,0.00741577,-1.00680542,0.427246,0.000000,-0.183105
4636976541,0.00233459,0.00703430,-1.00686646,0.305176,0.061035,-0.061035
4641940750,0.00253296,0.00706482,-1.00701904,0.244141,0.000000,-0.061035
4646977625,0.00228882,0.00749207,-1.00715637,0.244141,0.061035,-0.122070
4651960583,0.00173950,0.00770569,-1.00703430,0.305176,0.061035,-0.183105
4656977083,0.00134277,0.00770569,-1.00680542,0.305176,0.000000,-0.122070
4661974791,0.00117493,0.00781250,-1.00636292,0.244141,0.061035,0.000000
4666934708,0.00085449,0.00782776,-1.00572205,0.244141,0.000000,-0.122070
4671975125,0.00051880,0.00750732,-1.00543213,0.305176,0.122070,0.000000
4676978875,0.00054932,0.00714111,-1.00588989,0.305176,0.000000,-0.183105
4681951291,0.00120544,0.00708008,-1.00669861,0.427246,0.000000,-0.122070
4686972083,0.00218201,0.00729370,-1.00685120,0.244141,0.122070,-0.183105
4691988958,0.00225830,0.00761414,-1.00634766,0.427246,0.183105,-0.122070
4697010500,0.00141907,0.00794983,-1.00602722,0.244141,0.183105,-0.122070
4701943208,0.00091553,0.00819397,-1.00614929,0.244141,0.061035,-0.061035
4706989958,0.00093079,0.00813293,-1.00628662,0.366211,0.122070,-0.122070
4711956833,0.00112915,0.00787354,-1.00640869,0.427246,0.122070,-0.122070
4716966416,0.00134277,0.00764465,-1.00685120,0.427246,0.061035,-0.061035
4721961375,0.00134277,0.00729370,-1.00720215,0.366211,0.122070,-0.183105
4727020250,0.00131226,0.00680542,-1.00694275,0.244141,0.061035,-0.122070
4732021291,0.00143433,0.00668335,-1.00662231,0.305176,-0.061035,-0.244141
4737006083,0.00163269,0.00715637,-1.00686646,0.305176,0.061035,-0.061035
4741954375,0.00161743,0.00772095,-1.00718689,0.427246,0.061035,0.000000
4746979583,0.00122070,0.00790405,-1.00701904,0.366211,0.122070,-0.061035
4751965708,0.00088501,0.00793457,-1.00656128,0.305176,0.183105,-0.122070
4757011541,0.00067139,0.00810242,-1.00625610,0.366211,0.000000,-0.183105
4761990000,0.00088501,0.00808716,-1.00605774,0.549316,0.061035,0.000000
4766996875,0.00148010,0.00775146,-1.00596619,0.427246,0.000000,-0.122070
4771953791,0.00181580,0.00779724,-1.00625610,0.305176,0.061035,-0.122070
4776989958,0.00175476,0.00848389,-1.00669861,0.366211,0.061035,0.000000
4781967458,0.00155640,0.00900269,-1.00674438,0.366211,0.183105,0.000000
4787000708,0.00143433,0.00866699,-1.00665283,0.427246,0.061035,0.000000
4791980375,0.00143433,0.00770569,-1.00695801,0.244141,-0.061035,-0.122070
4797023125,0.00163269,0.00708008,-1.00752258,0.244141,0.061035,-0.183105
4801994125,0.00190735,0.00744629,-1.00770569,0.305176,0.183105,-0.122070
4806976916,0.00181580,0.00801086,-1.00756836,0.427246,0.000000,-0.061035
4811967541,0.00163269,0.00814819,-1.00726318,0.305176,0.122070,-0.061035
4816985125,0.00190735,0.00791931,-1.00694275,0.244141,-0.061035,-0.244141
4821995375,0.00219727,0.00750732,-1.00680542,0.427246,0.000000,0.000000
4827000041,0.00187683,0.00723267,-1.00682068,0.366211,0.061035,-0.061035
4831964791,0.00126648,0.00727844,-1.00672913,0.305176,0.183105,-0.061035
4837029708,0.00103760,0.00749207,-1.00645447,0.305176,0.122070,-0.061035
4841953791,0.00132751,0.00732422,-1.00611877,0.427246,0.061035,-0.183105
4847034583,0.00173950,0.00691223,-1.00588989,0.305176,0.061035,-0.183105
4851971875,0.00198364,0.00686646,-1.00602722,0.366211,0.122070,-0.122070
4857002958,0.00199890,0.00715637,-1.00657654,0.427246,0.061035,-0.061035
4861988041,0.00196838,0.00749207,-1.00724792,0.305176,0.122070,-0.061035
4866991333,0.00213623,0.00773621,-1.00756836,0.244141,0.122070,-0.061035
4871988458,0.00257874,0.00772095,-1.00732422,0.366211,0.122070,0.000000
4876995583,0.00277710,0.00761414,-1.00704956,0.244141,0.000000,-0.122070
4881970166,0.00247192,0.00750732,-1.00694275,0.244141,0.000000,-0.183105
4886999541,0.00224304,0.00740051,-1.00686646,0.366211,0.000000,-0.183105
4892008833,0.00230408,0.00755310,-1.00666809,0.305176,0.122070,-0.183105
4897021125,0.00218201,0.00817871,-1.00630188,0.488281,0.122070,-0.122070
4902018250,0.00164795,0.00883484,-1.00595093,0.488281,0.183105,0.000000
4906975750,0.00129700,0.00863647,-1.00595093,0.366211,0.122070,0.000000
4911975708,0.00154114,0.00784302,-1.00637817,0.305176,0.122070,-0.061035
4916987958,0.00181580,0.00764465,-1.00714111,0.305176,0.061035,-0.061035
4921967916,0.00169373,0.00817871,-1.00761414,0.366211,0.122070,-0.061035
4927032958,0.00112915,0.00831604,-1.00724792,0.488281,0.244141,-0.061035
4931984291,0.00056458,0.00778198,-1.00671387,0.366211,0.000000,-0.183105
4937009458,0.00038147,0.00749207,-1.00659180,0.366211,-0.122070,-0.061035
4941997125,0.00054932,0.00799561,-1.00657654,0.244141,0.122070,-0.061035
4946988666,0.00102234,0.00842285,-1.00659180,0.244141,0.061035,0.061035
4951984083,0.00148010,0.00837708,-1.00662231,0.305176,0.122070,-0.061035
4957009875,0.00186157,0.00819397,-1.00650024,0.366211,0.061035,-0.061035
4962000333,0.00231934,0.00779724,-1.00630188,0.366211,0.000000,-0.061035
4967043541,0.00283813,0.00715637,-1.00607300,0.305176,0.244141,-0.122070
4971994875,0.00302124,0.00675964,-1.00590515,0.244141,0.122070,0.000000
4976997166,0.00271606,0.00659180,-1.00604248,0.244141,-0.061035,-0.183105
4981964291,0.00241089,0.00653076,-1.00660706,0.305176,0.061035,0.000000
4986992291,0.00228882,0.00672913,-1.00733948,0.305176,0.122070,-0.122070
4992053708,0.00218201,0.00689697,-1.00761414,0.244141,-0.061035,0.000000
4997007125,0.00190735,0.00668335,-1.00715637,0.305176,0.122070,0.000000
5002004666,0.00157166,0.00619507,-1.00665283,0.244141,0.061035,-0.061035
5007046333,0.00158691,0.00599670,-1.00653076,0.366211,0.122070,-0.061035
5011976083,0.00202942,0.00631714,-1.00666809,0.305176,0.061035,-0.183105
5016997625,0.00210571,0.00688171,-1.00689697,0.366211,0.183105,-0.122070
5021985958,0.00180054,0.00733948,-1.00714111,0.244141,0.061035,-0.122070
5027030208,0.00183105,0.00764465,-1.00715637,0.366211,0.061035,-0.061035
5031988458,0.00196838,0.00775146,-1.00669861,0.366211,0.122070,-0.122070
5037031791,0.00175476,0.00756836,-1.00599670,0.244141,0.122070,-0.122070
5041970583,0.00160217,0.00743103,-1.00567627,0.366211,0.061035,-0.122070
5046990291,0.00177002,0.00772095,-1.00605774,0.427246,0.122070,-0.183105
5051982833,0.00186157,0.00808716,-1.00682068,0.427246,-0.061035,0.061035
5057104208,0.00152588,0.00810242,-1.00723267,0.305176,0.183105,-0.122070
5061974208,0.00106812,0.00804138,-1.00692749,0.427246,0.000000,-0.061035
5066995166,0.00088501,0.00811768,-1.00631714,0.366211,0.122070,-0.061035
5071986750,0.00093079,0.00810242,-1.00613403,0.305176,0.183105,0.061035
5076995083,0.00103760,0.00808716,-1.00628662,0.366211,0.000000,-0.061035
5081973625,0.00134277,0.00819397,-1.00630188,0.244141,0.061035,-0.122070
5087001291,0.00177002,0.00833130,-1.00617981,0.244141,0.183105,0.000000
5091988875,0.00193787,0.00843811,-1.00637817,0.244141,0.061035,-0.061035
5097014291,0.00161743,0.00825500,-1.00657654,0.244141,0.061035,-0.183105
5101981083,0.00100708,0.00759888,-1.00662231,0.427246,0.061035,-0.122070
5107019083,0.00086975,0.00695801,-1.00709534,0.305176,-0.061035,-0.183105
5111986500,0.00123596,0.00691223,-1.00785828,0.366211,0.061035,-0.061035
5117007958,0.00161743,0.00741577,-1.00794983,0.366211,0.000000,0.000000
5122001916,0.00198364,0.00776672,-1.00724792,0.366211,0.000000,-0.061035
5127000000,0.00234985,0.00756836,-1.00646973,0.244141,-0.061035,-0.061035
5131976791,0.00248718,0.00700378,-1.00621033,0.366211,0.000000,-0.183105
5137013583,0.00244141,0.00659180,-1.00672913,0.305176,0.061035,-0.061035
5141995541,0.00231934,0.00668335,-1.00740051,0.305176,0.061035,-0.061035
5147036500,0.00224304,0.00704956,-1.00775146,0.427246,0.122070,-0.122070
5152000041,0.00196838,0.00714111,-1.00737000,0.305176,0.122070,-0.183105
5157021083,0.00138855,0.00674438,-1.00625610,0.427246,0.061035,-0.183105
5161999708,0.00094604,0.00668335,-1.00550842,0.366211,0.000000,-0.122070
5167022500,0.00073242,0.00735474,-1.00602722,0.244141,0.000000,-0.244141
5171997708,0.00056458,0.00804138,-1.00735474,0.488281,0.122070,-0.183105
5177017708,0.00061035,0.00794983,-1.00807190,0.305176,0.061035,-0.061035
5181976708,0.00090027,0.00747681,-1.00740051,0.183105,-0.061035,-0.061035
5187019916,0.00126648,0.00723267,-1.00608826,0.366211,0.000000,-0.183105
5192028125,0.00148010,0.00730896,-1.00529480,0.488281,0.061035,-0.061035
5197004916,0.00155640,0.00772095,-1.00541687,0.366211,0.000000,-0.061035
5201977750,0.00169373,0.00811768,-1.00610352,0.244141,0.000000,-0.061035
5207013083,0.00154114,0.00790405,-1.00674438,0.366211,-0.061035,-0.061035
5212006041,0.00106812,0.00723267,-1.00691223,0.244141,-0.122070,-0.183105
5217010583,0.00108337,0.00700378,-1.00666809,0.488281,0.061035,-0.061035
5221986250,0.00177002,0.00741577,-1.00651550,0.183105,-0.061035,0.000000
5227004375,0.00205994,0.00782776,-1.00669861,0.366211,0.061035,-0.061035
5232022083,0.00125122,0.00802612,-1.00688171,0.427246,0.000000,-0.122070
5237009708,0.00033569,0.00810242,-1.00686646,0.366211,0.061035,-0.122070
5242023083,0.00059509,0.00784302,-1.00665283,0.366211,0.122070,-0.122070
5247025583,0.00183105,0.00744629,-1.00639343,0.305176,0.061035,-0.061035
5251997041,0.00273132,0.00744629,-1.00622559,0.122070,0.122070,-0.183105
5257055041,0.00257874,0.00762939,-1.00607300,0.305176,0.000000,-0.183105
5261983333,0.00193787,0.00743103,-1.00613403,0.305176,0.122070,-0.122070
5267052916,0.00134277,0.00697327,-1.00619507,0.305176,0.122070,-0.061035
5271983750,0.00119019,0.00674438,-1.00625610,0.366211,0.000000,-0.061035
5277012500,0.00158691,0.00682068,-1.00642395,0.366211,0.061035,-0.061035
5281995458,0.00231934,0.00708008,-1.00645447,0.244141,0.061035,-0.061035
5287026041,0.00282288,0.00711060,-1.00624084,0.305176,0.183105,-0.122070
5292025166,0.00267029,0.00677490,-1.00596619,0.366211,0.061035,0.000000
5297021958,0.00216675,0.00680542,-1.00630188,0.244141,0.061035,-0.061035
5302027208,0.00195312,0.00750732,-1.00738525,0.427246,0.061035,-0.122070
5307029625,0.00202942,0.00819397,-1.00784302,0.366211,0.183105,-0.061035
5311990458,0.00186157,0.00822449,-1.00695801,0.305176,0.000000,-0.122070
5317020541,0.00152588,0.00791931,-1.00599670,0.427246,0.061035,-0.122070
5321991291,0.00138855,0.00788879,-1.00579834,0.305176,0.061035,-0.183105
5327058458,0.00151062,0.00813293,-1.00604248,0.427246,0.000000,-0.122070
5332042250,0.00173950,0.00827026,-1.00637817,0.244141,0.061035,-0.183105
5337042166,0.00151062,0.00807190,-1.00633240,0.305176,0.244141,-0.122070
5341999208,0.00085449,0.00791931,-1.00587463,0.366211,0.183105,-0.061035
5347026416,0.00074768,0.00817871,-1.00575256,0.305176,0.000000,-0.061035
5352003000,0.00112915,0.00843811,-1.00631714,0.305176,0.061035,-0.122070
5357008375,0.00123596,0.00822449,-1.00685120,0.366211,0.122070,0.061035
5362037125,0.00120544,0.00782776,-1.00686646,0.305176,0.061035,0.000000
5367058375,0.00115967,0.00758362,-1.00640869,0.366211,0.061035,0.000000
5372025666,0.00112915,0.00759888,-1.00595093,0.427246,0.122070,-0.183105
5377032583,0.00131226,0.00782776,-1.00593567,0.366211,0.061035,-0.061035
5382010125,0.00187683,0.00798035,-1.00648499,0.366211,0.061035,-0.122070
5387030166,0.00270081,0.00782776,-1.00712585,0.305176,0.061035,-0.061035
5392037500,0.00291443,0.00770569,-1.00724792,0.244141,0.061035,-0.061035
5397056125,0.00222778,0.00782776,-1.00692749,0.305176,0.061035,-0.061035
5402021458,0.00151062,0.00813293,-1.00634766,0.366211,0.000000,-0.061035
5407039916,0.00132751,0.00819397,-1.00567627,0.427246,0.061035,-0.122070
5411996375,0.00154114,0.00770569,-1.00552368,0.488281,0.122070,-0.122070
5417029208,0.00173950,0.00704956,-1.00617981,0.305176,0.122070,-0.061035
5422010666,0.00149536,0.00697327,-1.00685120,0.305176,0.122070,-0.061035
5427055166,0.00123596,0.00744629,-1.00704956,0.244141,0.000000,0.000000
5432039416,0.00119019,0.00791931,-1.00666809,0.427246,0.122070,-0.061035
5437027208,0.00094604,0.00819397,-1.00611877,0.488281,0.061035,0.061035
5442012416,0.00077820,0.00817871,-1.00601196,0.305176,0.061035,-0.061035
5447030875,0.00123596,0.00798035,-1.00617981,0.305176,0.061035,0.000000
5452011083,0.00170898,0.00799561,-1.00650024,0.427246,0.122070,-0.183105
5457126000,0.00154114,0.00804138,-1.00700378,0.244141,0.000000,0.000000
5462019416,0.00100708,0.00802612,-1.00717163,0.183105,0.000000,0.000000
5467188916,0.00067139,0.00796509,-1.00675964,0.366211,0.061035,-0.244141
5472008791,0.00091553,0.00769043,-1.00633240,0.366211,0.000000,-0.183105
5477028125,0.00152588,0.00759888,-1.00610352,0.427246,0.061035,-0.061035
5482019791,0.00190735,0.00775146,-1.00624084,0.305176,0.000000,-0.122070
5487045958,0.00183105,0.00778198,-1.00701904,0.122070,0.122070,0.061035
5492028666,0.00173950,0.00756836,-1.00746155,0.366211,0.061035,-0.122070
5497060958,0.00167847,0.00761414,-1.00662231,0.305176,0.061035,0.000000
5502018375,0.00135803,0.00802612,-1.00538635,0.427246,0.000000,-0.122070
5507022208,0.00131226,0.00816345,-1.00527954,0.244141,0.061035,-0.061035
5512017166,0.00158691,0.00773621,-1.00624084,0.244141,0.000000,-0.122070
5517037250,0.00146484,0.00730896,-1.00717163,0.183105,0.061035,-0.061035
5522018541,0.00108337,0.00721741,-1.00732422,0.305176,0.122070,-0.122070
5527064000,0.00106812,0.00747681,-1.00682068,0.305176,0.061035,-0.122070
5532030750,0.00161743,0.00796509,-1.00616455,0.305176,0.061035,-0.061035
5537041416,0.00210571,0.00825500,-1.00573730,0.305176,0.000000,-0.183105
5542033833,0.00212097,0.00810242,-1.00607300,0.427246,0.000000,-0.061035
5547042125,0.00198364,0.00782776,-1.00688171,0.305176,-0.061035,-0.244141
5552021250,0.00204468,0.00765991,-1.00724792,0.305176,0.061035,-0.061035
5557050750,0.00195312,0.00718689,-1.00717163,0.305176,0.122070,-0.061035
5562085666,0.00146484,0.00639343,-1.00685120,0.305176,0.000000,-0.061035
5567040750,0.00088501,0.00604248,-1.00633240,0.366211,0.061035,-0.061035
5572001916,0.00050354,0.00650024,-1.00608826,0.488281,0.061035,-0.122070
5577047625,0.00050354,0.00717163,-1.00634766,0.305176,0.061035,-0.061035
5582019291,0.00077820,0.00743103,-1.00691223,0.244141,0.000000,-0.061035
5587046208,0.00100708,0.00741577,-1.00729370,0.244141,0.122070,-0.122070
5592045333,0.00115967,0.00741577,-1.00711060,0.183105,0.000000,-0.061035
5597066750,0.00135803,0.00738525,-1.00663757,0.366211,0.122070,-0.061035
5602009375,0.00148010,0.00732422,-1.00653076,0.305176,0.122070,0.000000
5607027916,0.00146484,0.00724792,-1.00720215,0.244141,0.061035,-0.122070
5612026750,0.00126648,0.00714111,-1.00775146,0.305176,0.061035,-0.122070
5617050458,0.00117493,0.00730896,-1.00730896,0.427246,0.183105,-0.122070
5622048500,0.00164795,0.00756836,-1.00659180,0.244141,0.061035,-0.122070
5627031916,0.00215149,0.00740051,-1.00653076,0.244141,0.000000,-0.061035
5632011666,0.00204468,0.00726318,-1.00677490,0.305176,0.000000,0.000000
5637037208,0.00141907,0.00785828,-1.00671387,0.366211,0.183105,-0.183105
5642027916,0.00099182,0.00845337,-1.00630188,0.366211,0.061035,-0.122070
5647041875,0.00115967,0.00825500,-1.00622559,0.366211,0.000000,-0.122070
5652029458,0.00128174,0.00755310,-1.00657654,0.122070,0.000000,-0.122070
5657028208,0.00114441,0.00694275,-1.00677490,0.427246,0.061035,-0.061035
5662054000,0.00137329,0.00675964,-1.00674438,0.305176,0.122070,-0.122070
5667103708,0.00189209,0.00706482,-1.00683594,0.305176,0.061035,-0.061035
5672063541,0.00195312,0.00753784,-1.00697327,0.366211,-0.061035,-0.061035
5677054250,0.00158691,0.00765991,-1.00694275,0.305176,0.061035,-0.122070
5682027375,0.00134277,0.00773621,-1.00675964,0.244141,0.000000,-0.122070
5687060708,0.00140381,0.00785828,-1.00646973,0.305176,0.122070,-0.183105
5692053208,0.00157166,0.00758362,-1.00614929,0.366211,0.122070,0.000000
5697052500,0.00158691,0.00733948,-1.00596619,0.183105,0.122070,-0.061035
5702047083,0.00148010,0.00769043,-1.00624084,0.427246,0.061035,-0.122070
5707138541,0.00143433,0.00831604,-1.00671387,0.305176,0.061035,-0.061035
5712036125,0.00154114,0.00834656,-1.00691223,0.305176,0.122070,-0.061035
5717046583,0.00192261,0.00759888,-1.00671387,0.244141,0.061035,-0.122070
5722024000,0.00231934,0.00691223,-1.00642395,0.305176,-0.122070,-0.183105
5727061541,0.00236511,0.00686646,-1.00631714,0.305176,0.183105,-0.061035
5732046416,0.00228882,0.00701904,-1.00650024,0.427246,0.000000,-0.061035
5737077958,0.00219727,0.00695801,-1.00711060,0.305176,0.122070,-0.061035
5742033791,0.00187683,0.00733948,-1.00759888,0.305176,0.183105,0.000000
5747062375,0.00172424,0.00805664,-1.00721741,0.305176,0.122070,-0.061035
5752033583,0.00181580,0.00827026,-1.00637817,0.366211,0.061035,0.061035
5757082250,0.00152588,0.00808716,-1.00637817,0.305176,-0.061035,-0.122070
5762072500,0.00071716,0.00802612,-1.00724792,0.305176,0.122070,-0.183105
5767089791,0.00009155,0.00784302,-1.00769043,0.305176,0.000000,-0.122070
5772097000,0.00032043,0.00744629,-1.00712585,0.305176,0.061035,-0.061035
5777060375,0.00119019,0.00712585,-1.00642395,0.366211,0.061035,-0.122070
5782024958,0.00204468,0.00706482,-1.00622559,0.549316,0.061035,-0.061035
5787070208,0.00227356,0.00737000,-1.00633240,0.305176,0.061035,0.000000
5792052833,0.00158691,0.00743103,-1.00648499,0.366211,0.000000,-0.122070
5797054625,0.00074768,0.00708008,-1.00669861,0.427246,0.000000,0.061035
5802033041,0.00061035,0.00675964,-1.00677490,0.366211,0.061035,-0.122070
5807049083,0.00103760,0.00657654,-1.00674438,0.183105,0.000000,-0.061035
5812040958,0.00157166,0.00660706,-1.00691223,0.305176,0.061035,-0.122070
5817065625,0.00175476,0.00703430,-1.00700378,0.244141,0.000000,-0.183105
5822046541,0.00155640,0.00758362,-1.00692749,0.305176,0.122070,-0.122070
5827081041,0.00123596,0.00767517,-1.00682068,0.305176,0.061035,-0.061035
5832066500,0.00099182,0.00741577,-1.00650024,0.244141,0.061035,-0.183105
5837066958,0.00091553,0.00712585,-1.00587463,0.305176,0.000000,0.000000
5842025250,0.00096130,0.00688171,-1.00547791,0.366211,0.061035,-0.061035
5847066208,0.00111389,0.00680542,-1.00575256,0.366211,0.183105,-0.061035
5852041333,0.00144958,0.00694275,-1.00633240,0.427246,0.000000,-0.061035
5857071041,0.00172424,0.00720215,-1.00663757,0.427246,0.122070,-0.061035
5862047166,0.00172424,0.00732422,-1.00643921,0.366211,0.061035,-0.122070
5867081625,0.00189209,0.00724792,-1.00614929,0.427246,0.061035,0.000000
5872121583,0.00219727,0.00735474,-1.00631714,0.427246,0.000000,-0.122070
5877097416,0.00199890,0.00775146,-1.00646973,0.427246,0.061035,-0.183105
5882033958,0.00132751,0.00816345,-1.00622559,0.244141,-0.061035,-0.122070
5887066291,0.00108337,0.00825500,-1.00633240,0.549316,-0.122070,0.000000
5892060791,0.00126648,0.00799561,-1.00711060,0.366211,0.061035,-0.061035
5897104291,0.00131226,0.00775146,-1.00749207,0.366211,0.000000,-0.061035
5902062166,0.00126648,0.00755310,-1.00682068,0.305176,0.122070,-0.183105
5907062916,0.00141907,0.00744629,-1.00602722,0.244141,0.000000,-0.061035
5912038750,0.00184631,0.00759888,-1.00598145,0.305176,0.061035,-0.122070
5917058708,0.00231934,0.00779724,-1.00642395,0.183105,0.061035,-0.122070
5922044833,0.00212097,0.00782776,-1.00680542,0.427246,0.183105,-0.061035
5927054583,0.00122070,0.00761414,-1.00683594,0.427246,0.061035,-0.061035
5932032125,0.00077820,0.00715637,-1.00660706,0.366211,0.061035,-0.061035
5937071583,0.00125122,0.00698853,-1.00660706,0.366211,0.061035,-0.122070
5942074250,0.00173950,0.00738525,-1.00689697,0.244141,0.000000,-0.061035
5947067666,0.00184631,0.00779724,-1.00683594,0.305176,0.000000,0.000000
5952053125,0.00178528,0.00793457,-1.00654602,0.244141,0.122070,-0.183105
5957094541,0.00148010,0.00808716,-1.00669861,0.183105,-0.061035,-0.061035
5962070208,0.00106812,0.00813293,-1.00695801,0.305176,0.061035,-0.122070
5967086083,0.00100708,0.00779724,-1.00669861,0.427246,-0.061035,-0.122070
5972052791,0.00148010,0.00737000,-1.00660706,0.305176,0.122070,-0.122070
5977074333,0.00218201,0.00730896,-1.00738525,0.305176,0.122070,-0.122070
5982053666,0.00253296,0.00756836,-1.00781250,0.183105,0.000000,-0.183105
5987078041,0.00245667,0.00753784,-1.00711060,0.427246,0.000000,-0.122070
5992065875,0.00207520,0.00692749,-1.00604248,0.244141,0.122070,0.000000
5997104583,0.00152588,0.00642395,-1.00541687,0.244141,-0.061035,-0.244141
6002064333,0.00112915,0.00675964,-1.00550842,0.427246,0.122070,-0.061035
6007075875,0.00125122,0.00749207,-1.00628662,0.366211,0.183105,0.000000
6012054291,0.00172424,0.00788879,-1.00701904,0.183105,-0.122070,-0.061035
6017064500,0.00199890,0.00784302,-1.00683594,0.427246,0.244141,-0.061035
6022043416,0.00201416,0.00753784,-1.00633240,0.366211,0.000000,-0.061035
6027088500,0.00184631,0.00730896,-1.00634766,0.427246,0.061035,-0.122070
6032110625,0.00151062,0.00730896,-1.00675964,0.366211,0.061035,-0.061035
6037056750,0.00114441,0.00756836,-1.00726318,0.305176,0.183105,-0.061035
6042048291,0.00119019,0.00805664,-1.00773621,0.366211,0.061035,-0.122070
6047076125,0.00154114,0.00866699,-1.00801086,0.366211,0.061035,-0.122070
6052056333,0.00164795,0.00871277,-1.00779724,0.305176,0.061035,-0.061035
6057071708,0.00149536,0.00813293,-1.00712585,0.366211,0.061035,0.000000
6062084083,0.00109863,0.00772095,-1.00665283,0.305176,0.183105,-0.061035
6067080291,0.00100708,0.00761414,-1.00685120,0.366211,0.122070,-0.061035
6072092750,0.00164795,0.00746155,-1.00724792,0.366211,0.061035,-0.244141
6077066208,0.00213623,0.00730896,-1.00724792,0.366211,0.000000,-0.183105
6082057291,0.00199890,0.00727844,-1.00689697,0.183105,0.061035,-0.122070
6087087500,0.00190735,0.00738525,-1.00685120,0.305176,-0.061035,0.000000
6092052333,0.00202942,0.00764465,-1.00717163,0.366211,0.000000,-0.122070
6097098166,0.00224304,0.00778198,-1.00740051,0.305176,0.122070,-0.244141
6102080500,0.00239563,0.00762939,-1.00741577,0.183105,0.000000,-0.061035
6107071958,0.00225830,0.00737000,-1.00744629,0.427246,0.061035,-0.061035
6112059250,0.00199890,0.00726318,-1.00765991,0.366211,0.061035,0.000000
6117069083,0.00175476,0.00723267,-1.00759888,0.122070,0.183105,-0.183105
6122065375,0.00158691,0.00718689,-1.00682068,0.488281,0.244141,-0.122070
6127075083,0.00169373,0.00727844,-1.00585938,0.366211,0.122070,-0.061035
6132080833,0.00204468,0.00755310,-1.00576782,0.305176,0.061035,-0.122070
6137119541,0.00227356,0.00769043,-1.00640869,0.305176,0.061035,-0.122070
6142045541,0.00213623,0.00738525,-1.00675964,0.305176,0.122070,-0.183105
6147079416,0.00178528,0.00698853,-1.00663757,0.366211,0.122070,-0.061035
6152049625,0.00175476,0.00717163,-1.00671387,0.427246,0.061035,-0.183105
6157113708,0.00213623,0.00764465,-1.00706482,0.305176,0.061035,-0.183105
6162105333,0.00227356,0.00765991,-1.00712585,0.305176,0.122070,-0.061035
6167097750,0.00204468,0.00738525,-1.00683594,0.427246,0.061035,-0.061035
6172071333,0.00170898,0.00730896,-1.00643921,0.305176,0.122070,-0.183105
6177077791,0.00141907,0.00753784,-1.00601196,0.305176,0.122070,-0.061035
6182069666,0.00105286,0.00778198,-1.00553894,0.244141,0.000000,-0.061035
6187086833,0.00073242,0.00782776,-1.00531006,0.427246,0.183105,-0.183105
6192092166,0.00074768,0.00762939,-1.00573730,0.305176,0.000000,-0.061035
6197119958,0.00090027,0.00750732,-1.00650024,0.366211,0.000000,-0.122070
6202071833,0.00094604,0.00764465,-1.00697327,0.366211,0.000000,0.061035
6207071583,0.00137329,0.00778198,-1.00715637,0.366211,0.000000,-0.122070
6212058875,0.00239563,0.00772095,-1.00706482,0.244141,0.061035,-0.061035
6217079750,0.00296021,0.00755310,-1.00645447,0.183105,0.122070,-0.061035
6222062833,0.00260925,0.00738525,-1.00608826,0.305176,-0.061035,-0.122070
6227107166,0.00166321,0.00733948,-1.00675964,0.244141,0.061035,-0.183105
6232075625,0.00093079,0.00747681,-1.00762939,0.366211,0.061035,0.000000
6237087166,0.00103760,0.00727844,-1.00756836,0.488281,0.061035,0.000000
6242076583,0.00167847,0.00663757,-1.00679016,0.305176,0.061035,-0.061035
6247084708,0.00227356,0.00650024,-1.00636292,0.305176,0.061035,-0.122070
6252056291,0.00233459,0.00706482,-1.00643921,0.610352,0.061035,-0.061035
6257100125,0.00215149,0.00749207,-1.00633240,0.305176,0.061035,0.000000
6262084750,0.00221252,0.00750732,-1.00598145,0.305176,0.061035,-0.122070
6267120250,0.00225830,0.00756836,-1.00582886,0.427246,0.061035,-0.122070
6272079291,0.00207520,0.00775146,-1.00584412,0.366211,-0.122070,-0.122070
6277096083,0.00177002,0.00778198,-1.00587463,0.305176,0.061035,-0.061035
6282089291,0.00146484,0.00755310,-1.00587463,0.122070,0.061035,-0.244141
6287075125,0.00134277,0.00732422,-1.00596619,0.244141,0.061035,-0.183105
6292205416,0.00122070,0.00726318,-1.00614929,0.427246,0.061035,0.061035
6297126458,0.00109863,0.00735474,-1.00613403,0.183105,0.000000,-0.061035
6302070333,0.00137329,0.00758362,-1.00608826,0.305176,-0.061035,-0.122070
6307095958,0.00199890,0.00769043,-1.00631714,0.305176,0.061035,-0.061035
6312078750,0.00234985,0.00752258,-1.00672913,0.305176,-0.061035,-0.061035
6317100208,0.00204468,0.00737000,-1.00711060,0.366211,0.122070,-0.061035
6322112166,0.00141907,0.00750732,-1.00732422,0.488281,0.061035,0.061035
6327130250,0.00097656,0.00756836,-1.00737000,0.427246,0.061035,-0.061035
6332058666,0.00088501,0.00741577,-1.00733948,0.427246,0.183105,-0.061035
6337084375,0.00100708,0.00741577,-1.00730896,0.427246,0.183105,-0.061035
6342059333,0.00100708,0.00785828,-1.00714111,0.488281,-0.061035,-0.122070
6347092916,0.00074768,0.00840759,-1.00704956,0.366211,0.061035,0.000000
6352063125,0.00076294,0.00839233,-1.00720215,0.366211,-0.061035,-0.122070
6357086291,0.00126648,0.00773621,-1.00740051,0.244141,0.000000,-0.122070
6362089833,0.00181580,0.00701904,-1.00746155,0.366211,0.000000,0.000000
6367119625,0.00189209,0.00695801,-1.00723267,0.366211,0.000000,0.000000
6372068333,0.00161743,0.00741577,-1.00695801,0.305176,0.122070,-0.061035
6377104916,0.00141907,0.00762939,-1.00685120,0.427246,0.000000,-0.061035
6382071625,0.00140381,0.00744629,-1.00666809,0.183105,0.061035,-0.122070
6387105083,0.00140381,0.00727844,-1.00625610,0.366211,0.061035,-0.061035
6392085083,0.00140381,0.00726318,-1.00590515,0.305176,0.061035,-0.061035
6397194416,0.00144958,0.00721741,-1.00581360,0.305176,0.000000,-0.122070
6402091416,0.00161743,0.00708008,-1.00587463,0.366211,0.122070,-0.061035
6407126750,0.00227356,0.00712585,-1.00588989,0.183105,0.061035,-0.122070
6412084875,0.00294495,0.00714111,-1.00596619,0.244141,-0.061035,-0.122070
6417098000,0.00283813,0.00704956,-1.00613403,0.244141,0.000000,-0.061035
6422068500,0.00222778,0.00703430,-1.00605774,0.244141,0.000000,-0.061035
6427094916,0.00204468,0.00698853,-1.00588989,0.366211,0.061035,-0.183105
6432098208,0.00251770,0.00704956,-1.00601196,0.305176,-0.061035,-0.122070
6437101000,0.00270081,0.00732422,-1.00631714,0.366211,0.000000,-0.061035
6442077583,0.00231934,0.00772095,-1.00654602,0.305176,0.061035,-0.061035
6447105208,0.00180054,0.00807190,-1.00677490,0.305176,0.122070,0.122070
6452085458,0.00123596,0.00804138,-1.00688171,0.366211,0.061035,-0.061035
6457118750,0.00068665,0.00749207,-1.00660706,0.488281,0.061035,-0.122070
6462108333,0.00059509,0.00709534,-1.00630188,0.427246,0.122070,0.000000
6467151708,0.00090027,0.00764465,-1.00627136,0.366211,0.061035,0.000000
6472076500,0.00135803,0.00846863,-1.00631714,0.305176,0.061035,-0.122070
6477089541,0.00155640,0.00849915,-1.00617981,0.305176,0.000000,-0.122070
6482091791,0.00125122,0.00785828,-1.00599670,0.366211,0.122070,-0.122070
6487092000,0.00096130,0.00750732,-1.00616455,0.427246,0.061035,-0.122070
6492097583,0.00114441,0.00802612,-1.00631714,0.366211,-0.061035,-0.061035
6497135208,0.00148010,0.00875854,-1.00598145,0.366211,0.061035,-0.183105
6502146833,0.00169373,0.00878906,-1.00578308,0.427246,0.061035,-0.244141
6507092916,0.00177002,0.00837708,-1.00642395,0.427246,0.122070,-0.122070
6512092333,0.00177002,0.00794983,-1.00743103,0.366211,0.000000,-0.183105
6517115291,0.00161743,0.00744629,-1.00787354,0.305176,0.122070,-0.122070
6522081750,0.00146484,0.00692749,-1.00747681,0.427246,0.061035,-0.122070
6527148250,0.00143433,0.00654602,-1.00704956,0.244141,0.061035,-0.122070
6532099958,0.00157166,0.00634766,-1.00706482,0.305176,-0.061035,-0.061035
6537103166,0.00170898,0.00648499,-1.00697327,0.244141,0.061035,0.000000
6542116458,0.00169373,0.00691223,-1.00645447,0.366211,0.061035,0.000000
6547112416,0.00187683,0.00701904,-1.00598145,0.305176,0.061035,-0.122070
6552098416,0.00204468,0.00657654,-1.00599670,0.183105,0.000000,-0.183105
6557122750,0.00202942,0.00622559,-1.00650024,0.305176,0.061035,0.000000
6562115500,0.00213623,0.00671387,-1.00735474,0.366211,0.122070,-0.122070
6567147458,0.00250244,0.00765991,-1.00798035,0.366211,0.061035,-0.183105
6572094375,0.00247192,0.00799561,-1.00761414,0.305176,0.183105,-0.061035
6577116791,0.00184631,0.00746155,-1.00672913,0.366211,0.122070,-0.122070
6582095333,0.00122070,0.00704956,-1.00622559,0.244141,0.000000,0.000000
6587117333,0.00102234,0.00743103,-1.00599670,0.305176,0.000000,-0.061035
6592106333,0.00140381,0.00807190,-1.00572205,0.305176,0.000000,-0.061035
6597144833,0.00195312,0.00819397,-1.00582886,0.366211,0.122070,-0.244141
6602117916,0.00183105,0.00794983,-1.00685120,0.366211,0.122070,-0.122070
6607164458,0.00102234,0.00793457,-1.00807190,0.244141,0.000000,0.000000
6612072791,0.00048828,0.00802612,-1.00817871,0.305176,0.061035,-0.122070
6617102958,0.00061035,0.00775146,-1.00714111,0.427246,-0.061035,-0.183105
6622084666,0.00102234,0.00752258,-1.00585938,0.366211,0.000000,-0.183105
6627088750,0.00135803,0.00776672,-1.00546265,0.183105,0.000000,0.000000
6632095083,0.00149536,0.00817871,-1.00605774,0.366211,0.061035,0.000000
6637120541,0.00152588,0.00825500,-1.00654602,0.366211,0.183105,-0.122070
6642104333,0.00177002,0.00781250,-1.00627136,0.366211,0.000000,0.000000
6647128833,0.00233459,0.00714111,-1.00566101,0.366211,0.000000,-0.183105
6652102375,0.00265503,0.00685120,-1.00529480,0.244141,0.061035,0.000000
6657114375,0.00219727,0.00715637,-1.00584412,0.366211,0.061035,-0.061035
6662090875,0.00157166,0.00758362,-1.00703430,0.305176,0.061035,0.000000
6667164291,0.00155640,0.00750732,-1.00779724,0.244141,0.000000,-0.122070
6672122666,0.00186157,0.00704956,-1.00746155,0.183105,0.061035,-0.183105
6677176875,0.00195312,0.00682068,-1.00634766,0.610352,0.183105,0.000000
6682080875,0.00170898,0.00700378,-1.00553894,0.305176,0.183105,0.122070
6687113000,0.00146484,0.00709534,-1.00573730,0.427246,0.122070,-0.122070
6692093666,0.00140381,0.00672913,-1.00625610,0.305176,0.061035,-0.061035
6697109250,0.00144958,0.00653076,-1.00627136,0.305176,0.000000,0.000000
6702085583,0.00160217,0.00683594,-1.00576782,0.366211,0.183105,-0.061035
6707164750,0.00181580,0.00704956,-1.00535583,0.244141,0.061035,-0.061035
6712135375,0.00180054,0.00712585,-1.00532532,0.183105,0.061035,-0.183105
6717116875,0.00173950,0.00744629,-1.00569153,0.244141,0.061035,-0.183105
6722102500,0.00186157,0.00778198,-1.00640869,0.366211,0.000000,0.000000
6727112333,0.00205994,0.00787354,-1.00697327,0.305176,0.122070,0.061035
6732101791,0.00198364,0.00776672,-1.00703430,0.366211,0.000000,-0.061035
6737116833,0.00128174,0.00752258,-1.00680542,0.366211,0.183105,-0.183105
6742125000,0.00093079,0.00741577,-1.00645447,0.305176,0.000000,-0.122070
6747138875,0.00138855,0.00770569,-1.00607300,0.183105,0.000000,0.000000
6752113458,0.00157166,0.00798035,-1.00585938,0.244141,0.061035,-0.061035
6757120166,0.00103760,0.00794983,-1.00602722,0.244141,0.000000,-0.122070
6762112541,0.00068665,0.00791931,-1.00651550,0.366211,0.122070,-0.183105
6767121958,0.00115967,0.00793457,-1.00682068,0.427246,0.122070,0.000000
6772140375,0.00196838,0.00776672,-1.00689697,0.305176,0.061035,-0.122070
6777134666,0.00245667,0.00761414,-1.00706482,0.366211,0.061035,-0.061035
6782110625,0.00253296,0.00767517,-1.00694275,0.427246,0.122070,-0.061035
6787129041,0.00245667,0.00775146,-1.00660706,0.427246,0.122070,0.000000
6792105375,0.00236511,0.00776672,-1.00671387,0.366211,0.122070,-0.122070
6797142666,0.00216675,0.00773621,-1.00715637,0.366211,0.122070,0.000000
6802099708,0.00193787,0.00749207,-1.00721741,0.427246,0.122070,0.061035
6807119041,0.00170898,0.00726318,-1.00665283,0.305176,0.061035,-0.122070
6812114708,0.00163269,0.00744629,-1.00622559,0.366211,0.061035,-0.122070
6817125791,0.00178528,0.00775146,-1.00640869,0.305176,0.061035,-0.122070
6822126083,0.00175476,0.00775146,-1.00662231,0.427246,0.183105,-0.061035
6827140958,0.00119019,0.00729370,-1.00663757,0.366211,0.122070,-0.122070
6832098750,0.00053406,0.00682068,-1.00672913,0.244141,0.000000,-0.122070
6837123333,0.00033569,0.00657654,-1.00665283,0.366211,0.061035,-0.122070
6842094916,0.00051880,0.00662231,-1.00627136,0.244141,0.061035,-0.244141
6847117208,0.00057983,0.00686646,-1.00619507,0.244141,0.122070,-0.122070
6852116375,0.00051880,0.00708008,-1.00677490,0.366211,0.183105,-0.061035
6857122791,0.00064087,0.00708008,-1.00738525,0.305176,0.122070,0.000000
6862144250,0.00111389,0.00733948,-1.00712585,0.366211,0.122070,0.000000
6867160583,0.00141907,0.00787354,-1.00628662,0.488281,0.183105,-0.122070
6872123916,0.00102234,0.00801086,-1.00613403,0.305176,0.000000,-0.061035
6877138333,0.00056458,0.00778198,-1.00694275,0.305176,0.122070,-0.061035
6882124833,0.00068665,0.00779724,-1.00741577,0.305176,0.122070,-0.122070
6887127083,0.00117493,0.00804138,-1.00683594,0.366211,0.000000,-0.122070
6892144625,0.00149536,0.00772095,-1.00602722,0.366211,0.061035,-0.122070
6897147208,0.00143433,0.00701904,-1.00579834,0.305176,0.122070,-0.122070
6902124208,0.00126648,0.00672913,-1.00628662,0.366211,0.122070,-0.061035
6907132708,0.00149536,0.00717163,-1.00712585,0.488281,0.183105,-0.183105
6912105166,0.00204468,0.00785828,-1.00755310,0.305176,0.000000,-0.122070
6917125791,0.00230408,0.00813293,-1.00714111,0.244141,0.061035,-0.183105
6922102708,0.00213623,0.00794983,-1.00625610,0.427246,0.122070,0.000000
6927149375,0.00193787,0.00802612,-1.00553894,0.244141,0.061035,0.000000
6932131250,0.00204468,0.00846863,-1.00549316,0.366211,0.061035,0.061035
6937127916,0.00251770,0.00845337,-1.00608826,0.305176,0.000000,0.000000
6942138000,0.00292969,0.00756836,-1.00703430,0.366211,0.061035,0.000000
6947132000,0.00294495,0.00682068,-1.00755310,0.244141,0.000000,-0.122070
6952125208,0.00244141,0.00711060,-1.00703430,0.305176,-0.061035,-0.183105
6957124291,0.00166321,0.00801086,-1.00613403,0.427246,0.061035,-0.183105
6962134541,0.00109863,0.00865173,-1.00572205,0.366211,0.183105,0.000000
6967138875,0.00106812,0.00845337,-1.00590515,0.427246,0.000000,0.000000
6972132333,0.00160217,0.00776672,-1.00653076,0.366211,0.000000,0.000000
6977146958,0.00218201,0.00727844,-1.00730896,0.549316,0.061035,-0.122070
6982098583,0.00213623,0.00720215,-1.00740051,0.244141,0.061035,-0.183105
6987133458,0.00175476,0.00723267,-1.00656128,0.427246,0.061035,-0.122070
6992127583,0.00184631,0.00709534,-1.00543213,0.183105,0.061035,0.000000
6997165750,0.00216675,0.00709534,-1.00509644,0.183105,0.122070,0.000000
7002114708,0.00201416,0.00744629,-1.00581360,0.305176,0.061035,-0.122070
7007157500,0.00143433,0.00779724,-1.00642395,0.366211,0.061035,-0.122070
7012114208,0.00123596,0.00799561,-1.00639343,0.183105,0.061035,-0.061035
7017144166,0.00161743,0.00782776,-1.00645447,0.305176,-0.061035,-0.122070
7022182083,0.00183105,0.00761414,-1.00656128,0.366211,0.122070,-0.061035
7027159916,0.00164795,0.00782776,-1.00648499,0.183105,0.061035,0.000000
7032131333,0.00152588,0.00814819,-1.00646973,0.366211,0.061035,-0.122070
7037151500,0.00169373,0.00794983,-1.00665283,0.244141,0.061035,-0.183105
7042126333,0.00183105,0.00746155,-1.00666809,0.366211,0.122070,-0.061035
7047146833,0.00190735,0.00721741,-1.00637817,0.244141,0.000000,-0.122070
7052125250,0.00195312,0.00727844,-1.00601196,0.305176,0.122070,-0.122070
7057141583,0.00209045,0.00750732,-1.00590515,0.427246,0.000000,0.061035
7062121083,0.00233459,0.00775146,-1.00625610,0.244141,0.183105,-0.061035
7067133291,0.00245667,0.00784302,-1.00680542,0.366211,-0.061035,-0.122070
7072087416,0.00245667,0.00767517,-1.00708008,0.366211,0.000000,-0.122070
7077158041,0.00233459,0.00723267,-1.00689697,0.305176,0.122070,-0.061035
7082137208,0.00195312,0.00701904,-1.00650024,0.305176,0.000000,-0.122070
7087159791,0.00154114,0.00709534,-1.00614929,0.244141,0.061035,-0.061035
7092118875,0.00126648,0.00717163,-1.00608826,0.183105,0.122070,0.000000
7097142666,0.00083923,0.00741577,-1.00627136,0.305176,0.061035,-0.183105
7102137791,0.00032043,0.00759888,-1.00653076,0.366211,0.061035,-0.122070
7107144708,0.00039673,0.00756836,-1.00679016,0.366211,0.122070,0.061035
7112130625,0.00102234,0.00762939,-1.00698853,0.305176,-0.061035,-0.122070
7117146750,0.00140381,0.00776672,-1.00697327,0.305176,0.061035,-0.122070
7122143708,0.00152588,0.00788879,-1.00651550,0.183105,0.183105,-0.244141
7127190916,0.00187683,0.00807190,-1.00630188,0.244141,0.061035,-0.183105
7132128208,0.00195312,0.00811768,-1.00680542,0.305176,0.061035,-0.061035
7137158708,0.00163269,0.00793457,-1.00727844,0.427246,0.061035,-0.122070
7142142500,0.00123596,0.00769043,-1.00718689,0.305176,0.000000,-0.061035
7147153375,0.00080872,0.00744629,-1.00679016,0.366211,0.183105,-0.122070
7152118125,0.00053406,0.00743103,-1.00651550,0.244141,0.061035,-0.183105
7157160458,0.00071716,0.00765991,-1.00663757,0.305176,-0.061035,-0.061035
7162123666,0.00131226,0.00776672,-1.00683594,0.305176,0.122070,-0.122070
7167152083,0.00184631,0.00762939,-1.00675964,0.366211,-0.061035,-0.061035
7172137375,0.00202942,0.00758362,-1.00648499,0.305176,0.183105,-0.122070
7177158208,0.00189209,0.00764465,-1.00631714,0.366211,0.061035,-0.122070
7182130666,0.00155640,0.00762939,-1.00634766,0.366211,0.122070,-0.122070
7187157416,0.00137329,0.00756836,-1.00656128,0.305176,0.122070,0.000000
7192130500,0.00138855,0.00749207,-1.00675964,0.305176,0.061035,-0.061035
7197161083,0.00144958,0.00762939,-1.00665283,0.549316,0.183105,0.061035
7202146666,0.00129700,0.00784302,-1.00640869,0.366211,0.061035,0.000000
7207144250,0.00088501,0.00814819,-1.00633240,0.366211,0.061035,-0.122070
7212143416,0.00062561,0.00854492,-1.00654602,0.427246,0.061035,-0.183105
7217148541,0.00102234,0.00880432,-1.00680542,0.366211,0.122070,-0.183105
7222135083,0.00158691,0.00881958,-1.00682068,0.427246,0.000000,-0.183105
7227158458,0.00143433,0.00857544,-1.00669861,0.366211,0.122070,0.000000
7232148458,0.00079346,0.00791931,-1.00677490,0.427246,0.061035,-0.061035
7237155500,0.00067139,0.00721741,-1.00685120,0.366211,0.061035,-0.061035
7242145041,0.00120544,0.00704956,-1.00657654,0.183105,0.122070,-0.122070
7247160875,0.00177002,0.00732422,-1.00621033,0.183105,0.122070,-0.183105
7252144416,0.00201416,0.00758362,-1.00604248,0.427246,0.122070,0.000000
7257161250,0.00196838,0.00761414,-1.00637817,0.305176,0.122070,-0.061035
7262133958,0.00173950,0.00779724,-1.00704956,0.183105,0.000000,-0.061035
7267162083,0.00158691,0.00796509,-1.00738525,0.366211,0.061035,-0.183105
7272134958,0.00173950,0.00769043,-1.00708008,0.305176,0.122070,0.000000
7277158375,0.00193787,0.00733948,-1.00651550,0.366211,0.061035,-0.061035
7282172291,0.00189209,0.00721741,-1.00607300,0.305176,0.061035,-0.061035
7287166375,0.00160217,0.00714111,-1.00590515,0.366211,0.122070,0.000000
7292155916,0.00123596,0.00703430,-1.00628662,0.244141,0.122070,-0.244141
7297168250,0.00106812,0.00712585,-1.00714111,0.427246,0.000000,-0.061035
7302124625,0.00125122,0.00733948,-1.00743103,0.244141,-0.061035,-0.122070
7307157875,0.00154114,0.00761414,-1.00694275,0.366211,0.061035,0.000000
7312149416,0.00181580,0.00773621,-1.00656128,0.244141,0.061035,-0.183105
7317167583,0.00180054,0.00758362,-1.00660706,0.366211,0.183105,-0.061035
7322158541,0.00138855,0.00743103,-1.00674438,0.305176,0.000000,0.000000
7327167083,0.00096130,0.00758362,-1.00677490,0.305176,0.061035,-0.061035
7332132416,0.00065613,0.00794983,-1.00650024,0.366211,0.122070,-0.183105
7337173500,0.00056458,0.00846863,-1.00596619,0.427246,0.122070,-0.061035
7342324541,0.00105286,0.00868225,-1.00598145,0.305176,0.000000,-0.183105
7347199500,0.00175476,0.00825500,-1.00660706,0.366211,0.061035,-0.061035
7352145625,0.00163269,0.00759888,-1.00679016,0.366211,0.000000,0.000000
7357199083,0.00105286,0.00717163,-1.00642395,0.244141,0.061035,-0.122070
7362138916,0.00099182,0.00727844,-1.00621033,0.366211,0.000000,-0.122070
7367156625,0.00140381,0.00772095,-1.00616455,0.366211,0.000000,-0.061035
7372142375,0.00198364,0.00798035,-1.00617981,0.305176,-0.061035,-0.061035
7377181625,0.00248718,0.00776672,-1.00679016,0.427246,0.183105,-0.061035
7382137625,0.00225830,0.00741577,-1.00752258,0.305176,0.000000,-0.122070
7387190458,0.00152588,0.00724792,-1.00733948,0.366211,0.122070,0.000000
7392145541,0.00144958,0.00727844,-1.00634766,0.244141,0.122070,-0.061035
7397157958,0.00216675,0.00749207,-1.00547791,0.366211,0.000000,-0.183105
7402137250,0.00254822,0.00775146,-1.00553894,0.305176,-0.061035,-0.122070
7407248916,0.00205994,0.00756836,-1.00648499,0.244141,0.183105,-0.122070
7412197458,0.00166321,0.00724792,-1.00724792,0.244141,0.000000,-0.183105
7417192666,0.00175476,0.00729370,-1.00715637,0.305176,0.061035,0.000000
7422210666,0.00195312,0.00750732,-1.00660706,0.305176,0.061035,0.000000
7427241875,0.00198364,0.00730896,-1.00633240,0.427246,0.061035,-0.061035
7432149791,0.00178528,0.00669861,-1.00654602,0.305176,0.061035,-0.122070
7437269416,0.00128174,0.00634766,-1.00686646,0.427246,0.122070,-0.061035
7442181583,0.00096130,0.00665283,-1.00709534,0.427246,0.122070,-0.183105
7447179583,0.00114441,0.00717163,-1.00714111,0.366211,0.000000,-0.061035
7452167708,0.00132751,0.00740051,-1.00685120,0.244141,0.000000,-0.122070
7457192833,0.00090027,0.00724792,-1.00645447,0.366211,0.061035,-0.061035
7462167125,0.00036621,0.00724792,-1.00617981,0.427246,0.061035,-0.122070
7467168250,0.00064087,0.00778198,-1.00608826,0.366211,0.183105,-0.122070
7472238666,0.00135803,0.00836182,-1.00617981,0.366211,0.183105,0.000000
7477247583,0.00193787,0.00834656,-1.00610352,0.427246,0.122070,-0.183105
7482185208,0.00245667,0.00798035,-1.00598145,0.427246,0.122070,-0.061035
7487216791,0.00254822,0.00808716,-1.00610352,0.244141,0.122070,0.000000
7492166333,0.00184631,0.00888062,-1.00634766,0.366211,0.122070,-0.061035
7497167666,0.00122070,0.00938416,-1.00657654,0.427246,0.122070,-0.183105
7502151833,0.00154114,0.00894165,-1.00688171,0.244141,0.122070,-0.122070
7507194875,0.00219727,0.00798035,-1.00697327,0.488281,0.061035,0.061035
7512165291,0.00224304,0.00743103,-1.00674438,0.427246,-0.061035,-0.183105
7517184000,0.00187683,0.00775146,-1.00660706,0.366211,-0.061035,-0.183105
7522199291,0.00157166,0.00846863,-1.00651550,0.305176,0.000000,-0.122070
7527238041,0.00170898,0.00880432,-1.00622559,0.305176,0.122070,-0.183105
7532158583,0.00215149,0.00846863,-1.00628662,0.305176,0.122070,-0.122070
7537222958,0.00222778,0.00761414,-1.00685120,0.427246,0.122070,-0.122070
7542181708,0.00173950,0.00669861,-1.00715637,0.305176,0.122070,-0.122070
7547233208,0.00102234,0.00630188,-1.00685120,0.366211,0.061035,-0.061035
7552171666,0.00056458,0.00653076,-1.00662231,0.305176,0.000000,0.000000
7557189458,0.00067139,0.00717163,-1.00660706,0.427246,-0.061035,-0.061035
7562150250,0.00111389,0.00807190,-1.00648499,0.366211,0.000000,0.061035
7567181625,0.00131226,0.00843811,-1.00645447,0.366211,0.305176,-0.122070
7572162750,0.00114441,0.00787354,-1.00665283,0.366211,-0.061035,-0.061035
7577178583,0.00096130,0.00711060,-1.00682068,0.305176,0.244141,-0.183105
7582163500,0.00097656,0.00689697,-1.00688171,0.305176,0.122070,-0.061035
7587194583,0.00125122,0.00726318,-1.00735474,0.427246,0.122070,0.000000
7592233708,0.00154114,0.00761414,-1.00778198,0.488281,0.061035,-0.061035
7597208291,0.00137329,0.00747681,-1.00732422,0.610352,0.122070,0.000000
7602241916,0.00079346,0.00746155,-1.00669861,0.366211,0.061035,-0.122070
7607217708,0.00045776,0.00804138,-1.00643921,0.305176,0.061035,-0.122070
7612170916,0.00059509,0.00848389,-1.00599670,0.244141,0.061035,-0.122070
7617230708,0.00070190,0.00817871,-1.00534058,0.183105,-0.122070,-0.244141
7622208416,0.00082397,0.00753784,-1.00523376,0.305176,-0.061035,0.000000
7627258375,0.00137329,0.00721741,-1.00596619,0.244141,0.061035,-0.122070
7632353208,0.00196838,0.00723267,-1.00657654,0.244141,0.061035,-0.122070
7637176750,0.00231934,0.00730896,-1.00622559,0.366211,0.244141,-0.122070
7642177541,0.00241089,0.00738525,-1.00558472,0.366211,0.122070,-0.061035
7647176958,0.00231934,0.00738525,-1.00547791,0.122070,0.000000,-0.122070
7652193750,0.00257874,0.00704956,-1.00578308,0.366211,0.061035,-0.061035
7657218125,0.00300598,0.00682068,-1.00613403,0.122070,0.000000,-0.061035
7662209166,0.00253296,0.00715637,-1.00654602,0.305176,0.061035,0.122070
7667193208,0.00128174,0.00727844,-1.00698853,0.488281,0.122070,0.061035
7672223500,0.00065613,0.00685120,-1.00688171,0.488281,0.122070,0.061035
7677214666,0.00079346,0.00674438,-1.00627136,0.244141,0.061035,0.000000
7682202375,0.00119019,0.00727844,-1.00624084,0.366211,0.061035,-0.183105
7687243000,0.00166321,0.00779724,-1.00686646,0.183105,0.061035,0.000000
7692196125,0.00193787,0.00791931,-1.00711060,0.305176,0.000000,-0.061035
7697257458,0.00178528,0.00785828,-1.00663757,0.366211,0.122070,-0.122070
7702171708,0.00144958,0.00762939,-1.00602722,0.427246,0.061035,0.000000
7707392750,0.00129700,0.00749207,-1.00575256,0.366211,0.061035,-0.061035
7712218000,0.00137329,0.00787354,-1.00563049,0.305176,0.183105,-0.061035
7717234291,0.00154114,0.00848389,-1.00561523,0.244141,0.244141,0.000000
7722215625,0.00169373,0.00846863,-1.00595093,0.244141,-0.061035,-0.183105
7727181208,0.00152588,0.00808716,-1.00627136,0.305176,0.061035,-0.122070
7732164583,0.00135803,0.00793457,-1.00627136,0.122070,0.000000,-0.061035
7737184583,0.00158691,0.00779724,-1.00622559,0.305176,0.061035,-0.061035
7742193958,0.00178528,0.00767517,-1.00621033,0.183105,-0.061035,0.000000
7747192416,0.00164795,0.00788879,-1.00643921,0.366211,0.122070,-0.122070
7752194458,0.00158691,0.00813293,-1.00694275,0.427246,0.000000,-0.122070
7757207750,0.00180054,0.00822449,-1.00698853,0.366211,0.183105,0.000000
7762177291,0.00209045,0.00799561,-1.00648499,0.366211,0.122070,0.000000
7767208750,0.00216675,0.00724792,-1.00607300,0.305176,0.000000,0.000000
7772224416,0.00202942,0.00671387,-1.00610352,0.366211,0.183105,-0.061035
7777239750,0.00175476,0.00709534,-1.00619507,0.366211,0.061035,-0.122070
7782213333,0.00134277,0.00767517,-1.00619507,0.305176,0.061035,0.000000
7787232625,0.00108337,0.00765991,-1.00669861,0.366211,0.000000,-0.183105
7792195458,0.00122070,0.00735474,-1.00740051,0.366211,0.000000,-0.061035
7797191791,0.00151062,0.00704956,-1.00730896,0.305176,0.061035,0.000000
7802234333,0.00160217,0.00685120,-1.00656128,0.427246,0.122070,-0.122070
7807231791,0.00131226,0.00683594,-1.00639343,0.427246,0.000000,0.061035
7812187958,0.00082397,0.00706482,-1.00686646,0.244141,0.061035,-0.122070
7817201375,0.00062561,0.00738525,-1.00695801,0.305176,0.183105,-0.122070
7822186625,0.00090027,0.00769043,-1.00657654,0.305176,0.122070,0.000000
7827208625,0.00108337,0.00782776,-1.00627136,0.366211,0.000000,-0.061035
7832173041,0.00090027,0.00782776,-1.00614929,0.366211,0.000000,0.000000
7837200041,0.00096130,0.00770569,-1.00636292,0.244141,-0.061035,-0.122070
7842176083,0.00114441,0.00753784,-1.00672913,0.427246,0.061035,-0.061035
7847196250,0.00109863,0.00769043,-1.00674438,0.305176,0.061035,0.000000
7852182583,0.00106812,0.00799561,-1.00636292,0.366211,0.000000,-0.122070
7857231916,0.00126648,0.00773621,-1.00616455,0.305176,0.000000,-0.122070
7862184000,0.00148010,0.00711060,-1.00625610,0.183105,0.122070,0.000000
7867201416,0.00164795,0.00686646,-1.00624084,0.488281,0.122070,-0.061035
7872206041,0.00199890,0.00688171,-1.00604248,0.183105,0.061035,-0.183105
7877208333,0.00227356,0.00668335,-1.00617981,0.244141,0.000000,-0.122070
7882169708,0.00187683,0.00642395,-1.00672913,0.366211,0.000000,-0.061035
7887216000,0.00103760,0.00659180,-1.00700378,0.244141,0.000000,-0.183105
7892172416,0.00094604,0.00733948,-1.00675964,0.183105,0.061035,-0.122070
7897234916,0.00172424,0.00825500,-1.00642395,0.549316,0.061035,-0.122070
7902177916,0.00199890,0.00881958,-1.00660706,0.244141,0.000000,-0.122070
7907251625,0.00140381,0.00856018,-1.00729370,0.244141,0.122070,-0.122070
7912197916,0.00086975,0.00781250,-1.00770569,0.305176,-0.061035,-0.061035
7917203250,0.00076294,0.00735474,-1.00727844,0.244141,0.061035,-0.061035
7922176041,0.00103760,0.00750732,-1.00653076,0.244141,0.061035,0.061035
7927199416,0.00111389,0.00804138,-1.00610352,0.305176,0.122070,0.061035
7932198916,0.00079346,0.00849915,-1.00604248,0.244141,0.061035,0.122070
7937204250,0.00067139,0.00830078,-1.00645447,0.366211,0.061035,0.000000
7942200208,0.00100708,0.00769043,-1.00715637,0.244141,0.122070,-0.122070
7947205333,0.00157166,0.00724792,-1.00737000,0.427246,0.061035,-0.061035
7952189041,0.00181580,0.00703430,-1.00663757,0.366211,0.122070,-0.061035
7957197375,0.00175476,0.00704956,-1.00570679,0.244141,0.061035,-0.061035
7962223875,0.00192261,0.00741577,-1.00550842,0.427246,0.122070,-0.122070
7967235625,0.00222778,0.00753784,-1.00596619,0.305176,0.122070,-0.061035
7972178625,0.00245667,0.00744629,-1.00671387,0.305176,0.183105,-0.183105
7977202250,0.00254822,0.00773621,-1.00720215,0.366211,0.000000,-0.122070
7982199916,0.00239563,0.00804138,-1.00708008,0.488281,0.061035,-0.061035
7987208125,0.00238037,0.00779724,-1.00656128,0.427246,0.122070,-0.122070
7992228250,0.00241089,0.00746155,-1.00624084,0.305176,0.000000,-0.122070
7997202916,0.00190735,0.00740051,-1.00668335,0.305176,0.061035,-0.061035
8002192666,0.00120544,0.00738525,-1.00743103,0.366211,0.305176,-0.061035
8007270666,0.00109863,0.00738525,-1.00738525,0.427246,0.061035,-0.122070
8012176458,0.00157166,0.00764465,-1.00666809,0.366211,0.061035,-0.122070
8017218083,0.00192261,0.00796509,-1.00640869,0.305176,0.061035,-0.061035
8022201375,0.00201416,0.00796509,-1.00657654,0.427246,0.000000,-0.061035
8027214333,0.00205994,0.00782776,-1.00657654,0.305176,0.183105,-0.061035
8032251041,0.00204468,0.00790405,-1.00656128,0.244141,0.000000,-0.183105
8037252666,0.00189209,0.00816345,-1.00682068,0.427246,0.000000,0.000000
8042186416,0.00138855,0.00825500,-1.00704956,0.244141,0.000000,0.000000
8047215333,0.00070190,0.00791931,-1.00686646,0.305176,0.122070,-0.122070
8052186041,0.00050354,0.00752258,-1.00633240,0.366211,-0.061035,-0.061035
8057214291,0.00115967,0.00749207,-1.00604248,0.366211,0.061035,-0.244141
8062259916,0.00210571,0.00735474,-1.00659180,0.305176,0.061035,-0.244141
8067210416,0.00247192,0.00698853,-1.00733948,0.427246,0.183105,0.122070
8072234875,0.00221252,0.00677490,-1.00744629,0.427246,0.061035,-0.122070
8077216541,0.00193787,0.00691223,-1.00689697,0.488281,0.061035,-0.061035
8082177541,0.00187683,0.00720215,-1.00616455,0.183105,0.061035,-0.183105
8087232458,0.00202942,0.00729370,-1.00578308,0.427246,0.061035,-0.061035
8092214791,0.00228882,0.00738525,-1.00564575,0.427246,0.000000,-0.061035
8097249500,0.00248718,0.00791931,-1.00541687,0.427246,-0.061035,-0.061035
8102215416,0.00244141,0.00819397,-1.00532532,0.305176,0.061035,-0.122070
8107233291,0.00215149,0.00787354,-1.00578308,0.305176,0.122070,-0.122070
8112201916,0.00212097,0.00776672,-1.00636292,0.427246,0.061035,-0.122070
8117218666,0.00250244,0.00802612,-1.00665283,0.366211,0.244141,-0.061035
8122210041,0.00262451,0.00785828,-1.00701904,0.366211,0.061035,-0.122070
8127253541,0.00210571,0.00711060,-1.00729370,0.427246,0.061035,-0.122070
8132217375,0.00152588,0.00663757,-1.00672913,0.305176,0.183105,-0.061035
8137221791,0.00126648,0.00679016,-1.00585938,0.366211,0.122070,-0.061035
8142194166,0.00128174,0.00688171,-1.00570679,0.366211,0.061035,-0.061035
8147222291,0.00157166,0.00697327,-1.00630188,0.305176,0.061035,-0.244141
8152206208,0.00154114,0.00741577,-1.00700378,0.305176,0.183105,-0.061035
8157230291,0.00102234,0.00785828,-1.00708008,0.366211,0.061035,-0.122070
8162221291,0.00085449,0.00814819,-1.00645447,0.488281,0.122070,-0.061035
8167266833,0.00123596,0.00817871,-1.00588989,0.366211,0.000000,-0.122070
8172185416,0.00166321,0.00778198,-1.00592041,0.305176,0.000000,0.000000
8177212916,0.00199890,0.00737000,-1.00639343,0.305176,-0.061035,-0.183105
8182208208,0.00242615,0.00735474,-1.00665283,0.305176,0.122070,-0.061035
