timestamp_ns,accel_x,accel_y,accel_z,gyro_x,gyro_y,gyro_z
78847125,0.00387573,0.00610352,-1.00598145,0.366211,0.000000,0.000000
88928458,0.00308228,0.00515747,-1.00662231,0.427246,0.061035,-0.061035
88933333,0.00244141,0.00502014,-1.00741577,0.366211,0.122070,-0.061035
95508625,0.00184631,0.00561523,-1.00639343,0.366211,0.122070,-0.122070
98562833,0.00111389,0.00624084,-1.00469971,0.305176,0.061035,-0.122070
106136708,0.00051880,0.00643921,-1.00531006,0.244141,-0.061035,-0.061035
108548291,0.00021362,0.00643921,-1.00753784,0.183105,0.000000,-0.122070
113716875,-0.00006104,0.00656128,-1.00831604,0.122070,0.122070,-0.122070
119310958,-0.00053406,0.00668335,-1.00717163,0.305176,0.000000,-0.244141
125429083,-0.00071716,0.00685120,-1.00576782,0.244141,0.061035,-0.061035
129540708,0.00000000,0.00720215,-1.00531006,0.366211,0.122070,-0.061035
134296583,0.00106812,0.00779724,-1.00561523,0.244141,0.122070,0.000000
139042083,0.00160217,0.00848389,-1.00624084,0.183105,0.000000,-0.061035
149528666,0.00154114,0.00878906,-1.00695801,0.305176,0.000000,-0.061035
149553500,0.00140381,0.00862122,-1.00749207,0.183105,-0.061035,-0.061035
156401125,0.00175476,0.00860596,-1.00735474,0.183105,0.000000,-0.122070
159739583,0.00248718,0.00886536,-1.00695801,0.366211,0.061035,-0.183105
165411791,0.00318909,0.00868225,-1.00706482,0.305176,-0.061035,0.000000
168672458,0.00358582,0.00805664,-1.00701904,0.305176,0.061035,-0.061035
173538083,0.00379944,0.00750732,-1.00616455,0.183105,0.122070,-0.061035
178811000,0.00378418,0.00706482,-1.00567627,0.305176,0.122070,-0.122070
201222250,0.00320435,0.00682068,-1.00646973,0.244141,0.061035,-0.183105
201226666,0.00234985,0.00695801,-1.00750732,0.305176,0.122070,-0.061035
201230000,0.00204468,0.00715637,-1.00755310,0.061035,0.061035,-0.122070
201233250,0.00224304,0.00733948,-1.00704956,0.122070,0.000000,0.000000
203962833,0.00227356,0.00756836,-1.00669861,0.183105,-0.061035,0.000000
208564833,0.00213623,0.00758362,-1.00633240,0.183105,0.122070,-0.061035
213925083,0.00207520,0.00770569,-1.00581360,0.122070,0.061035,-0.122070
219004833,0.00163269,0.00852966,-1.00588989,0.305176,0.061035,0.061035
223686166,0.00100708,0.00987244,-1.00653076,0.183105,0.183105,-0.122070
228644291,0.00091553,0.01077271,-1.00685120,0.122070,-0.061035,-0.061035
233535666,0.00131226,0.01097107,-1.00666809,0.183105,0.000000,-0.183105
238532541,0.00169373,0.01100159,-1.00648499,0.244141,0.061035,-0.061035
243531375,0.00170898,0.01077271,-1.00650024,0.122070,0.000000,-0.061035
248541958,0.00119019,0.01016235,-1.00683594,0.183105,0.122070,-0.061035
253524291,0.00059509,0.00961304,-1.00738525,0.183105,0.061035,0.000000
258538458,0.00079346,0.00924683,-1.00769043,0.183105,-0.061035,-0.122070
263579208,0.00184631,0.00875854,-1.00741577,0.122070,0.000000,0.000000
268551291,0.00280762,0.00811768,-1.00675964,0.305176,0.061035,-0.061035
273579125,0.00309753,0.00756836,-1.00596619,0.244141,0.061035,-0.061035
278561000,0.00286865,0.00688171,-1.00541687,0.305176,0.061035,-0.183105
283585250,0.00224304,0.00610352,-1.00538635,0.244141,0.061035,-0.122070
288614958,0.00177002,0.00563049,-1.00581360,0.244141,0.122070,-0.122070
293580875,0.00193787,0.00514221,-1.00630188,0.244141,0.061035,0.000000
298588791,0.00212097,0.00459290,-1.00662231,0.427246,0.061035,-0.061035
303573625,0.00213623,0.00440979,-1.00650024,0.244141,0.183105,-0.122070
308580041,0.00225830,0.00444031,-1.00582886,0.366211,0.000000,-0.183105
313556541,0.00242615,0.00476074,-1.00508118,0.183105,0.000000,-0.122070
318567708,0.00250244,0.00573730,-1.00488281,0.305176,0.000000,-0.122070
323553666,0.00257874,0.00726318,-1.00566101,0.244141,0.061035,-0.122070
328650583,0.00239563,0.00868225,-1.00619507,0.244141,0.122070,-0.061035
333542333,0.00190735,0.00936890,-1.00639343,0.244141,0.000000,0.061035
338578625,0.00193787,0.00950623,-1.00669861,0.244141,-0.061035,0.061035
343549125,0.00262451,0.00962830,-1.00689697,0.427246,0.122070,-0.061035
348578500,0.00277710,0.01000977,-1.00695801,0.183105,0.122070,-0.122070
353561250,0.00196838,0.01081848,-1.00660706,0.305176,0.000000,-0.122070
358564083,0.00086975,0.01139832,-1.00605774,0.366211,0.061035,-0.061035
363541958,0.00021362,0.01121521,-1.00588989,0.427246,0.061035,0.000000
368557958,0.00035095,0.01091003,-1.00624084,0.488281,0.061035,-0.122070
373564125,0.00068665,0.01084900,-1.00680542,0.183105,0.000000,0.000000
378574666,0.00038147,0.01049805,-1.00717163,0.366211,0.000000,0.061035
383561541,-0.00018311,0.00968933,-1.00675964,0.427246,0.183105,0.122070
388597000,-0.00021362,0.00891113,-1.00592041,0.488281,0.061035,0.000000
393576916,0.00024414,0.00860596,-1.00579834,0.305176,0.183105,0.000000
398620416,0.00086975,0.00840759,-1.00642395,0.488281,0.000000,0.061035
403580583,0.00144958,0.00790405,-1.00691223,0.488281,0.305176,-0.061035
408558541,0.00202942,0.00717163,-1.00700378,0.366211,0.061035,0.061035
413548708,0.00257874,0.00675964,-1.00709534,0.366211,0.061035,0.000000
418571958,0.00279236,0.00692749,-1.00740051,0.488281,0.061035,-0.061035
423598125,0.00267029,0.00689697,-1.00743103,0.305176,0.122070,-0.183105
428739875,0.00270081,0.00651550,-1.00657654,0.305176,-0.061035,-0.122070
433595166,0.00306702,0.00613403,-1.00556946,0.305176,0.061035,-0.061035
438627333,0.00352478,0.00601196,-1.00552368,0.366211,0.061035,-0.122070
443539541,0.00386047,0.00646973,-1.00628662,0.305176,0.000000,-0.183105
448590291,0.00396729,0.00740051,-1.00677490,0.427246,0.061035,0.000000
453571083,0.00396729,0.00799561,-1.00686646,0.305176,0.183105,-0.183105
458560208,0.00381470,0.00782776,-1.00695801,0.305176,-0.061035,-0.061035
463534666,0.00325012,0.00765991,-1.00680542,0.427246,0.000000,0.000000
468578791,0.00241089,0.00820923,-1.00646973,0.244141,0.061035,-0.122070
473601041,0.00175476,0.00903320,-1.00628662,0.366211,0.061035,-0.061035
478565291,0.00144958,0.00941467,-1.00613403,0.305176,0.122070,-0.061035
483562500,0.00134277,0.00949097,-1.00595093,0.244141,0.061035,0.061035
488618375,0.00117493,0.00965881,-1.00599670,0.305176,0.183105,-0.061035
493556666,0.00086975,0.00996399,-1.00628662,0.244141,0.122070,-0.061035
498565791,0.00042725,0.01020813,-1.00613403,0.427246,0.183105,-0.061035
503557333,0.00033569,0.01008606,-1.00561523,0.305176,0.122070,-0.061035
508547458,0.00083923,0.00961304,-1.00570679,0.366211,0.061035,0.000000
513560333,0.00123596,0.00921631,-1.00633240,0.427246,0.061035,-0.122070
518578458,0.00117493,0.00897217,-1.00651550,0.244141,0.000000,-0.122070
523568833,0.00119019,0.00880432,-1.00631714,0.427246,0.061035,-0.183105
528706958,0.00164795,0.00874329,-1.00643921,0.366211,-0.061035,-0.122070
533577333,0.00248718,0.00866699,-1.00674438,0.305176,-0.061035,0.000000
538584166,0.00326538,0.00820923,-1.00666809,0.427246,0.061035,0.000000
543571833,0.00367737,0.00753784,-1.00599670,0.305176,0.061035,-0.183105
548577041,0.00373840,0.00726318,-1.00521851,0.427246,0.061035,-0.183105
553543083,0.00331116,0.00755310,-1.00515747,0.427246,0.000000,-0.183105
558628250,0.00274658,0.00778198,-1.00596619,0.427246,0.000000,-0.122070
563585208,0.00260925,0.00733948,-1.00683594,0.305176,-0.122070,-0.122070
568611458,0.00259399,0.00675964,-1.00721741,0.305176,0.122070,-0.061035
573568875,0.00254822,0.00660706,-1.00680542,0.488281,0.061035,-0.122070
578584500,0.00282288,0.00648499,-1.00566101,0.244141,0.061035,-0.061035
583570833,0.00332642,0.00614929,-1.00468445,0.366211,0.061035,-0.122070
588578625,0.00364685,0.00611877,-1.00471497,0.488281,0.061035,-0.061035
593560666,0.00337219,0.00656128,-1.00584412,0.366211,0.000000,-0.183105
598566500,0.00239563,0.00691223,-1.00691223,0.244141,0.061035,-0.122070
603640541,0.00146484,0.00712585,-1.00659180,0.366211,0.061035,-0.061035
608577333,0.00138855,0.00769043,-1.00544739,0.488281,0.122070,0.061035
613548333,0.00170898,0.00859070,-1.00505066,0.366211,-0.061035,-0.183105
618577208,0.00175476,0.00930786,-1.00564575,0.244141,0.061035,-0.122070
623600583,0.00186157,0.00967407,-1.00656128,0.244141,0.061035,-0.061035
628709416,0.00184631,0.00994873,-1.00717163,0.427246,0.061035,-0.061035
633611125,0.00123596,0.01036072,-1.00686646,0.366211,0.244141,-0.122070
638584708,0.00082397,0.01078796,-1.00566101,0.305176,0.061035,-0.183105
643547250,0.00106812,0.01091003,-1.00477600,0.305176,0.122070,0.061035
648585583,0.00129700,0.01031494,-1.00526428,0.427246,0.122070,0.000000
653593916,0.00149536,0.00927734,-1.00654602,0.366211,0.061035,0.000000
658568791,0.00190735,0.00863647,-1.00730896,0.305176,-0.061035,-0.122070
663705791,0.00192261,0.00833130,-1.00715637,0.488281,0.061035,-0.061035
668581416,0.00166321,0.00785828,-1.00657654,0.488281,0.122070,0.000000
673554208,0.00180054,0.00738525,-1.00604248,0.244141,0.000000,-0.061035
678580458,0.00236511,0.00733948,-1.00601196,0.244141,-0.183105,-0.122070
683549875,0.00291443,0.00775146,-1.00645447,0.305176,0.061035,0.000000
688670791,0.00282288,0.00785828,-1.00711060,0.488281,0.122070,-0.122070
693626083,0.00202942,0.00720215,-1.00776672,0.366211,0.000000,0.000000
698605333,0.00146484,0.00640869,-1.00781250,0.366211,0.122070,-0.061035
703597083,0.00166321,0.00592041,-1.00709534,0.305176,0.122070,0.000000
708579875,0.00224304,0.00602722,-1.00662231,0.366211,0.183105,0.000000
713565500,0.00274658,0.00668335,-1.00688171,0.366211,0.000000,-0.122070
718588500,0.00349426,0.00694275,-1.00712585,0.427246,0.122070,0.000000
723652833,0.00411987,0.00665283,-1.00704956,0.488281,0.122070,-0.061035
728716791,0.00396729,0.00669861,-1.00700378,0.427246,0.061035,-0.183105
733590583,0.00331116,0.00732422,-1.00698853,0.366211,0.061035,-0.061035
738573000,0.00286865,0.00801086,-1.00701904,0.427246,0.122070,-0.183105
743566958,0.00268555,0.00822449,-1.00718689,0.488281,0.000000,-0.183105
748554916,0.00245667,0.00807190,-1.00706482,0.366211,0.061035,-0.061035
753561083,0.00201416,0.00817871,-1.00660706,0.427246,0.183105,0.000000
758634916,0.00160217,0.00843811,-1.00624084,0.366211,0.061035,-0.244141
763600458,0.00163269,0.00843811,-1.00575256,0.427246,0.000000,-0.122070
768626083,0.00187683,0.00836182,-1.00512695,0.427246,0.061035,-0.061035
773542833,0.00172424,0.00860596,-1.00552368,0.305176,0.122070,0.000000
778586000,0.00097656,0.00894165,-1.00663757,0.488281,0.061035,-0.061035
783556583,0.00039673,0.00914001,-1.00697327,0.488281,0.061035,-0.061035
788608625,0.00050354,0.00944519,-1.00708008,0.549316,0.061035,-0.061035
793638666,0.00096130,0.00970459,-1.00698853,0.488281,0.000000,-0.183105
798611708,0.00144958,0.00961304,-1.00544739,0.427246,0.122070,-0.061035
803619416,0.00177002,0.00942993,-1.00442505,0.427246,0.061035,-0.183105
808571375,0.00169373,0.00959778,-1.00537109,0.671387,0.061035,-0.122070
813538125,0.00148010,0.00985718,-1.00627136,0.305176,0.061035,-0.122070
818571958,0.00140381,0.00993347,-1.00686646,0.366211,0.122070,0.000000
823573375,0.00143433,0.01010132,-1.00804138,0.427246,0.183105,-0.061035
828755291,0.00155640,0.01017761,-1.00872803,0.427246,0.061035,-0.122070
833570250,0.00167847,0.00999451,-1.00782776,0.366211,0.122070,0.000000
838565500,0.00143433,0.00988770,-1.00665283,0.183105,0.061035,0.000000
843549916,0.00074768,0.00970459,-1.00656128,0.305176,0.000000,-0.061035
848613625,0.00013733,0.00929260,-1.00668335,0.488281,0.000000,-0.122070
853549000,0.00022888,0.00888062,-1.00599670,0.427246,0.061035,-0.122070
858617375,0.00119019,0.00859070,-1.00535583,0.244141,0.122070,-0.061035
863532166,0.00238037,0.00814819,-1.00581360,0.488281,0.122070,0.061035
868620708,0.00267029,0.00756836,-1.00659180,0.427246,0.000000,-0.122070
873539833,0.00221252,0.00721741,-1.00642395,0.366211,0.122070,-0.122070
878546375,0.00192261,0.00686646,-1.00569153,0.366211,0.061035,0.061035
883553666,0.00215149,0.00628662,-1.00527954,0.427246,0.061035,-0.061035
888577708,0.00273132,0.00581360,-1.00529480,0.244141,0.000000,-0.061035
893625833,0.00344849,0.00550842,-1.00559998,0.366211,0.061035,-0.061035
898657500,0.00379944,0.00526428,-1.00619507,0.366211,0.000000,-0.244141
903546250,0.00346375,0.00523376,-1.00671387,0.366211,0.000000,-0.244141
908576000,0.00297546,0.00534058,-1.00669861,0.305176,0.061035,-0.122070
913539625,0.00282288,0.00558472,-1.00642395,0.366211,0.061035,-0.122070
918573125,0.00299072,0.00616455,-1.00630188,0.366211,0.000000,-0.305176
923619000,0.00344849,0.00677490,-1.00633240,0.366211,0.061035,-0.122070
928691958,0.00369263,0.00744629,-1.00642395,0.427246,0.000000,-0.122070
933528208,0.00328064,0.00846863,-1.00662231,0.244141,-0.061035,-0.061035
938564541,0.00259399,0.00912476,-1.00677490,0.488281,-0.061035,-0.122070
943549208,0.00227356,0.00888062,-1.00654602,0.488281,-0.061035,-0.122070
948559750,0.00216675,0.00814819,-1.00616455,0.488281,0.061035,-0.122070
953548458,0.00166321,0.00758362,-1.00621033,0.549316,0.000000,-0.183105
958603875,0.00097656,0.00761414,-1.00602722,0.549316,0.000000,0.061035
963627333,0.00100708,0.00801086,-1.00468445,0.366211,0.061035,-0.122070
968551875,0.00151062,0.00834656,-1.00405884,0.610352,0.122070,-0.183105
973597458,0.00151062,0.00836182,-1.00663757,0.549316,0.610352,-0.061035
978565916,0.00111389,0.00808716,-1.01011658,0.549316,-0.549316,0.000000
983552000,0.00111389,0.00807190,-1.00959778,0.610352,0.061035,-0.122070
988555416,0.00184631,0.00848389,-1.00567627,0.122070,0.183105,-0.122070
993512083,0.00282288,0.00846863,-0.99885559,0.366211,0.000000,-0.183105
998563166,0.00308228,0.00808716,-0.99815369,0.732422,0.061035,-0.061035
1012485166,0.00279236,0.00823975,-1.01277161,0.061035,0.183105,0.000000
1012493125,0.00311279,0.00885010,-1.01959229,0.244141,0.122070,-0.061035
1013551208,0.00326538,0.00918579,-1.01029968,0.183105,0.061035,-0.061035
1018550625,0.00234985,0.00883484,-1.00567627,0.061035,0.000000,0.000000
1023720541,0.00141907,0.00825500,-1.00695801,0.122070,0.122070,-0.061035
1030733458,0.00105286,0.00834656,-1.00656128,0.244141,0.122070,-0.061035
1033595208,0.00103760,0.00897217,-1.00724792,0.183105,0.183105,-0.061035
1038550000,0.00102234,0.00936890,-1.00988770,0.244141,0.366211,0.000000
1043531583,0.00070190,0.00950623,-1.01097107,0.061035,0.061035,-0.122070
1048543416,0.00009155,0.00978088,-1.00802612,0.427246,0.122070,-0.061035
1053526666,-0.00019836,0.01028442,-1.00463867,0.183105,0.122070,-0.061035
1058549791,0.00024414,0.01025391,-1.00433350,0.305176,0.122070,0.000000
1063528500,0.00068665,0.00939941,-1.00474548,0.183105,0.244141,-0.061035
1068540833,0.00048828,0.00840759,-1.00515747,0.061035,0.122070,-0.244141
1073516791,0.00032043,0.00799561,-1.00657654,0.366211,0.061035,0.000000
1078587916,0.00065613,0.00810242,-1.00788879,0.366211,0.000000,-0.061035
1083552250,0.00105286,0.00822449,-1.00773621,0.122070,0.488281,-0.061035
1088543833,0.00144958,0.00785828,-1.00578308,0.061035,0.061035,-0.061035
1093529541,0.00189209,0.00720215,-1.00360107,0.061035,0.061035,0.000000
1098488083,0.00227356,0.00709534,-1.00296021,0.549316,0.183105,-0.061035
1107301916,0.00259399,0.00773621,-1.00595093,0.427246,0.000000,-0.061035
1108716208,0.00320435,0.00810242,-1.00822449,0.427246,0.061035,-0.122070
1113666791,0.00399780,0.00756836,-1.00555420,0.366211,0.122070,-0.183105
1118634000,0.00421143,0.00657654,-1.00338745,0.305176,-0.061035,-0.122070
1123527625,0.00398254,0.00592041,-1.00454712,0.427246,0.122070,-0.122070
1128697750,0.00405884,0.00601196,-1.00610352,0.549316,0.122070,-0.122070
1133565625,0.00442505,0.00653076,-1.00686646,0.305176,0.000000,-0.122070
1138492125,0.00473022,0.00669861,-1.00698853,0.305176,0.000000,-0.244141
1143531000,0.00456238,0.00646973,-1.00688171,0.488281,0.244141,-0.061035
1148603791,0.00379944,0.00630188,-1.00674438,0.366211,0.061035,-0.122070
1153477000,0.00331116,0.00646973,-1.00695801,0.244141,0.061035,-0.122070
1158504875,0.00323486,0.00686646,-1.00779724,0.244141,0.122070,-0.183105
1163571208,0.00279236,0.00703430,-1.00808716,0.244141,0.122070,-0.122070
1168499500,0.00210571,0.00701904,-1.00752258,0.122070,0.061035,-0.122070
1173481916,0.00161743,0.00727844,-1.00692749,0.366211,0.122070,-0.122070
1178512291,0.00128174,0.00767517,-1.00666809,0.427246,0.061035,-0.061035
1183480708,0.00134277,0.00790405,-1.00697327,0.488281,0.061035,-0.122070
1188517958,0.00155640,0.00807190,-1.00733948,0.366211,0.122070,-0.061035
1193510000,0.00143433,0.00842285,-1.00717163,0.427246,0.000000,0.000000
1198597541,0.00105286,0.00872803,-1.00682068,0.427246,0.000000,-0.122070
1203548875,0.00061035,0.00863647,-1.00650024,0.366211,0.061035,-0.122070
1208511916,0.00019836,0.00842285,-1.00608826,0.488281,0.000000,-0.061035
1213494083,0.00028992,0.00856018,-1.00585938,0.366211,0.061035,0.061035
1218501833,0.00093079,0.00898743,-1.00648499,0.305176,0.122070,0.000000
1223534875,0.00129700,0.00927734,-1.00703430,0.549316,0.061035,0.000000
1228688041,0.00115967,0.00918579,-1.00646973,0.427246,0.183105,-0.061035
1233594666,0.00109863,0.00891113,-1.00579834,0.366211,0.122070,-0.122070
1238604041,0.00148010,0.00892639,-1.00610352,0.366211,0.000000,0.061035
1243489708,0.00216675,0.00914001,-1.00662231,0.366211,0.061035,0.061035
1248528375,0.00277710,0.00904846,-1.00671387,0.305176,0.244141,0.061035
1253512416,0.00299072,0.00869751,-1.00686646,0.183105,0.061035,-0.061035
1258527166,0.00274658,0.00869751,-1.00720215,0.305176,0.122070,-0.122070
1263497291,0.00231934,0.00889587,-1.00733948,0.244141,0.000000,-0.183105
1268502375,0.00244141,0.00888062,-1.00712585,0.305176,0.000000,0.061035
1273496125,0.00340271,0.00866699,-1.00686646,0.366211,0.061035,0.000000
1278517166,0.00410461,0.00813293,-1.00659180,0.366211,0.122070,-0.061035
1283530750,0.00382996,0.00764465,-1.00608826,0.183105,0.000000,-0.244141
1288530208,0.00308228,0.00755310,-1.00607300,0.305176,0.061035,-0.183105
1293520541,0.00288391,0.00741577,-1.00643921,0.427246,-0.061035,0.000000
1298543125,0.00343323,0.00695801,-1.00648499,0.305176,0.122070,-0.122070
1303555166,0.00401306,0.00637817,-1.00730896,0.427246,0.061035,-0.061035
1308531791,0.00433350,0.00576782,-1.00747681,0.549316,0.061035,-0.061035
1313524958,0.00439453,0.00541687,-1.00642395,0.488281,0.061035,-0.122070
1318546541,0.00407410,0.00532532,-1.00640869,0.427246,0.000000,-0.122070
1323559958,0.00338745,0.00500488,-1.00633240,0.427246,-0.061035,-0.122070
1328758500,0.00282288,0.00469971,-1.00532532,0.427246,0.122070,-0.244141
1333514875,0.00254822,0.00509644,-1.00476074,0.427246,0.122070,-0.122070
1338645041,0.00216675,0.00607300,-1.00488281,0.366211,-0.061035,-0.061035
1343519500,0.00137329,0.00682068,-1.00540161,0.427246,0.061035,0.000000
1348545208,0.00038147,0.00703430,-1.00616455,0.488281,0.122070,-0.061035
1353547666,-0.00024414,0.00718689,-1.00688171,0.488281,0.061035,-0.061035
1358557791,-0.00047302,0.00765991,-1.00712585,0.610352,0.061035,0.000000
1363571708,-0.00032043,0.00849915,-1.00657654,0.488281,0.000000,-0.122070
1368620791,-0.00006104,0.00952148,-1.00576782,0.610352,0.122070,0.000000
1373566958,0.00006104,0.01013184,-1.00575256,0.671387,0.366211,-0.061035
1378549916,0.00021362,0.01010132,-1.00650024,0.793457,0.366211,0.000000
1383637416,0.00030518,0.01000977,-1.00617981,0.671387,-0.061035,0.122070
1388564541,0.00045776,0.00984192,-1.00291443,0.305176,-0.061035,-0.061035
1393531541,0.00103760,0.00935364,-1.00001526,0.427246,-0.061035,0.000000
1398553583,0.00184631,0.00904846,-1.00506592,0.488281,0.061035,-0.061035
1403569333,0.00238037,0.00900269,-1.01478577,0.427246,0.122070,-0.122070
1408569208,0.00251770,0.00885010,-1.01663208,0.244141,0.122070,-0.061035
1413566833,0.00244141,0.00848389,-1.01011658,0.305176,0.061035,-0.122070
1418704208,0.00234985,0.00804138,-1.00573730,0.366211,0.000000,-0.183105
1423617875,0.00268555,0.00788879,-1.00634766,0.427246,0.061035,-0.061035
1428769791,0.00372314,0.00767517,-1.00709534,0.366211,0.183105,-0.061035
1433524916,0.00489807,0.00704956,-1.00581360,0.427246,0.061035,-0.122070
1438598083,0.00524902,0.00656128,-1.00495911,0.366211,0.122070,-0.122070
1443546583,0.00469971,0.00674438,-1.00570679,0.488281,0.122070,-0.183105
1448698083,0.00389099,0.00715637,-1.00608826,0.549316,0.061035,-0.244141
1453611625,0.00338745,0.00717163,-1.00540161,0.610352,0.061035,-0.183105
1458560833,0.00305176,0.00679016,-1.00523376,0.549316,0.061035,-0.061035
1463529458,0.00239563,0.00645447,-1.00578308,0.610352,0.122070,0.000000
1468583458,0.00140381,0.00683594,-1.00598145,0.610352,0.122070,-0.061035
1473807541,0.00039673,0.00788879,-1.00529480,0.488281,0.122070,-0.061035
1478607500,0.00000000,0.00880432,-1.00471497,0.488281,0.061035,-0.061035
1483640625,0.00033569,0.00921631,-1.00579834,0.366211,0.183105,0.000000
1488654666,0.00085449,0.00917053,-1.00741577,0.244141,0.061035,-0.122070
1493668041,0.00091553,0.00866699,-1.00784302,0.488281,0.122070,-0.061035
1498585375,0.00068665,0.00819397,-1.00784302,0.427246,0.122070,-0.183105
1503680666,0.00070190,0.00833130,-1.00787354,0.366211,0.061035,0.061035
1508568958,0.00093079,0.00859070,-1.00701904,0.488281,0.122070,0.000000
1513566416,0.00126648,0.00823975,-1.00553894,0.488281,0.122070,-0.122070
1519220208,0.00173950,0.00753784,-1.00497437,0.549316,0.122070,-0.122070
1523572041,0.00222778,0.00718689,-1.00572205,0.427246,0.061035,0.000000
1528744500,0.00253296,0.00701904,-1.00668335,0.610352,0.061035,-0.122070
1533589500,0.00274658,0.00657654,-1.00674438,0.305176,0.000000,-0.122070
1538763500,0.00291443,0.00610352,-1.00611877,0.427246,0.122070,-0.061035
1543614333,0.00285339,0.00605774,-1.00558472,0.488281,0.183105,0.000000
1548563208,0.00263977,0.00599670,-1.00549316,0.427246,0.061035,-0.122070
1553577916,0.00260925,0.00563049,-1.00588989,0.488281,0.061035,-0.122070
1558578750,0.00265503,0.00555420,-1.00651550,0.366211,0.122070,0.000000
1563541125,0.00236511,0.00622559,-1.00744629,0.488281,0.061035,-0.061035
1568553791,0.00201416,0.00708008,-1.00819397,0.366211,0.000000,-0.122070
1573890666,0.00205994,0.00729370,-1.00762939,0.366211,0.122070,0.000000
1578577458,0.00245667,0.00703430,-1.00607300,0.427246,0.183105,-0.061035
1583539208,0.00242615,0.00694275,-1.00559998,0.366211,0.122070,-0.122070
1588575750,0.00178528,0.00718689,-1.00660706,0.366211,0.122070,-0.122070
1593550875,0.00134277,0.00758362,-1.00753784,0.305176,0.000000,0.000000
1598567416,0.00155640,0.00802612,-1.00785828,0.366211,0.122070,-0.061035
1603785708,0.00202942,0.00814819,-1.00769043,0.427246,0.061035,-0.122070
1608586875,0.00215149,0.00816345,-1.00694275,0.488281,0.183105,-0.061035
1613554833,0.00178528,0.00845337,-1.00631714,0.488281,0.061035,0.000000
1618549875,0.00143433,0.00859070,-1.00625610,0.366211,0.061035,-0.122070
1623526750,0.00158691,0.00825500,-1.00633240,0.244141,-0.061035,-0.061035
1628686125,0.00234985,0.00784302,-1.00675964,0.244141,0.000000,-0.122070
1633587875,0.00292969,0.00781250,-1.00740051,0.366211,0.000000,-0.183105
1638557833,0.00270081,0.00823975,-1.00729370,0.305176,0.000000,-0.183105
1643565666,0.00186157,0.00889587,-1.00624084,0.305176,0.061035,-0.061035
1648558333,0.00112915,0.00929260,-1.00526428,0.488281,0.122070,0.000000
1653589333,0.00103760,0.00915527,-1.00524902,0.305176,0.122070,0.000000
1658556208,0.00143433,0.00854492,-1.00561523,0.366211,0.061035,-0.061035
1663544541,0.00180054,0.00801086,-1.00553894,0.305176,0.000000,-0.061035
1668623625,0.00170898,0.00802612,-1.00570679,0.427246,0.305176,0.000000
1674118416,0.00122070,0.00811768,-1.00625610,0.427246,0.000000,0.000000
1678597208,0.00086975,0.00779724,-1.00621033,0.366211,0.183105,0.122070
1683769875,0.00094604,0.00737000,-1.00587463,0.427246,0.000000,-0.061035
1688580916,0.00140381,0.00712585,-1.00613403,0.244141,0.000000,-0.122070
1693579416,0.00167847,0.00698853,-1.00650024,0.366211,0.000000,0.000000
1698568333,0.00157166,0.00692749,-1.00645447,0.366211,0.061035,-0.061035
1703619041,0.00204468,0.00666809,-1.00605774,0.427246,-0.061035,-0.122070
1708577041,0.00314331,0.00598145,-1.00572205,0.427246,0.122070,-0.183105
1713568041,0.00372314,0.00521851,-1.00599670,0.244141,0.122070,-0.244141
1718572208,0.00364685,0.00503540,-1.00679016,0.305176,-0.061035,-0.244141
1723549583,0.00370789,0.00521851,-1.00729370,0.366211,0.244141,-0.122070
1728726666,0.00410461,0.00520325,-1.00715637,0.488281,0.000000,-0.183105
1733548708,0.00445557,0.00495911,-1.00700378,0.305176,0.061035,-0.061035
1738558583,0.00439453,0.00485229,-1.00706482,0.244141,0.122070,-0.305176
1743558041,0.00389099,0.00503540,-1.00685120,0.366211,0.061035,-0.061035
1748559125,0.00337219,0.00524902,-1.00659180,0.305176,0.000000,-0.183105
1753554333,0.00292969,0.00514221,-1.00666809,0.427246,0.000000,-0.183105
1758554958,0.00231934,0.00492859,-1.00677490,0.427246,0.061035,-0.061035
1763557375,0.00166321,0.00498962,-1.00636292,0.427246,0.061035,-0.183105
1769099958,0.00117493,0.00555420,-1.00556946,0.427246,0.244141,-0.122070
1774133708,0.00085449,0.00648499,-1.00512695,0.366211,0.122070,-0.122070
1778637291,0.00050354,0.00761414,-1.00506592,0.427246,0.122070,-0.183105
1783579000,0.00024414,0.00874329,-1.00526428,0.427246,0.122070,-0.122070
1788559916,0.00045776,0.00953674,-1.00572205,0.427246,0.061035,-0.061035
1793595333,0.00073242,0.00976562,-1.00619507,0.366211,0.000000,-0.122070
1798592875,0.00059509,0.00941467,-1.00630188,0.305176,0.061035,-0.061035
1803557250,0.00042725,0.00897217,-1.00640869,0.427246,0.122070,-0.122070
1808554000,0.00077820,0.00924683,-1.00686646,0.305176,0.122070,-0.061035
1813526000,0.00135803,0.00988770,-1.00708008,0.366211,0.000000,0.000000
1818583333,0.00172424,0.00987244,-1.00672913,0.427246,-0.122070,0.061035
1823598291,0.00181580,0.00910950,-1.00622559,0.610352,0.000000,-0.061035
1828756500,0.00201416,0.00837708,-1.00546265,0.427246,0.000000,-0.061035
1833586458,0.00254822,0.00796509,-1.00454712,0.427246,0.122070,0.000000
1838595166,0.00285339,0.00756836,-1.00457764,0.366211,0.122070,-0.061035
1843545750,0.00268555,0.00709534,-1.00631714,0.183105,0.122070,-0.122070
1848570083,0.00241089,0.00633240,-1.00903320,0.244141,0.122070,0.000000
1853605750,0.00207520,0.00526428,-1.01034546,0.183105,0.183105,0.000000
1858635791,0.00166321,0.00418091,-1.00970459,0.366211,0.061035,0.000000
1863596500,0.00140381,0.00354004,-1.00872803,0.305176,0.122070,0.061035
1868634458,0.00149536,0.00367737,-1.00778198,0.366211,0.122070,-0.122070
1874071375,0.00192261,0.00445557,-1.00622559,0.366211,0.122070,-0.122070
1878549291,0.00234985,0.00529480,-1.00491333,0.366211,0.061035,-0.183105
1883527291,0.00244141,0.00555420,-1.00492859,0.366211,-0.061035,-0.122070
1888555125,0.00201416,0.00531006,-1.00605774,0.244141,0.000000,-0.061035
1893561083,0.00131226,0.00532532,-1.00703430,0.427246,0.122070,-0.122070
1898625500,0.00105286,0.00605774,-1.00732422,0.427246,0.000000,-0.122070
1903556541,0.00140381,0.00730896,-1.00724792,0.305176,-0.061035,-0.061035
1908566583,0.00195312,0.00830078,-1.00669861,0.488281,0.061035,0.000000
1913561791,0.00234985,0.00863647,-1.00596619,0.366211,0.122070,-0.183105
1918552416,0.00248718,0.00833130,-1.00573730,0.549316,0.183105,-0.244141
1923573208,0.00247192,0.00776672,-1.00546265,0.610352,0.244141,-0.183105
1928751916,0.00241089,0.00769043,-1.00488281,0.488281,0.122070,-0.061035
1933567041,0.00230408,0.00799561,-1.00502014,0.427246,0.000000,0.061035
1938571208,0.00233459,0.00816345,-1.00573730,0.366211,0.061035,-0.061035
1943558958,0.00265503,0.00813293,-1.00662231,0.488281,0.000000,-0.061035
1948591125,0.00277710,0.00794983,-1.00778198,0.305176,0.000000,-0.122070
1953547458,0.00239563,0.00764465,-1.00817871,0.305176,0.000000,-0.122070
1958656083,0.00195312,0.00718689,-1.00704956,0.488281,0.000000,-0.061035
1963553708,0.00163269,0.00662231,-1.00624084,0.366211,0.061035,0.000000
1968604750,0.00131226,0.00625610,-1.00729370,0.305176,0.122070,-0.183105
1973556041,0.00131226,0.00605774,-1.00794983,0.427246,0.122070,0.061035
1978579541,0.00180054,0.00588989,-1.00660706,0.427246,0.061035,-0.244141
1983556000,0.00201416,0.00579834,-1.00505066,0.366211,0.000000,-0.122070
1988645541,0.00180054,0.00590515,-1.00480652,0.305176,-0.061035,-0.183105
1993599541,0.00164795,0.00639343,-1.00541687,0.366211,-0.061035,-0.183105
1998632708,0.00180054,0.00682068,-1.00599670,0.427246,0.122070,-0.061035
2003575416,0.00231934,0.00689697,-1.00636292,0.366211,0.061035,-0.061035
2008568583,0.00277710,0.00663757,-1.00679016,0.427246,0.061035,-0.122070
2013537875,0.00277710,0.00628662,-1.00750732,0.244141,0.061035,-0.122070
2018571083,0.00268555,0.00616455,-1.00802612,0.244141,0.061035,0.000000
2023586916,0.00268555,0.00654602,-1.00802612,0.366211,0.122070,0.000000
2028765791,0.00244141,0.00712585,-1.00778198,0.305176,0.183105,-0.122070
2033629291,0.00233459,0.00738525,-1.00738525,0.366211,0.061035,-0.122070
2038570458,0.00289917,0.00732422,-1.00701904,0.366211,-0.061035,-0.061035
2043568625,0.00340271,0.00724792,-1.00692749,0.244141,0.122070,-0.061035
2048571791,0.00289917,0.00720215,-1.00677490,0.366211,0.122070,-0.122070
2053546833,0.00199890,0.00708008,-1.00663757,0.366211,-0.122070,-0.061035
2058610875,0.00135803,0.00723267,-1.00685120,0.244141,0.000000,-0.061035
2063649125,0.00105286,0.00764465,-1.00695801,0.427246,0.183105,-0.183105
2068581708,0.00109863,0.00813293,-1.00662231,0.366211,0.122070,-0.061035
2073567500,0.00163269,0.00840759,-1.00617981,0.366211,0.122070,-0.061035
2078574333,0.00238037,0.00810242,-1.00627136,0.427246,0.061035,-0.061035
2083553458,0.00270081,0.00770569,-1.00669861,0.366211,0.122070,0.000000
2088562875,0.00218201,0.00744629,-1.00677490,0.366211,0.122070,-0.122070
2093581625,0.00134277,0.00717163,-1.00643921,0.183105,0.000000,-0.122070
2098559875,0.00108337,0.00726318,-1.00599670,0.366211,0.061035,-0.061035
2103566041,0.00149536,0.00752258,-1.00579834,0.244141,0.000000,-0.061035
2108564833,0.00193787,0.00723267,-1.00573730,0.427246,0.000000,-0.122070
2113588041,0.00215149,0.00662231,-1.00607300,0.244141,0.061035,-0.061035
2118570375,0.00250244,0.00643921,-1.00662231,0.488281,0.122070,0.000000
2123614166,0.00288391,0.00677490,-1.00674438,0.305176,0.061035,0.000000
2128655583,0.00325012,0.00711060,-1.00654602,0.427246,0.000000,-0.183105
2133550791,0.00373840,0.00679016,-1.00666809,0.366211,0.122070,-0.061035
2138557333,0.00364685,0.00602722,-1.00692749,0.427246,0.061035,-0.183105
2143532625,0.00297546,0.00578308,-1.00669861,0.488281,0.000000,-0.061035
2148607875,0.00239563,0.00605774,-1.00625610,0.366211,0.061035,-0.061035
2153540541,0.00221252,0.00608826,-1.00619507,0.366211,0.061035,0.000000
2158575875,0.00256348,0.00566101,-1.00636292,0.305176,-0.061035,-0.122070
2163562041,0.00273132,0.00514221,-1.00645447,0.305176,0.122070,-0.122070
2168591375,0.00204468,0.00514221,-1.00672913,0.488281,0.061035,-0.122070
2173573291,0.00115967,0.00587463,-1.00717163,0.427246,0.000000,-0.061035
2178580958,0.00093079,0.00686646,-1.00735474,0.366211,0.000000,-0.122070
2183562333,0.00149536,0.00775146,-1.00720215,0.366211,0.122070,-0.122070
2188593208,0.00221252,0.00825500,-1.00698853,0.366211,0.000000,-0.122070
2193590958,0.00234985,0.00828552,-1.00683594,0.488281,0.000000,-0.183105
2198607791,0.00204468,0.00820923,-1.00685120,0.366211,0.122070,-0.061035
2203679416,0.00160217,0.00823975,-1.00654602,0.427246,0.122070,-0.061035
2208584791,0.00129700,0.00828552,-1.00572205,0.366211,0.000000,-0.183105
2213559875,0.00158691,0.00830078,-1.00500488,0.366211,0.000000,-0.122070
2218587125,0.00201416,0.00828552,-1.00494385,0.427246,0.122070,0.061035
2223617541,0.00212097,0.00819397,-1.00567627,0.305176,0.000000,-0.061035
2228766166,0.00224304,0.00787354,-1.00666809,0.244141,0.061035,-0.061035
2233610958,0.00253296,0.00752258,-1.00715637,0.366211,0.000000,0.000000
2238595583,0.00271606,0.00772095,-1.00692749,0.366211,0.122070,-0.061035
2243567791,0.00225830,0.00833130,-1.00650024,0.366211,0.122070,-0.122070
2248580208,0.00154114,0.00833130,-1.00643921,0.244141,0.122070,-0.061035
2253579125,0.00144958,0.00732422,-1.00657654,0.244141,0.061035,0.000000
2258622583,0.00181580,0.00637817,-1.00650024,0.305176,-0.061035,-0.122070
2263593375,0.00222778,0.00613403,-1.00659180,0.244141,0.000000,-0.061035
2268593041,0.00283813,0.00627136,-1.00718689,0.244141,-0.061035,-0.122070
2273582791,0.00328064,0.00639343,-1.00740051,0.244141,0.061035,-0.061035
2278583583,0.00332642,0.00650024,-1.00706482,0.305176,0.061035,-0.122070
2283592041,0.00317383,0.00645447,-1.00671387,0.366211,0.000000,-0.122070
2288644041,0.00286865,0.00614929,-1.00643921,0.244141,0.183105,-0.122070
2293590375,0.00262451,0.00604248,-1.00624084,0.366211,0.061035,-0.122070
2298638375,0.00254822,0.00624084,-1.00627136,0.427246,0.061035,-0.183105
2303604833,0.00245667,0.00656128,-1.00654602,0.305176,0.061035,0.000000
2308591541,0.00221252,0.00671387,-1.00700378,0.488281,0.122070,-0.122070
2313607500,0.00196838,0.00654602,-1.00718689,0.366211,0.061035,0.000000
2318622916,0.00219727,0.00633240,-1.00718689,0.366211,0.122070,-0.061035
2323641000,0.00263977,0.00624084,-1.00721741,0.427246,0.000000,-0.122070
2328794166,0.00241089,0.00611877,-1.00717163,0.244141,0.122070,-0.183105
2333591500,0.00181580,0.00630188,-1.00743103,0.488281,-0.061035,0.000000
2338619916,0.00192261,0.00688171,-1.00787354,0.305176,0.183105,0.000000
2343616583,0.00256348,0.00737000,-1.00779724,0.244141,0.183105,-0.061035
2348619375,0.00299072,0.00738525,-1.00738525,0.488281,0.122070,-0.061035
2353644083,0.00300598,0.00740051,-1.00730896,0.305176,0.000000,-0.183105
2358611166,0.00283813,0.00769043,-1.00752258,0.488281,0.122070,0.000000
2363608750,0.00257874,0.00785828,-1.00727844,0.305176,0.000000,-0.061035
2368631708,0.00241089,0.00764465,-1.00643921,0.366211,0.061035,-0.122070
2373689166,0.00238037,0.00717163,-1.00567627,0.427246,-0.061035,-0.061035
2378615708,0.00225830,0.00704956,-1.00529480,0.427246,0.000000,-0.061035
2383643625,0.00184631,0.00750732,-1.00573730,0.366211,0.000000,-0.061035
2388667625,0.00148010,0.00814819,-1.00703430,0.366211,0.061035,-0.183105
2393613416,0.00155640,0.00833130,-1.00801086,0.305176,-0.061035,-0.061035
2398642000,0.00222778,0.00807190,-1.00746155,0.488281,0.061035,-0.061035
2403643958,0.00292969,0.00801086,-1.00622559,0.366211,0.061035,-0.061035
2408646541,0.00305176,0.00807190,-1.00590515,0.366211,0.122070,-0.061035
2413664041,0.00236511,0.00793457,-1.00650024,0.427246,0.122070,-0.061035
2418637708,0.00164795,0.00778198,-1.00706482,0.427246,0.061035,-0.122070
2423643416,0.00170898,0.00767517,-1.00683594,0.427246,0.122070,-0.183105
2428726000,0.00224304,0.00744629,-1.00602722,0.549316,0.122070,-0.061035
2433638375,0.00254822,0.00720215,-1.00576782,0.488281,0.061035,-0.061035
2438621625,0.00265503,0.00697327,-1.00646973,0.366211,0.061035,-0.122070
2443614708,0.00262451,0.00660706,-1.00721741,0.488281,-0.061035,-0.061035
2448623125,0.00231934,0.00601196,-1.00723267,0.366211,0.183105,-0.061035
2453692250,0.00198364,0.00544739,-1.00683594,0.366211,0.122070,-0.122070
2458653291,0.00177002,0.00531006,-1.00646973,0.488281,0.000000,-0.061035
2463680166,0.00144958,0.00555420,-1.00634766,0.427246,0.000000,-0.122070
2468640708,0.00109863,0.00563049,-1.00660706,0.427246,0.061035,-0.122070
2473650125,0.00106812,0.00569153,-1.00698853,0.427246,0.122070,-0.122070
2478680208,0.00115967,0.00607300,-1.00675964,0.366211,0.061035,-0.061035
2483670125,0.00108337,0.00665283,-1.00625610,0.244141,0.122070,-0.183105
2488722791,0.00117493,0.00720215,-1.00636292,0.427246,0.122070,0.000000
2493783166,0.00167847,0.00761414,-1.00704956,0.305176,0.122070,-0.061035
2498689083,0.00209045,0.00773621,-1.00764465,0.488281,0.061035,-0.122070
2503679708,0.00224304,0.00753784,-1.00747681,0.366211,0.000000,-0.061035
2508684541,0.00250244,0.00753784,-1.00685120,0.366211,0.183105,0.000000
2513659291,0.00257874,0.00825500,-1.00653076,0.366211,0.122070,-0.122070
2518758875,0.00230408,0.00900269,-1.00657654,0.488281,0.122070,-0.061035
2523670833,0.00241089,0.00900269,-1.00682068,0.305176,0.061035,0.061035
2528718208,0.00285339,0.00846863,-1.00723267,0.427246,-0.061035,-0.061035
2533736125,0.00271606,0.00779724,-1.00761414,0.366211,0.122070,-0.061035
2538725458,0.00204468,0.00749207,-1.00752258,0.305176,0.183105,0.000000
2543689083,0.00169373,0.00727844,-1.00698853,0.549316,0.122070,-0.061035
2548681208,0.00181580,0.00695801,-1.00648499,0.244141,0.061035,-0.061035
2553678166,0.00195312,0.00677490,-1.00646973,0.244141,0.061035,-0.061035
2558694375,0.00181580,0.00677490,-1.00701904,0.244141,0.122070,-0.061035
2563661000,0.00138855,0.00680542,-1.00749207,0.305176,0.000000,0.000000
2568628625,0.00134277,0.00668335,-1.00717163,0.366211,0.000000,-0.183105
2573676791,0.00205994,0.00643921,-1.00628662,0.305176,0.061035,-0.061035
2578686000,0.00280762,0.00630188,-1.00556946,0.366211,0.061035,-0.122070
2583665416,0.00274658,0.00639343,-1.00555420,0.366211,0.122070,0.000000
2588682166,0.00202942,0.00671387,-1.00616455,0.305176,0.061035,-0.183105
2593732583,0.00163269,0.00711060,-1.00712585,0.305176,0.061035,-0.244141
2598662375,0.00198364,0.00733948,-1.00753784,0.366211,0.122070,0.000000
2603716583,0.00248718,0.00735474,-1.00698853,0.244141,0.061035,-0.183105
2608701625,0.00299072,0.00717163,-1.00613403,0.305176,0.061035,-0.061035
2613678541,0.00357056,0.00700378,-1.00567627,0.366211,0.000000,-0.122070
2618714166,0.00384521,0.00711060,-1.00639343,0.305176,0.122070,-0.061035
2623690041,0.00350952,0.00720215,-1.00784302,0.244141,-0.061035,-0.061035
2628704250,0.00302124,0.00701904,-1.00831604,0.305176,0.122070,-0.061035
2633931208,0.00277710,0.00682068,-1.00727844,0.305176,0.061035,0.000000
2638761500,0.00253296,0.00668335,-1.00607300,0.427246,0.122070,-0.183105
2643688833,0.00225830,0.00657654,-1.00595093,0.366211,-0.061035,0.000000
2648701125,0.00213623,0.00662231,-1.00654602,0.305176,0.000000,0.000000
2653714833,0.00201416,0.00660706,-1.00695801,0.427246,0.061035,0.000000
2658716375,0.00167847,0.00657654,-1.00708008,0.305176,-0.061035,-0.122070
2663705625,0.00103760,0.00682068,-1.00704956,0.366211,0.061035,-0.061035
2668690291,0.00068665,0.00701904,-1.00689697,0.549316,0.000000,-0.122070
2673697166,0.00085449,0.00672913,-1.00701904,0.305176,0.000000,-0.122070
2678716791,0.00123596,0.00636292,-1.00720215,0.366211,0.122070,0.000000
2683688833,0.00148010,0.00639343,-1.00708008,0.305176,0.061035,-0.122070
2688696541,0.00166321,0.00669861,-1.00680542,0.305176,0.061035,-0.244141
2693689208,0.00222778,0.00701904,-1.00642395,0.488281,0.183105,-0.061035
2698682875,0.00297546,0.00738525,-1.00617981,0.366211,0.061035,-0.061035
2703662083,0.00326538,0.00733948,-1.00654602,0.488281,0.122070,-0.122070
2708720583,0.00312805,0.00683594,-1.00704956,0.366211,0.000000,-0.122070
2713700916,0.00309753,0.00648499,-1.00703430,0.427246,0.122070,-0.061035
2718717875,0.00299072,0.00656128,-1.00685120,0.305176,0.183105,0.000000
2723701000,0.00274658,0.00709534,-1.00698853,0.366211,0.061035,-0.061035
2728697125,0.00270081,0.00750732,-1.00682068,0.244141,0.061035,-0.122070
2733699541,0.00263977,0.00726318,-1.00598145,0.305176,0.061035,-0.061035
2738738000,0.00233459,0.00685120,-1.00558472,0.305176,0.061035,-0.061035
2743709041,0.00212097,0.00668335,-1.00593567,0.305176,0.183105,-0.122070
2748724416,0.00222778,0.00668335,-1.00613403,0.305176,-0.061035,-0.122070
2753717791,0.00212097,0.00686646,-1.00599670,0.305176,0.061035,-0.061035
2758723708,0.00157166,0.00700378,-1.00601196,0.305176,0.122070,-0.061035
2763718708,0.00123596,0.00695801,-1.00637817,0.366211,0.122070,-0.122070
2768723000,0.00126648,0.00711060,-1.00679016,0.549316,0.122070,-0.122070
2773721875,0.00108337,0.00755310,-1.00698853,0.427246,0.183105,0.122070
2778729291,0.00057983,0.00784302,-1.00715637,0.305176,0.061035,-0.061035
2783709958,0.00044250,0.00781250,-1.00718689,0.366211,0.061035,-0.122070
2788792166,0.00090027,0.00753784,-1.00698853,0.305176,0.122070,-0.061035
2793737041,0.00128174,0.00727844,-1.00674438,0.366211,0.061035,0.000000
2798776541,0.00123596,0.00706482,-1.00668335,0.427246,0.183105,-0.061035
2803679958,0.00126648,0.00703430,-1.00679016,0.305176,0.122070,-0.122070
2808736291,0.00160217,0.00737000,-1.00675964,0.427246,0.061035,-0.061035
2813723250,0.00192261,0.00765991,-1.00634766,0.427246,0.122070,-0.061035
2818733791,0.00201416,0.00749207,-1.00561523,0.366211,0.061035,-0.183105
2823748250,0.00210571,0.00720215,-1.00527954,0.366211,0.122070,-0.061035
2828727250,0.00231934,0.00715637,-1.00573730,0.366211,0.122070,0.000000
2833742875,0.00245667,0.00709534,-1.00628662,0.366211,0.000000,-0.183105
2838738750,0.00247192,0.00692749,-1.00657654,0.305176,0.000000,-0.183105
2843715208,0.00244141,0.00694275,-1.00665283,0.305176,0.000000,0.000000
2848733166,0.00247192,0.00683594,-1.00634766,0.305176,0.061035,0.061035
2853721875,0.00268555,0.00627136,-1.00588989,0.305176,-0.122070,-0.122070
2858745875,0.00289917,0.00581360,-1.00588989,0.366211,0.061035,-0.061035
2863752375,0.00279236,0.00573730,-1.00662231,0.305176,0.122070,-0.061035
2868729250,0.00245667,0.00582886,-1.00726318,0.244141,0.122070,-0.183105
2873719791,0.00245667,0.00587463,-1.00721741,0.305176,0.061035,-0.183105
2878723333,0.00294495,0.00601196,-1.00685120,0.305176,0.000000,-0.061035
2883752916,0.00325012,0.00637817,-1.00651550,0.366211,0.183105,0.000000
2888750625,0.00302124,0.00674438,-1.00640869,0.427246,0.000000,-0.183105
2893777791,0.00251770,0.00688171,-1.00659180,0.244141,0.122070,-0.183105
2898765291,0.00196838,0.00685120,-1.00663757,0.305176,0.061035,-0.122070
2903688083,0.00161743,0.00683594,-1.00625610,0.427246,0.061035,-0.122070
2908736375,0.00167847,0.00695801,-1.00584412,0.366211,0.000000,-0.183105
2913742666,0.00172424,0.00718689,-1.00559998,0.305176,0.122070,-0.122070
2918753458,0.00172424,0.00723267,-1.00549316,0.305176,0.000000,0.000000
2923731875,0.00199890,0.00727844,-1.00588989,0.305176,0.000000,-0.061035
2928755583,0.00224304,0.00773621,-1.00674438,0.427246,-0.061035,0.000000
2933736541,0.00210571,0.00817871,-1.00727844,0.366211,0.061035,0.000000
2938754875,0.00177002,0.00823975,-1.00709534,0.183105,0.061035,-0.183105
2943723750,0.00122070,0.00793457,-1.00660706,0.305176,-0.061035,-0.122070
2948731500,0.00071716,0.00746155,-1.00631714,0.366211,0.061035,-0.122070
2953721875,0.00091553,0.00701904,-1.00621033,0.427246,0.000000,-0.183105
2958768166,0.00177002,0.00695801,-1.00628662,0.244141,0.061035,-0.061035
2963733958,0.00215149,0.00732422,-1.00662231,0.305176,0.061035,-0.061035
2968763583,0.00166321,0.00758362,-1.00688171,0.305176,0.061035,-0.183105
2973742708,0.00152588,0.00758362,-1.00686646,0.427246,0.183105,-0.122070
2978746125,0.00253296,0.00758362,-1.00656128,0.244141,-0.061035,-0.061035
2983750583,0.00366211,0.00737000,-1.00616455,0.305176,0.183105,0.000000
2988773375,0.00384521,0.00689697,-1.00601196,0.305176,-0.061035,0.000000
2993774125,0.00331116,0.00636292,-1.00610352,0.366211,0.000000,-0.183105
2998814333,0.00257874,0.00602722,-1.00646973,0.366211,0.061035,0.000000
3003696875,0.00218201,0.00611877,-1.00679016,0.488281,0.000000,-0.061035
3008762375,0.00227356,0.00631714,-1.00657654,0.305176,0.061035,-0.183105
3013749041,0.00239563,0.00637817,-1.00588989,0.366211,0.061035,0.000000
3018749500,0.00238037,0.00640869,-1.00573730,0.366211,0.122070,-0.061035
3023763166,0.00254822,0.00672913,-1.00640869,0.366211,0.122070,-0.122070
3028716750,0.00283813,0.00709534,-1.00695801,0.366211,0.122070,-0.061035
3033773333,0.00288391,0.00703430,-1.00668335,0.366211,0.122070,0.000000
3038751458,0.00257874,0.00668335,-1.00625610,0.366211,-0.061035,-0.061035
3043761166,0.00215149,0.00663757,-1.00660706,0.366211,-0.061035,-0.122070
3048774083,0.00193787,0.00703430,-1.00721741,0.427246,0.183105,0.000000
3053767416,0.00209045,0.00735474,-1.00723267,0.427246,0.000000,-0.061035
3058801916,0.00236511,0.00737000,-1.00683594,0.244141,0.061035,-0.061035
3063736833,0.00233459,0.00712585,-1.00666809,0.305176,0.305176,-0.183105
3068767250,0.00198364,0.00674438,-1.00657654,0.427246,0.061035,-0.183105
3073758875,0.00181580,0.00663757,-1.00624084,0.305176,0.183105,-0.122070
3078759541,0.00192261,0.00685120,-1.00592041,0.488281,0.000000,-0.061035
3083762541,0.00199890,0.00721741,-1.00601196,0.427246,0.061035,-0.061035
3088762833,0.00199890,0.00752258,-1.00646973,0.366211,0.000000,-0.122070
3093789833,0.00219727,0.00749207,-1.00677490,0.366211,-0.061035,-0.061035
3098793875,0.00230408,0.00733948,-1.00668335,0.244141,0.122070,-0.122070
3103718458,0.00189209,0.00727844,-1.00639343,0.366211,0.061035,0.000000
3108762250,0.00155640,0.00729370,-1.00642395,0.305176,-0.061035,-0.122070
3113760166,0.00170898,0.00730896,-1.00671387,0.244141,0.000000,0.000000
3118761166,0.00213623,0.00730896,-1.00669861,0.305176,0.000000,-0.061035
3123801333,0.00245667,0.00727844,-1.00625610,0.244141,0.000000,-0.122070
3128757750,0.00263977,0.00695801,-1.00590515,0.183105,0.000000,-0.183105
3133777166,0.00265503,0.00640869,-1.00599670,0.183105,0.061035,0.000000
3138785375,0.00260925,0.00610352,-1.00625610,0.305176,0.122070,-0.061035
3143742125,0.00270081,0.00636292,-1.00659180,0.488281,0.000000,-0.122070
3148773000,0.00306702,0.00677490,-1.00706482,0.305176,0.061035,-0.122070
3153811291,0.00326538,0.00695801,-1.00730896,0.427246,0.122070,-0.061035
3158795541,0.00309753,0.00697327,-1.00703430,0.305176,0.061035,-0.122070
3163805583,0.00289917,0.00704956,-1.00645447,0.244141,0.061035,-0.061035
3168808916,0.00277710,0.00708008,-1.00622559,0.305176,0.061035,0.000000
3173756708,0.00257874,0.00726318,-1.00682068,0.244141,0.061035,-0.122070
3178785666,0.00242615,0.00738525,-1.00738525,0.366211,-0.061035,-0.122070
3183777291,0.00227356,0.00685120,-1.00695801,0.427246,0.183105,0.000000
3188853666,0.00180054,0.00616455,-1.00599670,0.427246,0.000000,0.000000
3193776166,0.00131226,0.00613403,-1.00535583,0.366211,-0.061035,-0.183105
3198819333,0.00154114,0.00659180,-1.00531006,0.305176,0.183105,0.000000
3203787708,0.00215149,0.00688171,-1.00569153,0.366211,0.183105,-0.122070
3208784500,0.00213623,0.00697327,-1.00633240,0.305176,0.122070,-0.122070
3213793750,0.00166321,0.00700378,-1.00698853,0.488281,0.122070,-0.122070
3218788125,0.00151062,0.00694275,-1.00721741,0.305176,-0.061035,-0.061035
3223782000,0.00183105,0.00695801,-1.00683594,0.427246,0.061035,0.000000
3228730333,0.00221252,0.00708008,-1.00627136,0.427246,0.061035,-0.122070
3233783000,0.00216675,0.00682068,-1.00608826,0.427246,0.183105,-0.061035
3238817666,0.00172424,0.00625610,-1.00645447,0.244141,-0.061035,-0.183105
3243776416,0.00137329,0.00619507,-1.00675964,0.183105,0.061035,-0.122070
3248798416,0.00119019,0.00657654,-1.00660706,0.305176,0.000000,-0.122070
3253783166,0.00114441,0.00671387,-1.00637817,0.305176,0.183105,-0.122070
3258790791,0.00157166,0.00666809,-1.00630188,0.366211,0.061035,-0.183105
3263779166,0.00234985,0.00688171,-1.00624084,0.366211,0.122070,-0.061035
3268826333,0.00285339,0.00735474,-1.00621033,0.244141,0.061035,0.000000
3273788458,0.00277710,0.00761414,-1.00656128,0.366211,0.000000,-0.122070
3278764958,0.00257874,0.00715637,-1.00700378,0.305176,0.000000,-0.061035
3283801708,0.00270081,0.00636292,-1.00680542,0.427246,0.061035,-0.122070
3288815208,0.00282288,0.00631714,-1.00616455,0.305176,-0.061035,-0.061035
3293802125,0.00277710,0.00692749,-1.00587463,0.305176,-0.061035,-0.122070
3298813458,0.00260925,0.00727844,-1.00634766,0.305176,0.061035,0.000000
3303906333,0.00210571,0.00709534,-1.00740051,0.305176,-0.061035,-0.061035
3308888583,0.00143433,0.00692749,-1.00814819,0.244141,0.183105,-0.061035
3313789416,0.00082397,0.00729370,-1.00732422,0.366211,0.244141,-0.183105
3318843416,0.00048828,0.00794983,-1.00559998,0.488281,0.122070,-0.122070
3323799666,0.00062561,0.00830078,-1.00506592,0.305176,0.061035,-0.122070
3328786958,0.00108337,0.00799561,-1.00616455,0.366211,0.000000,-0.061035
3333795166,0.00131226,0.00740051,-1.00776672,0.244141,0.000000,-0.183105
3338795458,0.00128174,0.00726318,-1.00849915,0.305176,0.000000,-0.061035
3343805833,0.00167847,0.00759888,-1.00779724,0.427246,0.000000,-0.061035
3348813791,0.00239563,0.00785828,-1.00639343,0.427246,0.000000,-0.061035
3353803250,0.00260925,0.00798035,-1.00543213,0.305176,0.000000,-0.061035
3358832541,0.00262451,0.00804138,-1.00547791,0.305176,0.000000,-0.183105
3363802791,0.00267029,0.00801086,-1.00631714,0.244141,0.000000,-0.122070
3368839708,0.00222778,0.00802612,-1.00747681,0.305176,0.061035,-0.122070
3373784958,0.00151062,0.00784302,-1.00811768,0.427246,0.122070,-0.061035
3378974416,0.00125122,0.00744629,-1.00784302,0.183105,0.122070,-0.122070
3383809083,0.00131226,0.00735474,-1.00740051,0.244141,0.061035,0.061035
3388801791,0.00117493,0.00761414,-1.00740051,0.366211,0.061035,0.061035
3393810541,0.00094604,0.00769043,-1.00750732,0.366211,0.000000,0.000000
3398828666,0.00119019,0.00746155,-1.00691223,0.366211,0.061035,-0.061035
3403828000,0.00173950,0.00729370,-1.00602722,0.244141,0.061035,-0.061035
3408805291,0.00202942,0.00743103,-1.00585938,0.305176,0.122070,-0.183105
3413865166,0.00210571,0.00787354,-1.00646973,0.305176,0.122070,-0.061035
3418823041,0.00227356,0.00805664,-1.00708008,0.427246,0.000000,-0.122070
3423856166,0.00233459,0.00756836,-1.00712585,0.610352,0.000000,-0.061035
3428779041,0.00213623,0.00698853,-1.00677490,0.366211,0.183105,-0.122070
3433819750,0.00193787,0.00695801,-1.00685120,0.305176,0.000000,-0.061035
3438821916,0.00190735,0.00703430,-1.00746155,0.488281,0.061035,-0.061035
3443814250,0.00207520,0.00663757,-1.00762939,0.366211,0.000000,-0.061035
3448826000,0.00231934,0.00648499,-1.00691223,0.183105,0.183105,-0.061035
3453819000,0.00233459,0.00694275,-1.00628662,0.427246,0.122070,-0.061035
3458826000,0.00218201,0.00717163,-1.00648499,0.305176,0.122070,-0.122070
3463822333,0.00238037,0.00679016,-1.00697327,0.366211,0.122070,0.000000
3468850041,0.00280762,0.00653076,-1.00727844,0.427246,0.122070,-0.061035
3473808041,0.00296021,0.00675964,-1.00698853,0.305176,0.122070,-0.183105
3479084041,0.00268555,0.00688171,-1.00627136,0.305176,0.000000,-0.061035
3483813583,0.00250244,0.00674438,-1.00579834,0.488281,0.061035,0.000000
3488825875,0.00267029,0.00672913,-1.00563049,0.427246,0.122070,-0.061035
3493795166,0.00262451,0.00679016,-1.00553894,0.244141,0.061035,-0.122070
3498810583,0.00227356,0.00668335,-1.00564575,0.488281,0.061035,-0.122070
3503809250,0.00225830,0.00643921,-1.00604248,0.366211,0.183105,0.061035
3508827916,0.00254822,0.00665283,-1.00674438,0.366211,0.061035,-0.122070
3513819500,0.00239563,0.00738525,-1.00767517,0.366211,0.122070,0.000000
3518910958,0.00210571,0.00762939,-1.00839233,0.244141,0.000000,-0.183105
3523807041,0.00224304,0.00717163,-1.00791931,0.244141,0.061035,-0.122070
3528830791,0.00224304,0.00677490,-1.00637817,0.366211,0.061035,-0.061035
3533829333,0.00157166,0.00679016,-1.00555420,0.427246,0.061035,-0.061035
3538869250,0.00108337,0.00724792,-1.00616455,0.244141,0.000000,-0.061035
3543835666,0.00111389,0.00787354,-1.00662231,0.305176,0.061035,-0.122070
3548819750,0.00119019,0.00805664,-1.00640869,0.366211,0.061035,-0.122070
3553822875,0.00141907,0.00776672,-1.00643921,0.305176,0.000000,-0.061035
3558863666,0.00180054,0.00741577,-1.00694275,0.549316,0.183105,-0.061035
3563853916,0.00209045,0.00688171,-1.00723267,0.305176,0.000000,-0.183105
3568854500,0.00230408,0.00628662,-1.00674438,0.305176,0.061035,-0.122070
3573814458,0.00233459,0.00624084,-1.00582886,0.244141,0.122070,-0.061035
3579337750,0.00238037,0.00657654,-1.00563049,0.305176,0.000000,0.000000
3583823291,0.00273132,0.00665283,-1.00624084,0.305176,0.061035,-0.183105
3588851041,0.00320435,0.00663757,-1.00657654,0.488281,0.000000,0.000000
3593855625,0.00344849,0.00672913,-1.00636292,0.244141,0.061035,-0.122070
3598877000,0.00329590,0.00656128,-1.00582886,0.427246,0.061035,-0.061035
3603915791,0.00273132,0.00614929,-1.00546265,0.305176,0.061035,-0.061035
3608854541,0.00212097,0.00607300,-1.00559998,0.488281,0.061035,-0.061035
3613827250,0.00193787,0.00646973,-1.00605774,0.366211,0.061035,0.000000
3618845125,0.00219727,0.00683594,-1.00656128,0.305176,0.122070,-0.122070
3623878916,0.00241089,0.00697327,-1.00674438,0.305176,0.000000,-0.183105
3628841833,0.00219727,0.00724792,-1.00639343,0.244141,0.000000,-0.122070
3633863250,0.00178528,0.00764465,-1.00584412,0.488281,0.061035,0.000000
3638854458,0.00186157,0.00767517,-1.00553894,0.366211,0.122070,-0.122070
3643848791,0.00215149,0.00758362,-1.00581360,0.244141,0.000000,-0.244141
3648862416,0.00195312,0.00784302,-1.00662231,0.305176,0.061035,0.000000
3653867500,0.00135803,0.00819397,-1.00729370,0.244141,0.061035,-0.061035
3658850666,0.00103760,0.00808716,-1.00746155,0.427246,-0.061035,-0.244141
3663890291,0.00123596,0.00743103,-1.00723267,0.244141,-0.061035,-0.122070
3668893500,0.00164795,0.00663757,-1.00685120,0.366211,0.122070,-0.061035
3673845750,0.00189209,0.00637817,-1.00665283,0.244141,-0.061035,0.000000
3679006583,0.00184631,0.00662231,-1.00654602,0.305176,0.061035,-0.122070
3683842291,0.00195312,0.00688171,-1.00650024,0.366211,0.000000,-0.061035
3688863000,0.00228882,0.00708008,-1.00682068,0.366211,0.061035,-0.122070
3693865541,0.00239563,0.00735474,-1.00709534,0.427246,0.000000,0.000000
3698891041,0.00228882,0.00772095,-1.00669861,0.305176,0.000000,-0.122070
3703853625,0.00227356,0.00811768,-1.00640869,0.305176,0.061035,0.000000
3708876708,0.00207520,0.00840759,-1.00679016,0.305176,0.122070,-0.122070
3713865125,0.00175476,0.00834656,-1.00729370,0.366211,0.000000,-0.061035
3718880875,0.00199890,0.00807190,-1.00720215,0.366211,0.122070,0.000000
3723899291,0.00245667,0.00791931,-1.00639343,0.244141,0.061035,-0.122070
3728897958,0.00227356,0.00765991,-1.00572205,0.366211,0.061035,-0.122070
3733868375,0.00166321,0.00735474,-1.00598145,0.427246,0.061035,-0.183105
3738871416,0.00132751,0.00711060,-1.00677490,0.244141,0.061035,-0.061035
3744108750,0.00163269,0.00688171,-1.00729370,0.305176,0.061035,-0.061035
3748868416,0.00222778,0.00665283,-1.00712585,0.244141,0.122070,0.000000
3753829666,0.00267029,0.00650024,-1.00637817,0.427246,-0.061035,-0.183105
3758884083,0.00303650,0.00668335,-1.00543213,0.244141,0.061035,-0.122070
3763880500,0.00334167,0.00708008,-1.00509644,0.427246,0.000000,-0.061035
3768849791,0.00337219,0.00738525,-1.00561523,0.366211,0.122070,-0.061035
3773874875,0.00276184,0.00762939,-1.00627136,0.305176,0.122070,-0.183105
3778901041,0.00184631,0.00779724,-1.00656128,0.305176,0.061035,-0.061035
3783877916,0.00167847,0.00782776,-1.00668335,0.305176,0.000000,-0.061035
3788896375,0.00245667,0.00775146,-1.00682068,0.427246,0.061035,-0.061035
3793891416,0.00325012,0.00741577,-1.00679016,0.244141,0.061035,-0.061035
3798908750,0.00352478,0.00700378,-1.00654602,0.427246,0.244141,0.000000
3803888458,0.00344849,0.00692749,-1.00619507,0.305176,0.122070,0.000000
3808876000,0.00311279,0.00715637,-1.00566101,0.549316,0.000000,0.061035
3813881375,0.00263977,0.00724792,-1.00531006,0.305176,0.000000,-0.122070
3818877875,0.00241089,0.00701904,-1.00553894,0.366211,0.000000,-0.122070
3823884375,0.00248718,0.00682068,-1.00613403,0.183105,-0.061035,-0.061035
3828873958,0.00256348,0.00694275,-1.00665283,0.427246,-0.061035,-0.061035
3833907708,0.00259399,0.00732422,-1.00648499,0.427246,0.183105,0.000000
3838906083,0.00238037,0.00735474,-1.00588989,0.244141,0.122070,0.000000
3843881208,0.00218201,0.00685120,-1.00572205,0.427246,0.122070,-0.061035
3848893500,0.00245667,0.00653076,-1.00587463,0.305176,0.183105,0.000000
3853879416,0.00277710,0.00666809,-1.00582886,0.305176,0.122070,-0.061035
3858916750,0.00244141,0.00677490,-1.00596619,0.366211,0.122070,-0.061035
3863890208,0.00181580,0.00657654,-1.00631714,0.366211,0.061035,-0.061035
3868894041,0.00166321,0.00633240,-1.00636292,0.549316,0.183105,0.000000
3873868666,0.00175476,0.00650024,-1.00592041,0.305176,0.000000,-0.183105
3878892500,0.00192261,0.00714111,-1.00572205,0.244141,0.000000,-0.183105
3883875250,0.00231934,0.00770569,-1.00624084,0.366211,0.061035,-0.061035
3888913166,0.00233459,0.00759888,-1.00675964,0.488281,0.000000,-0.122070
3893902125,0.00184631,0.00698853,-1.00671387,0.366211,0.061035,0.000000
3898900875,0.00164795,0.00688171,-1.00633240,0.305176,0.000000,-0.122070
3903889541,0.00183105,0.00778198,-1.00598145,0.427246,0.183105,-0.122070
3908902458,0.00186157,0.00823975,-1.00582886,0.366211,0.000000,-0.122070
3913886166,0.00183105,0.00733948,-1.00588989,0.366211,0.061035,-0.122070
3918911250,0.00199890,0.00654602,-1.00624084,0.366211,0.000000,-0.122070
3923913458,0.00225830,0.00677490,-1.00669861,0.427246,0.000000,0.000000
3928911875,0.00257874,0.00709534,-1.00704956,0.305176,0.061035,0.000000
3933935375,0.00270081,0.00708008,-1.00711060,0.366211,0.061035,-0.122070
3938901458,0.00274658,0.00714111,-1.00675964,0.305176,0.000000,0.000000
3943886375,0.00302124,0.00727844,-1.00651550,0.549316,0.122070,-0.122070
3948897291,0.00309753,0.00720215,-1.00645447,0.366211,0.061035,-0.122070
3953872416,0.00282288,0.00703430,-1.00640869,0.305176,0.122070,0.061035
3958918000,0.00271606,0.00711060,-1.00636292,0.244141,0.061035,-0.061035
3963907500,0.00270081,0.00721741,-1.00639343,0.427246,0.122070,0.000000
3968915583,0.00221252,0.00688171,-1.00656128,0.366211,0.000000,-0.183105
3973880458,0.00154114,0.00625610,-1.00675964,0.244141,0.000000,-0.061035
3978900541,0.00151062,0.00614929,-1.00669861,0.427246,0.000000,0.000000
3983904791,0.00201416,0.00668335,-1.00646973,0.366211,0.122070,-0.122070
3988902333,0.00202942,0.00721741,-1.00646973,0.244141,0.061035,-0.061035
3993905458,0.00146484,0.00712585,-1.00671387,0.366211,0.061035,0.061035
3998918625,0.00117493,0.00659180,-1.00685120,0.427246,0.061035,-0.183105
4003906000,0.00138855,0.00627136,-1.00669861,0.366211,0.061035,-0.061035
4008913708,0.00177002,0.00631714,-1.00651550,0.366211,0.000000,0.000000
4013902375,0.00215149,0.00669861,-1.00648499,0.427246,0.000000,0.000000
4018914541,0.00228882,0.00718689,-1.00674438,0.488281,0.061035,-0.061035
4023888666,0.00219727,0.00737000,-1.00712585,0.488281,0.183105,-0.122070
4028898208,0.00251770,0.00735474,-1.00718689,0.488281,0.061035,0.000000
4033869791,0.00299072,0.00729370,-1.00683594,0.427246,0.061035,-0.061035
4038886750,0.00289917,0.00704956,-1.00643921,0.366211,0.000000,0.000000
4043875833,0.00276184,0.00677490,-1.00630188,0.427246,0.000000,0.000000
4048900500,0.00279236,0.00679016,-1.00624084,0.366211,0.061035,-0.122070
4053897250,0.00260925,0.00706482,-1.00616455,0.427246,0.122070,-0.183105
4058924458,0.00239563,0.00729370,-1.00637817,0.427246,0.000000,-0.183105
4063914041,0.00236511,0.00717163,-1.00662231,0.366211,0.122070,-0.122070
4068916833,0.00242615,0.00668335,-1.00653076,0.366211,-0.061035,-0.061035
4073956916,0.00247192,0.00627136,-1.00636292,0.244141,0.122070,-0.061035
4078907041,0.00273132,0.00614929,-1.00633240,0.366211,0.122070,-0.122070
4083910125,0.00309753,0.00642395,-1.00650024,0.305176,-0.061035,-0.122070
4088977458,0.00277710,0.00698853,-1.00665283,0.366211,0.061035,0.061035
4093898166,0.00178528,0.00733948,-1.00648499,0.244141,0.122070,-0.183105
4098925500,0.00140381,0.00724792,-1.00628662,0.244141,-0.061035,-0.061035
4104060458,0.00210571,0.00698853,-1.00630188,0.366211,0.122070,-0.061035
4108937750,0.00271606,0.00701904,-1.00650024,0.427246,0.122070,-0.122070
4113910583,0.00259399,0.00711060,-1.00665283,0.305176,-0.061035,0.000000
4118932750,0.00233459,0.00697327,-1.00617981,0.305176,0.122070,-0.244141
4123968041,0.00209045,0.00691223,-1.00535583,0.366211,0.122070,-0.183105
4128929291,0.00152588,0.00724792,-1.00538635,0.488281,0.183105,0.061035
4133896833,0.00111389,0.00759888,-1.00621033,0.366211,0.183105,-0.122070
4138910375,0.00149536,0.00741577,-1.00682068,0.427246,0.183105,-0.244141
4143918666,0.00222778,0.00695801,-1.00686646,0.305176,0.000000,-0.061035
4148925208,0.00245667,0.00674438,-1.00659180,0.305176,0.000000,-0.183105
4153925208,0.00247192,0.00682068,-1.00634766,0.427246,0.061035,0.061035
4158934541,0.00253296,0.00718689,-1.00616455,0.488281,0.183105,0.000000
4163938583,0.00247192,0.00762939,-1.00602722,0.366211,0.183105,-0.122070
4168938291,0.00245667,0.00773621,-1.00631714,0.305176,0.000000,-0.183105
4173904458,0.00251770,0.00767517,-1.00695801,0.305176,-0.061035,-0.183105
4178917833,0.00221252,0.00770569,-1.00708008,0.305176,0.061035,-0.061035
4184070833,0.00184631,0.00762939,-1.00616455,0.366211,-0.061035,-0.122070
4188933208,0.00198364,0.00726318,-1.00546265,0.244141,0.061035,-0.061035
4193913041,0.00228882,0.00711060,-1.00599670,0.366211,0.183105,-0.061035
4198935083,0.00262451,0.00746155,-1.00689697,0.305176,0.000000,-0.122070
4203964416,0.00285339,0.00793457,-1.00680542,0.305176,0.000000,-0.122070
4208952000,0.00271606,0.00791931,-1.00592041,0.427246,0.061035,-0.183105
4213931083,0.00233459,0.00735474,-1.00534058,0.305176,0.061035,-0.122070
4218965375,0.00233459,0.00692749,-1.00543213,0.305176,-0.122070,-0.183105
4223932458,0.00282288,0.00703430,-1.00598145,0.549316,0.000000,0.000000
4228937000,0.00308228,0.00729370,-1.00672913,0.366211,0.000000,-0.183105
4233947666,0.00247192,0.00741577,-1.00717163,0.244141,-0.061035,-0.122070
4238970333,0.00140381,0.00749207,-1.00680542,0.427246,0.061035,-0.061035
4243976833,0.00068665,0.00735474,-1.00608826,0.366211,0.000000,0.000000
4248947333,0.00085449,0.00703430,-1.00598145,0.305176,0.183105,-0.061035
4253933041,0.00186157,0.00698853,-1.00668335,0.366211,-0.061035,-0.061035
4258952458,0.00305176,0.00720215,-1.00753784,0.366211,0.122070,-0.061035
4263924000,0.00360107,0.00733948,-1.00773621,0.366211,0.061035,0.061035
4268969166,0.00294495,0.00729370,-1.00714111,0.366211,0.061035,-0.061035
4273926333,0.00183105,0.00711060,-1.00660706,0.305176,0.000000,-0.122070
4278950875,0.00137329,0.00721741,-1.00680542,0.244141,0.000000,-0.122070
4283945666,0.00141907,0.00749207,-1.00700378,0.244141,0.061035,-0.122070
4288983041,0.00186157,0.00741577,-1.00685120,0.366211,0.122070,-0.122070
4293955958,0.00247192,0.00697327,-1.00706482,0.427246,0.000000,-0.122070
4298968166,0.00250244,0.00650024,-1.00741577,0.244141,0.061035,-0.122070
4303970458,0.00222778,0.00643921,-1.00697327,0.244141,0.061035,-0.061035
4308960041,0.00230408,0.00651550,-1.00631714,0.305176,0.061035,-0.122070
4313934000,0.00265503,0.00643921,-1.00634766,0.305176,0.061035,-0.122070
4318942791,0.00276184,0.00643921,-1.00674438,0.305176,0.183105,-0.122070
4323962791,0.00276184,0.00683594,-1.00692749,0.366211,0.000000,-0.122070
4328980375,0.00297546,0.00746155,-1.00691223,0.427246,0.000000,-0.061035
4333953750,0.00318909,0.00772095,-1.00694275,0.427246,0.183105,-0.061035
4338950000,0.00286865,0.00749207,-1.00686646,0.488281,0.000000,-0.183105
4343953125,0.00247192,0.00715637,-1.00659180,0.366211,0.061035,-0.061035
4348958250,0.00256348,0.00704956,-1.00648499,0.427246,0.122070,-0.122070
4353950333,0.00238037,0.00737000,-1.00665283,0.427246,0.000000,-0.061035
4358958875,0.00140381,0.00781250,-1.00675964,0.366211,0.061035,0.000000
4363951125,0.00080872,0.00813293,-1.00685120,0.244141,0.122070,-0.061035
4368959458,0.00134277,0.00825500,-1.00697327,0.427246,0.000000,-0.122070
4373956125,0.00221252,0.00805664,-1.00694275,0.305176,0.061035,-0.061035
4378975958,0.00260925,0.00781250,-1.00685120,0.244141,0.122070,-0.061035
4383956708,0.00280762,0.00772095,-1.00674438,0.366211,0.061035,0.000000
4388981916,0.00303650,0.00752258,-1.00682068,0.305176,0.122070,-0.183105
4393960791,0.00308228,0.00715637,-1.00694275,0.366211,0.061035,-0.122070
4398998125,0.00291443,0.00715637,-1.00660706,0.366211,0.122070,-0.122070
4403962666,0.00267029,0.00744629,-1.00622559,0.244141,0.061035,-0.061035
4408966875,0.00265503,0.00743103,-1.00608826,0.305176,-0.061035,-0.061035
4413959791,0.00271606,0.00721741,-1.00592041,0.305176,0.061035,-0.061035
4418989583,0.00257874,0.00703430,-1.00598145,0.427246,0.183105,0.000000
4423971500,0.00251770,0.00708008,-1.00660706,0.183105,0.000000,-0.061035
4429007833,0.00259399,0.00752258,-1.00718689,0.366211,0.122070,-0.244141
4433967625,0.00244141,0.00769043,-1.00700378,0.366211,0.000000,0.061035
4438974166,0.00242615,0.00701904,-1.00613403,0.305176,-0.061035,-0.244141
4443960250,0.00285339,0.00611877,-1.00555420,0.305176,0.061035,-0.122070
4448960541,0.00270081,0.00576782,-1.00592041,0.427246,0.061035,-0.183105
4453951875,0.00170898,0.00610352,-1.00663757,0.427246,0.183105,-0.122070
4458979000,0.00111389,0.00672913,-1.00675964,0.427246,0.244141,-0.061035
4463975041,0.00143433,0.00714111,-1.00625610,0.244141,0.061035,-0.183105
4468985833,0.00198364,0.00729370,-1.00572205,0.427246,0.000000,-0.061035
4473981375,0.00222778,0.00750732,-1.00579834,0.305176,0.000000,-0.122070
4478980875,0.00212097,0.00772095,-1.00627136,0.183105,0.000000,0.000000
4484022791,0.00195312,0.00765991,-1.00683594,0.244141,0.000000,-0.061035
4488993833,0.00190735,0.00753784,-1.00720215,0.244141,-0.061035,0.000000
4493957416,0.00193787,0.00756836,-1.00695801,0.305176,0.061035,-0.061035
4498976458,0.00201416,0.00721741,-1.00625610,0.366211,0.000000,-0.122070
4503964833,0.00238037,0.00645447,-1.00579834,0.305176,0.061035,-0.061035
4508979083,0.00289917,0.00619507,-1.00578308,0.366211,0.183105,0.000000
4513957833,0.00296021,0.00680542,-1.00607300,0.366211,0.000000,-0.061035
4518988000,0.00260925,0.00747681,-1.00648499,0.244141,0.000000,-0.061035
4523955083,0.00241089,0.00755310,-1.00633240,0.427246,0.000000,-0.061035
4528983291,0.00257874,0.00729370,-1.00555420,0.305176,0.061035,-0.122070
4534025291,0.00292969,0.00694275,-1.00529480,0.305176,0.000000,-0.061035
4539008916,0.00302124,0.00640869,-1.00567627,0.366211,-0.061035,0.000000
4543984958,0.00251770,0.00601196,-1.00613403,0.366211,0.061035,-0.061035
4548997166,0.00180054,0.00613403,-1.00614929,0.366211,0.122070,-0.061035
4554030166,0.00183105,0.00656128,-1.00576782,0.366211,0.000000,-0.061035
4558982666,0.00247192,0.00685120,-1.00561523,0.427246,0.000000,-0.061035
4563994583,0.00260925,0.00691223,-1.00569153,0.305176,0.122070,-0.122070
4568991916,0.00219727,0.00703430,-1.00575256,0.488281,0.183105,-0.061035
4573972333,0.00207520,0.00718689,-1.00608826,0.549316,0.122070,-0.061035
4578990333,0.00236511,0.00708008,-1.00671387,0.366211,0.000000,-0.122070
4583989333,0.00273132,0.00692749,-1.00683594,0.366211,0.122070,-0.061035
4589000916,0.00288391,0.00697327,-1.00619507,0.488281,0.000000,-0.061035
4593995375,0.00270081,0.00730896,-1.00563049,0.366211,0.122070,-0.061035
4599006291,0.00244141,0.00787354,-1.00596619,0.305176,0.061035,-0.061035
4603990208,0.00215149,0.00810242,-1.00686646,0.244141,0.244141,-0.061035
4609006708,0.00177002,0.00764465,-1.00729370,0.305176,0.183105,0.122070
4613999083,0.00187683,0.00712585,-1.00677490,0.366211,0.061035,-0.061035
4618995500,0.00241089,0.00709534,-1.00598145,0.183105,0.000000,-0.122070
4624014166,0.00250244,0.00726318,-1.00569153,0.244141,0.000000,-0.122070
4629010541,0.00213623,0.00715637,-1.00579834,0.305176,0.000000,-0.122070
4634009791,0.00189209,0.00680542,-1.00588989,0.366211,0.122070,-0.061035
4638994291,0.00187683,0.00683594,-1.00590515,0.244141,0.122070,0.000000
4643998458,0.00192261,0.00712585,-1.00587463,0.427246,0.122070,0.061035
4648992500,0.00186157,0.00691223,-1.00593567,0.366211,0.061035,0.061035
4654019000,0.00195312,0.00625610,-1.00636292,0.244141,0.061035,-0.061035
4659060291,0.00209045,0.00599670,-1.00723267,0.305176,0.183105,-0.122070
4664014125,0.00202942,0.00637817,-1.00785828,0.305176,0.061035,0.000000
4669047208,0.00189209,0.00712585,-1.00762939,0.488281,0.000000,0.061035
4673993000,0.00189209,0.00749207,-1.00674438,0.427246,0.000000,-0.122070
4679015000,0.00219727,0.00735474,-1.00582886,0.305176,0.183105,-0.061035
4684002791,0.00286865,0.00706482,-1.00552368,0.366211,0.061035,-0.061035
4689037708,0.00328064,0.00651550,-1.00585938,0.366211,0.122070,-0.183105
4694021375,0.00289917,0.00619507,-1.00640869,0.488281,0.061035,0.000000
4699012208,0.00212097,0.00648499,-1.00668335,0.427246,0.122070,-0.061035
4704023000,0.00157166,0.00698853,-1.00654602,0.305176,0.000000,-0.061035
4709052041,0.00137329,0.00770569,-1.00633240,0.366211,0.122070,0.061035
4713993000,0.00125122,0.00827026,-1.00614929,0.488281,0.122070,-0.122070
4719023916,0.00108337,0.00807190,-1.00616455,0.366211,0.061035,-0.122070
4724033125,0.00131226,0.00721741,-1.00650024,0.305176,0.122070,0.000000
4729042125,0.00198364,0.00636292,-1.00701904,0.366211,-0.061035,0.000000
4733991500,0.00265503,0.00628662,-1.00729370,0.366211,0.000000,-0.061035
4739008583,0.00279236,0.00686646,-1.00700378,0.488281,0.061035,-0.122070
4744015875,0.00222778,0.00715637,-1.00614929,0.305176,0.061035,0.000000
4749023083,0.00144958,0.00698853,-1.00529480,0.244141,0.000000,-0.061035
4754001916,0.00117493,0.00679016,-1.00537109,0.305176,0.000000,-0.183105
4759110916,0.00134277,0.00668335,-1.00624084,0.427246,0.122070,-0.122070
4764043916,0.00166321,0.00651550,-1.00683594,0.488281,0.061035,-0.061035
4769034166,0.00230408,0.00653076,-1.00672913,0.305176,0.061035,-0.061035
4774014458,0.00311279,0.00672913,-1.00654602,0.305176,0.061035,-0.122070
4779030416,0.00361633,0.00685120,-1.00656128,0.488281,0.061035,-0.183105
4784004583,0.00328064,0.00685120,-1.00640869,0.427246,0.061035,-0.122070
4789061291,0.00228882,0.00682068,-1.00637817,0.366211,0.122070,-0.122070
4794021041,0.00161743,0.00672913,-1.00660706,0.183105,0.000000,-0.122070
4799036458,0.00167847,0.00653076,-1.00651550,0.244141,0.000000,0.000000
4804043833,0.00198364,0.00665283,-1.00627136,0.366211,0.061035,-0.244141
4809039000,0.00222778,0.00740051,-1.00640869,0.366211,0.122070,0.000000
4814023000,0.00218201,0.00810242,-1.00656128,0.305176,0.122070,-0.061035
4819018416,0.00177002,0.00798035,-1.00656128,0.427246,0.061035,-0.122070
4824055500,0.00134277,0.00724792,-1.00683594,0.427246,0.061035,-0.183105
4829058708,0.00097656,0.00688171,-1.00723267,0.305176,0.000000,-0.061035
4834016666,0.00083923,0.00711060,-1.00738525,0.244141,-0.061035,0.000000
4839047625,0.00128174,0.00747681,-1.00698853,0.366211,0.000000,0.000000
4844024583,0.00186157,0.00775146,-1.00630188,0.305176,0.122070,-0.122070
4849027250,0.00209045,0.00784302,-1.00624084,0.488281,0.061035,-0.122070
4854012000,0.00210571,0.00772095,-1.00682068,0.427246,0.122070,-0.061035
4859050625,0.00204468,0.00747681,-1.00698853,0.366211,0.061035,0.000000
4864101083,0.00207520,0.00729370,-1.00645447,0.183105,0.000000,0.000000
4869074958,0.00245667,0.00726318,-1.00566101,0.427246,0.122070,0.000000
4874038875,0.00292969,0.00730896,-1.00527954,0.305176,0.183105,-0.061035
4879043291,0.00332642,0.00730896,-1.00579834,0.427246,0.122070,-0.122070
4884011375,0.00364685,0.00714111,-1.00665283,0.305176,-0.061035,-0.061035
4889080708,0.00341797,0.00672913,-1.00712585,0.305176,0.061035,-0.183105
4894034375,0.00241089,0.00654602,-1.00711060,0.305176,0.061035,0.061035
4899060083,0.00178528,0.00685120,-1.00685120,0.427246,0.000000,-0.122070
4904036708,0.00224304,0.00698853,-1.00645447,0.183105,0.061035,0.000000
4909046416,0.00288391,0.00666809,-1.00611877,0.366211,0.122070,-0.061035
4914041541,0.00289917,0.00637817,-1.00643921,0.488281,0.000000,-0.061035
4919041083,0.00218201,0.00651550,-1.00727844,0.244141,0.061035,-0.061035
4924068916,0.00128174,0.00665283,-1.00759888,0.427246,0.061035,-0.122070
4929089083,0.00105286,0.00660706,-1.00700378,0.366211,0.000000,-0.183105
4934061083,0.00151062,0.00685120,-1.00596619,0.305176,0.000000,0.000000
4939055041,0.00205994,0.00721741,-1.00526428,0.427246,0.061035,-0.061035
4944044791,0.00236511,0.00718689,-1.00546265,0.366211,0.122070,-0.061035
4949056791,0.00238037,0.00672913,-1.00628662,0.366211,0.183105,-0.061035
4954034375,0.00202942,0.00666809,-1.00657654,0.366211,0.122070,0.000000
4959076291,0.00151062,0.00733948,-1.00584412,0.305176,0.061035,0.000000
4964048500,0.00103760,0.00779724,-1.00526428,0.366211,0.000000,-0.122070
4969109833,0.00102234,0.00764465,-1.00549316,0.488281,0.000000,-0.122070
4974036000,0.00172424,0.00750732,-1.00592041,0.305176,0.122070,-0.183105
4979062375,0.00250244,0.00744629,-1.00608826,0.305176,0.061035,-0.244141
4984026125,0.00265503,0.00735474,-1.00599670,0.366211,0.000000,0.000000
4989077291,0.00234985,0.00729370,-1.00605774,0.427246,0.061035,-0.061035
4994045083,0.00209045,0.00727844,-1.00648499,0.183105,0.000000,-0.061035
4999058666,0.00207520,0.00721741,-1.00686646,0.305176,0.061035,-0.183105
5004051750,0.00205994,0.00724792,-1.00694275,0.366211,0.061035,-0.122070
5009075791,0.00216675,0.00746155,-1.00695801,0.366211,-0.061035,0.000000
5014050750,0.00245667,0.00743103,-1.00682068,0.366211,0.061035,-0.122070
5019052250,0.00279236,0.00691223,-1.00622559,0.244141,0.061035,-0.122070
5024081750,0.00292969,0.00643921,-1.00564575,0.305176,0.122070,-0.122070
5029072166,0.00276184,0.00624084,-1.00579834,0.244141,0.061035,-0.061035
5034050541,0.00248718,0.00608826,-1.00628662,0.305176,0.000000,-0.061035
5039069333,0.00228882,0.00607300,-1.00660706,0.366211,0.000000,-0.122070
5044046583,0.00207520,0.00631714,-1.00692749,0.427246,0.061035,-0.122070
5049063000,0.00184631,0.00679016,-1.00709534,0.244141,0.000000,-0.183105
5054081333,0.00158691,0.00706482,-1.00682068,0.427246,0.000000,-0.122070
5059060041,0.00143433,0.00695801,-1.00643921,0.549316,0.000000,-0.061035
5064058625,0.00137329,0.00671387,-1.00642395,0.427246,0.000000,0.000000
5069065625,0.00126648,0.00643921,-1.00656128,0.366211,0.061035,-0.122070
5074101125,0.00117493,0.00608826,-1.00631714,0.244141,-0.061035,-0.183105
5079071291,0.00103760,0.00585938,-1.00598145,0.305176,0.122070,-0.061035
5084230416,0.00086975,0.00608826,-1.00602722,0.366211,-0.061035,-0.183105
5089093500,0.00071716,0.00677490,-1.00605774,0.366211,0.000000,-0.061035
5094087125,0.00088501,0.00764465,-1.00575256,0.366211,0.061035,-0.183105
5099108666,0.00135803,0.00810242,-1.00569153,0.366211,0.183105,0.000000
5104080791,0.00183105,0.00790405,-1.00608826,0.244141,0.061035,-0.183105
5109075083,0.00204468,0.00749207,-1.00640869,0.305176,0.183105,-0.122070
5114076500,0.00221252,0.00717163,-1.00627136,0.366211,0.000000,-0.183105
5119081041,0.00256348,0.00694275,-1.00584412,0.366211,0.061035,-0.183105
5124103500,0.00265503,0.00689697,-1.00585938,0.305176,0.122070,-0.061035
5129110375,0.00228882,0.00706482,-1.00642395,0.366211,0.122070,0.061035
5134048666,0.00201416,0.00694275,-1.00685120,0.427246,0.061035,0.000000
5139081375,0.00201416,0.00636292,-1.00672913,0.244141,0.122070,-0.061035
5144090625,0.00219727,0.00605774,-1.00633240,0.305176,0.061035,-0.122070
5149078041,0.00256348,0.00653076,-1.00622559,0.366211,0.183105,-0.061035
5154109750,0.00276184,0.00709534,-1.00651550,0.244141,0.122070,-0.061035
5159092333,0.00262451,0.00697327,-1.00672913,0.183105,0.061035,-0.061035
5164088000,0.00270081,0.00657654,-1.00692749,0.366211,-0.061035,-0.244141
5169115291,0.00291443,0.00654602,-1.00701904,0.183105,0.000000,-0.244141
5174076875,0.00247192,0.00663757,-1.00686646,0.244141,0.061035,-0.122070
5179088000,0.00172424,0.00666809,-1.00643921,0.183105,0.000000,-0.122070
5184069916,0.00160217,0.00653076,-1.00598145,0.305176,0.000000,-0.122070
5189103125,0.00201416,0.00625610,-1.00570679,0.366211,0.061035,-0.122070
5194065458,0.00213623,0.00646973,-1.00552368,0.244141,0.000000,-0.122070
5199164666,0.00169373,0.00717163,-1.00558472,0.427246,-0.183105,-0.061035
5204078583,0.00123596,0.00755310,-1.00601196,0.366211,0.061035,-0.061035
5209076125,0.00141907,0.00703430,-1.00630188,0.305176,0.183105,-0.122070
5214086125,0.00205994,0.00634766,-1.00625610,0.366211,0.061035,-0.183105
5219078791,0.00228882,0.00627136,-1.00640869,0.244141,0.061035,-0.244141
5224108916,0.00204468,0.00672913,-1.00662231,0.244141,0.061035,0.000000
5229091958,0.00193787,0.00738525,-1.00657654,0.305176,0.122070,-0.061035
5234067958,0.00207520,0.00772095,-1.00659180,0.305176,0.000000,0.000000
5239087750,0.00207520,0.00759888,-1.00674438,0.366211,-0.061035,-0.183105
5244089083,0.00205994,0.00738525,-1.00668335,0.427246,0.122070,-0.061035
5249093250,0.00227356,0.00727844,-1.00631714,0.488281,0.183105,0.000000
5254075958,0.00263977,0.00729370,-1.00595093,0.366211,0.122070,-0.183105
5259092791,0.00288391,0.00737000,-1.00581360,0.366211,0.000000,-0.061035
5264105500,0.00277710,0.00750732,-1.00587463,0.305176,0.061035,-0.183105
5269129166,0.00259399,0.00738525,-1.00613403,0.366211,0.000000,0.000000
5274075333,0.00270081,0.00703430,-1.00636292,0.305176,0.122070,-0.061035
5279113166,0.00267029,0.00697327,-1.00656128,0.305176,0.000000,-0.122070
5284005625,0.00227356,0.00700378,-1.00685120,0.366211,0.000000,-0.122070
5289140750,0.00210571,0.00723267,-1.00706482,0.427246,0.122070,-0.061035
5294111041,0.00230408,0.00793457,-1.00694275,0.427246,0.061035,-0.122070
5299138291,0.00254822,0.00834656,-1.00683594,0.366211,-0.061035,-0.183105
5304106750,0.00273132,0.00788879,-1.00704956,0.183105,-0.061035,-0.122070
5309116166,0.00253296,0.00721741,-1.00698853,0.427246,0.061035,-0.183105
5314084541,0.00209045,0.00677490,-1.00643921,0.366211,0.061035,0.000000
5319114916,0.00187683,0.00679016,-1.00625610,0.366211,0.061035,0.061035
5324105708,0.00183105,0.00711060,-1.00651550,0.244141,0.061035,-0.061035
5329173250,0.00164795,0.00717163,-1.00648499,0.427246,0.000000,-0.183105
5334096541,0.00128174,0.00708008,-1.00608826,0.366211,0.122070,-0.183105
5339120625,0.00109863,0.00724792,-1.00592041,0.488281,0.000000,-0.061035
5344103833,0.00160217,0.00743103,-1.00613403,0.366211,0.061035,-0.122070
5349111916,0.00259399,0.00738525,-1.00630188,0.366211,0.061035,-0.122070
5354124875,0.00283813,0.00730896,-1.00602722,0.305176,0.000000,-0.061035
5359128750,0.00221252,0.00727844,-1.00582886,0.305176,0.000000,-0.122070
5364120125,0.00215149,0.00714111,-1.00651550,0.427246,0.000000,-0.122070
5369119125,0.00268555,0.00677490,-1.00740051,0.427246,0.061035,-0.061035
5374101916,0.00260925,0.00665283,-1.00752258,0.305176,-0.061035,-0.061035
5379112958,0.00224304,0.00692749,-1.00703430,0.244141,0.061035,-0.122070
5384225625,0.00242615,0.00721741,-1.00653076,0.366211,0.122070,-0.061035
5389127625,0.00305176,0.00714111,-1.00616455,0.305176,0.061035,-0.122070
5394151916,0.00328064,0.00706482,-1.00588989,0.244141,0.000000,-0.122070
5399152250,0.00251770,0.00708008,-1.00563049,0.305176,0.183105,-0.122070
5404105458,0.00138855,0.00683594,-1.00552368,0.366211,0.000000,-0.244141
5409113666,0.00100708,0.00663757,-1.00570679,0.305176,-0.061035,-0.122070
5414098458,0.00126648,0.00688171,-1.00608826,0.366211,0.183105,0.000000
5419130041,0.00158691,0.00709534,-1.00666809,0.366211,0.000000,-0.122070
5424153125,0.00183105,0.00680542,-1.00706482,0.305176,0.000000,-0.061035
5429145458,0.00195312,0.00639343,-1.00662231,0.305176,0.000000,-0.183105
5434159875,0.00186157,0.00625610,-1.00573730,0.427246,-0.061035,-0.122070
5439127333,0.00186157,0.00630188,-1.00546265,0.427246,0.061035,-0.122070
5444117541,0.00218201,0.00636292,-1.00601196,0.305176,0.061035,-0.122070
5449125416,0.00248718,0.00654602,-1.00633240,0.305176,0.061035,-0.122070
5454143041,0.00268555,0.00675964,-1.00604248,0.427246,0.000000,-0.061035
5459117541,0.00268555,0.00682068,-1.00596619,0.305176,0.000000,-0.061035
5464125916,0.00230408,0.00688171,-1.00617981,0.427246,0.061035,0.000000
5469139000,0.00199890,0.00711060,-1.00602722,0.305176,0.000000,-0.061035
5474147541,0.00205994,0.00718689,-1.00559998,0.244141,-0.122070,-0.183105
5479126250,0.00198364,0.00717163,-1.00578308,0.549316,0.000000,-0.122070
5484132833,0.00163269,0.00744629,-1.00660706,0.366211,0.061035,-0.122070
5489125458,0.00144958,0.00764465,-1.00682068,0.427246,0.244141,-0.122070
5494093416,0.00166321,0.00724792,-1.00611877,0.244141,0.000000,0.000000
5499121625,0.00190735,0.00659180,-1.00575256,0.366211,0.122070,-0.244141
5504104458,0.00205994,0.00642395,-1.00608826,0.366211,0.000000,0.000000
5509119791,0.00245667,0.00659180,-1.00640869,0.305176,-0.061035,-0.061035
5514117750,0.00283813,0.00663757,-1.00634766,0.305176,0.122070,-0.122070
5519145291,0.00271606,0.00695801,-1.00593567,0.305176,0.122070,-0.122070
5524147875,0.00221252,0.00738525,-1.00561523,0.183105,0.061035,-0.122070
5529174458,0.00204468,0.00724792,-1.00582886,0.366211,0.183105,-0.122070
5534138291,0.00256348,0.00688171,-1.00653076,0.488281,0.122070,-0.061035
5539165625,0.00335693,0.00683594,-1.00711060,0.427246,0.000000,-0.122070
5544127875,0.00376892,0.00708008,-1.00688171,0.366211,0.000000,-0.061035
5549127250,0.00332642,0.00694275,-1.00621033,0.366211,0.000000,-0.122070
5554183166,0.00263977,0.00634766,-1.00602722,0.244141,0.000000,-0.061035
5559152000,0.00250244,0.00625610,-1.00659180,0.244141,0.122070,-0.061035
5564167500,0.00277710,0.00675964,-1.00720215,0.366211,0.061035,-0.122070
5569152625,0.00274658,0.00703430,-1.00720215,0.427246,-0.061035,-0.122070
5574124166,0.00212097,0.00689697,-1.00689697,0.366211,0.122070,-0.061035
5579144750,0.00158691,0.00660706,-1.00648499,0.427246,0.061035,-0.122070
5584085083,0.00160217,0.00636292,-1.00595093,0.488281,0.122070,0.061035
5589218333,0.00173950,0.00627136,-1.00593567,0.366211,0.122070,-0.061035
5594130750,0.00189209,0.00628662,-1.00669861,0.549316,0.061035,-0.244141
5599172583,0.00199890,0.00648499,-1.00727844,0.305176,-0.061035,-0.183105
5604149541,0.00180054,0.00675964,-1.00685120,0.244141,0.061035,0.000000
5609137666,0.00166321,0.00692749,-1.00608826,0.305176,0.000000,-0.061035
5614148250,0.00198364,0.00701904,-1.00599670,0.427246,0.061035,-0.061035
5619157416,0.00239563,0.00697327,-1.00650024,0.366211,0.061035,-0.122070
5624162291,0.00259399,0.00698853,-1.00689697,0.488281,0.061035,-0.183105
5629141416,0.00256348,0.00717163,-1.00694275,0.366211,0.061035,-0.122070
5634151666,0.00207520,0.00718689,-1.00677490,0.366211,0.000000,-0.122070
5639161833,0.00164795,0.00703430,-1.00633240,0.427246,0.061035,-0.122070
5644152833,0.00184631,0.00712585,-1.00581360,0.305176,-0.061035,-0.061035
5649140583,0.00213623,0.00714111,-1.00585938,0.305176,0.122070,0.000000
5654161416,0.00216675,0.00675964,-1.00624084,0.305176,0.000000,0.000000
5659185583,0.00241089,0.00679016,-1.00642395,0.305176,0.000000,-0.061035
5664145208,0.00303650,0.00747681,-1.00639343,0.244141,0.061035,-0.061035
5669162416,0.00343323,0.00767517,-1.00633240,0.244141,0.183105,-0.061035
5674138666,0.00331116,0.00724792,-1.00659180,0.305176,0.061035,-0.122070
5679154333,0.00299072,0.00721741,-1.00706482,0.366211,0.061035,-0.183105
5684157958,0.00279236,0.00761414,-1.00697327,0.244141,0.061035,-0.061035
5689189166,0.00253296,0.00785828,-1.00619507,0.366211,0.183105,-0.122070
5694215000,0.00233459,0.00784302,-1.00584412,0.244141,0.122070,-0.061035
5699195500,0.00225830,0.00762939,-1.00636292,0.305176,0.061035,0.000000
5704169250,0.00204468,0.00720215,-1.00697327,0.305176,0.122070,-0.122070
5709168083,0.00160217,0.00683594,-1.00698853,0.427246,0.061035,-0.061035
5714163833,0.00128174,0.00677490,-1.00627136,0.366211,0.000000,-0.183105
5719163083,0.00167847,0.00697327,-1.00573730,0.366211,0.061035,0.061035
5724156958,0.00202942,0.00712585,-1.00610352,0.305176,0.000000,-0.061035
5729149500,0.00148010,0.00729370,-1.00669861,0.488281,0.122070,0.000000
5734156083,0.00093079,0.00769043,-1.00643921,0.427246,0.000000,-0.061035
5739167583,0.00128174,0.00794983,-1.00553894,0.305176,0.061035,-0.183105
5744165375,0.00187683,0.00788879,-1.00509644,0.427246,0.000000,0.000000
5749171916,0.00207520,0.00769043,-1.00527954,0.183105,0.000000,-0.183105
5754201000,0.00199890,0.00724792,-1.00578308,0.244141,0.061035,0.000000
5759212500,0.00195312,0.00665283,-1.00643921,0.427246,0.122070,-0.061035
5764172875,0.00218201,0.00637817,-1.00704956,0.366211,0.000000,-0.183105
5769178708,0.00263977,0.00668335,-1.00733948,0.427246,0.000000,0.061035
5774199916,0.00294495,0.00729370,-1.00701904,0.305176,0.122070,-0.122070
5779172458,0.00299072,0.00773621,-1.00593567,0.305176,0.000000,-0.061035
5784163083,0.00292969,0.00759888,-1.00494385,0.366211,0.061035,-0.183105
5789187541,0.00289917,0.00723267,-1.00503540,0.427246,-0.061035,-0.061035
5794173541,0.00277710,0.00726318,-1.00596619,0.305176,0.061035,-0.061035
5799242125,0.00248718,0.00749207,-1.00672913,0.305176,0.122070,0.000000
5804197375,0.00210571,0.00737000,-1.00674438,0.244141,0.183105,-0.122070
5809174208,0.00172424,0.00721741,-1.00646973,0.488281,0.122070,-0.183105
5814151500,0.00158691,0.00724792,-1.00651550,0.427246,0.000000,-0.122070
5819181625,0.00195312,0.00730896,-1.00674438,0.244141,-0.061035,-0.122070
5824171416,0.00248718,0.00729370,-1.00697327,0.244141,-0.061035,-0.061035
5829172000,0.00238037,0.00720215,-1.00708008,0.305176,0.061035,-0.061035
5834207875,0.00177002,0.00729370,-1.00665283,0.366211,0.000000,-0.122070
5839207666,0.00152588,0.00750732,-1.00592041,0.366211,0.061035,0.000000
5844185333,0.00161743,0.00733948,-1.00587463,0.305176,0.122070,0.000000
5849184291,0.00180054,0.00675964,-1.00650024,0.305176,0.000000,-0.122070
5854170916,0.00212097,0.00639343,-1.00691223,0.366211,0.061035,-0.122070
5859231083,0.00222778,0.00663757,-1.00656128,0.427246,0.122070,-0.122070
5864182583,0.00204468,0.00698853,-1.00581360,0.305176,-0.061035,-0.183105
5869229125,0.00189209,0.00689697,-1.00559998,0.244141,0.000000,-0.183105
5874162500,0.00178528,0.00675964,-1.00616455,0.305176,0.061035,-0.061035
5879190666,0.00152588,0.00680542,-1.00704956,0.305176,0.061035,-0.183105
5884176833,0.00148010,0.00706482,-1.00743103,0.488281,0.183105,-0.122070
5889224166,0.00172424,0.00738525,-1.00680542,0.244141,0.061035,-0.061035
5894191375,0.00180054,0.00747681,-1.00601196,0.427246,0.122070,0.000000
5899218166,0.00207520,0.00749207,-1.00587463,0.366211,0.000000,-0.244141
5904272000,0.00251770,0.00741577,-1.00634766,0.305176,0.061035,0.000000
5909203708,0.00231934,0.00723267,-1.00698853,0.366211,0.000000,-0.061035
5914191291,0.00173950,0.00720215,-1.00721741,0.427246,-0.061035,-0.183105
5919203125,0.00160217,0.00726318,-1.00703430,0.366211,0.122070,-0.122070
5924222041,0.00170898,0.00711060,-1.00689697,0.183105,0.000000,-0.122070
5929203541,0.00180054,0.00674438,-1.00718689,0.427246,0.183105,-0.061035
5934178833,0.00210571,0.00639343,-1.00738525,0.305176,0.122070,0.000000
5939198791,0.00241089,0.00627136,-1.00695801,0.366211,0.244141,-0.061035
5944197666,0.00250244,0.00639343,-1.00640869,0.366211,0.122070,-0.061035
5949198833,0.00236511,0.00669861,-1.00611877,0.427246,0.000000,-0.122070
5954244000,0.00221252,0.00701904,-1.00601196,0.366211,0.000000,-0.244141
5959237708,0.00244141,0.00709534,-1.00639343,0.427246,0.000000,-0.061035
5964209583,0.00282288,0.00692749,-1.00714111,0.488281,0.061035,0.000000
5969233083,0.00271606,0.00679016,-1.00733948,0.549316,0.000000,-0.061035
5974188291,0.00193787,0.00679016,-1.00672913,0.427246,0.061035,0.061035
5979207916,0.00137329,0.00685120,-1.00601196,0.305176,0.122070,0.061035
5984198958,0.00170898,0.00697327,-1.00588989,0.366211,0.061035,0.061035
5989248125,0.00219727,0.00700378,-1.00646973,0.305176,0.061035,-0.061035
5994208666,0.00198364,0.00694275,-1.00701904,0.366211,0.122070,-0.061035
5999216791,0.00158691,0.00686646,-1.00701904,0.366211,0.000000,0.061035
6004224958,0.00169373,0.00662231,-1.00688171,0.488281,0.183105,0.061035
6009218916,0.00218201,0.00651550,-1.00639343,0.366211,0.061035,-0.122070
6014206916,0.00244141,0.00686646,-1.00567627,0.366211,0.061035,0.000000
6019203750,0.00204468,0.00721741,-1.00559998,0.427246,0.122070,0.061035
6024213916,0.00161743,0.00712585,-1.00645447,0.305176,0.061035,-0.122070
6029227083,0.00181580,0.00686646,-1.00717163,0.305176,0.000000,0.000000
6034218958,0.00227356,0.00686646,-1.00706482,0.305176,0.061035,-0.122070
6039219541,0.00234985,0.00730896,-1.00672913,0.305176,0.000000,-0.061035
6044209666,0.00228882,0.00787354,-1.00697327,0.366211,0.061035,0.000000
6049214500,0.00244141,0.00791931,-1.00737000,0.366211,0.183105,-0.061035
6054242333,0.00244141,0.00741577,-1.00709534,0.366211,0.183105,0.000000
6059271541,0.00234985,0.00701904,-1.00666809,0.244141,0.061035,-0.122070
6064190625,0.00236511,0.00701904,-1.00648499,0.366211,0.000000,-0.061035
6069226166,0.00245667,0.00712585,-1.00619507,0.427246,0.061035,-0.122070
6074212375,0.00267029,0.00720215,-1.00590515,0.427246,0.000000,-0.122070
6079225083,0.00283813,0.00708008,-1.00581360,0.305176,-0.122070,-0.244141
6084216833,0.00239563,0.00672913,-1.00585938,0.305176,0.000000,-0.061035
6089241750,0.00170898,0.00663757,-1.00605774,0.183105,0.000000,-0.061035
6094216791,0.00157166,0.00700378,-1.00660706,0.305176,-0.061035,-0.122070
6099216708,0.00170898,0.00714111,-1.00708008,0.305176,-0.061035,-0.122070
6104226375,0.00181580,0.00659180,-1.00706482,0.366211,0.061035,-0.183105
6109233916,0.00230408,0.00607300,-1.00688171,0.427246,0.183105,-0.061035
6114220916,0.00299072,0.00634766,-1.00679016,0.366211,0.183105,-0.122070
6119227875,0.00300598,0.00704956,-1.00668335,0.305176,0.000000,-0.122070
6124257833,0.00209045,0.00737000,-1.00650024,0.427246,0.000000,-0.122070
6129268083,0.00119019,0.00717163,-1.00645447,0.488281,0.061035,-0.061035
6134228000,0.00115967,0.00712585,-1.00660706,0.366211,0.061035,-0.122070
6139239083,0.00167847,0.00746155,-1.00659180,0.427246,0.061035,-0.244141
6144225958,0.00187683,0.00756836,-1.00622559,0.183105,0.061035,-0.061035
6149229333,0.00163269,0.00730896,-1.00604248,0.366211,0.122070,-0.061035
6154253000,0.00143433,0.00700378,-1.00633240,0.488281,0.000000,0.061035
6159266541,0.00140381,0.00703430,-1.00656128,0.366211,0.061035,0.000000
6164230458,0.00144958,0.00723267,-1.00650024,0.183105,-0.061035,-0.061035
6169264583,0.00140381,0.00715637,-1.00642395,0.244141,-0.122070,-0.061035
6174208750,0.00123596,0.00695801,-1.00642395,0.183105,0.000000,0.000000
6179237250,0.00141907,0.00711060,-1.00663757,0.488281,0.122070,-0.122070
6184221125,0.00239563,0.00738525,-1.00703430,0.244141,-0.061035,0.000000
6189257958,0.00352478,0.00743103,-1.00733948,0.366211,0.061035,-0.122070
6194243541,0.00366211,0.00752258,-1.00727844,0.366211,0.183105,-0.061035
6199273000,0.00297546,0.00790405,-1.00659180,0.305176,0.000000,-0.122070
6204231333,0.00265503,0.00802612,-1.00567627,0.366211,0.000000,-0.122070
6209282250,0.00296021,0.00747681,-1.00558472,0.305176,0.061035,-0.183105
6214266791,0.00302124,0.00668335,-1.00630188,0.427246,0.000000,-0.061035
6219251333,0.00259399,0.00643921,-1.00688171,0.366211,0.061035,-0.061035
6224255833,0.00199890,0.00669861,-1.00698853,0.366211,0.000000,-0.183105
6229238875,0.00173950,0.00703430,-1.00688171,0.366211,0.061035,0.000000
6234220500,0.00209045,0.00704956,-1.00677490,0.366211,0.122070,-0.122070
6239250750,0.00253296,0.00669861,-1.00645447,0.488281,0.061035,-0.061035
6244212166,0.00282288,0.00671387,-1.00576782,0.183105,0.000000,-0.061035
6249221833,0.00280762,0.00733948,-1.00529480,0.305176,0.122070,-0.122070
6254245125,0.00256348,0.00784302,-1.00584412,0.366211,0.061035,0.000000
6259275166,0.00239563,0.00791931,-1.00698853,0.366211,0.000000,-0.122070
6264340625,0.00234985,0.00781250,-1.00741577,0.244141,0.061035,-0.183105
6269289500,0.00231934,0.00762939,-1.00692749,0.366211,0.122070,0.000000
6274225875,0.00247192,0.00735474,-1.00679016,0.305176,0.061035,-0.122070
6279259250,0.00260925,0.00695801,-1.00727844,0.427246,0.000000,-0.122070
6284243708,0.00257874,0.00659180,-1.00724792,0.305176,0.061035,-0.061035
6289278166,0.00259399,0.00666809,-1.00643921,0.488281,0.122070,-0.183105
6294252708,0.00242615,0.00720215,-1.00585938,0.366211,0.000000,-0.061035
6299269125,0.00221252,0.00753784,-1.00595093,0.183105,0.061035,-0.122070
6304260583,0.00227356,0.00749207,-1.00613403,0.366211,0.061035,-0.122070
6309323208,0.00242615,0.00747681,-1.00613403,0.488281,0.122070,-0.122070
6314245666,0.00250244,0.00747681,-1.00624084,0.427246,0.061035,0.000000
6319254750,0.00273132,0.00726318,-1.00654602,0.305176,0.061035,0.000000
6324253625,0.00306702,0.00697327,-1.00679016,0.427246,0.122070,-0.061035
6329296958,0.00292969,0.00671387,-1.00669861,0.427246,0.122070,-0.183105
6334258541,0.00253296,0.00675964,-1.00643921,0.427246,0.122070,-0.061035
6339256083,0.00231934,0.00740051,-1.00631714,0.427246,-0.061035,-0.122070
6344240333,0.00209045,0.00791931,-1.00634766,0.122070,0.000000,-0.122070
6349252791,0.00170898,0.00781250,-1.00625610,0.305176,0.122070,-0.244141
6354303000,0.00161743,0.00737000,-1.00575256,0.305176,0.000000,-0.061035
6359340208,0.00192261,0.00698853,-1.00523376,0.366211,0.000000,0.000000
6364260333,0.00248718,0.00683594,-1.00544739,0.244141,0.061035,-0.061035
6369302000,0.00291443,0.00689697,-1.00624084,0.244141,0.061035,-0.061035
6374275333,0.00257874,0.00691223,-1.00691223,0.366211,0.000000,-0.122070
6379260291,0.00184631,0.00700378,-1.00700378,0.183105,0.061035,-0.122070
6384274583,0.00180054,0.00738525,-1.00650024,0.183105,0.122070,-0.244141
6389273583,0.00241089,0.00772095,-1.00596619,0.488281,0.061035,-0.122070
6394252958,0.00271606,0.00761414,-1.00572205,0.366211,0.000000,0.000000
6399264708,0.00247192,0.00733948,-1.00558472,0.366211,0.061035,0.000000
6404278666,0.00213623,0.00717163,-1.00553894,0.488281,0.000000,-0.061035
6409279625,0.00215149,0.00717163,-1.00546265,0.305176,0.061035,-0.061035
6414259416,0.00238037,0.00726318,-1.00540161,0.488281,0.122070,-0.061035
6419274583,0.00253296,0.00729370,-1.00587463,0.366211,0.061035,-0.122070
6424297000,0.00268555,0.00712585,-1.00665283,0.366211,0.061035,-0.061035
6429278041,0.00270081,0.00697327,-1.00691223,0.244141,0.000000,-0.122070
6434257291,0.00254822,0.00712585,-1.00679016,0.305176,0.000000,-0.122070
6439277250,0.00260925,0.00750732,-1.00682068,0.244141,0.000000,-0.061035
6444282583,0.00282288,0.00776672,-1.00677490,0.305176,-0.061035,-0.061035
6449283958,0.00271606,0.00778198,-1.00634766,0.305176,0.000000,0.000000
6454258625,0.00187683,0.00755310,-1.00584412,0.244141,0.000000,0.000000
6459291875,0.00068665,0.00698853,-1.00552368,0.366211,0.183105,-0.061035
6464256625,0.00042725,0.00648499,-1.00544739,0.427246,0.061035,-0.061035
6469267666,0.00157166,0.00666809,-1.00575256,0.488281,0.183105,0.000000
6474299291,0.00276184,0.00740051,-1.00601196,0.366211,0.122070,-0.183105
6479267250,0.00299072,0.00816345,-1.00598145,0.305176,0.061035,-0.122070
6484255708,0.00285339,0.00843811,-1.00607300,0.366211,0.183105,0.000000
6489270250,0.00263977,0.00805664,-1.00648499,0.305176,0.183105,-0.122070
6494259416,0.00202942,0.00733948,-1.00674438,0.366211,0.122070,-0.122070
6499262333,0.00146484,0.00677490,-1.00660706,0.122070,0.000000,-0.061035
6504300250,0.00180054,0.00651550,-1.00651550,0.305176,0.061035,0.122070
6509319208,0.00253296,0.00657654,-1.00669861,0.488281,0.183105,-0.061035
6514280875,0.00257874,0.00679016,-1.00672913,0.427246,0.000000,0.122070
6519286000,0.00202942,0.00706482,-1.00651550,0.366211,0.183105,0.000000
6524333500,0.00152588,0.00752258,-1.00633240,0.427246,0.122070,-0.122070
6529321791,0.00166321,0.00772095,-1.00616455,0.244141,0.000000,-0.061035
6534305208,0.00239563,0.00735474,-1.00581360,0.244141,0.061035,-0.122070
6539302833,0.00277710,0.00679016,-1.00579834,0.366211,0.061035,-0.122070
6544276166,0.00262451,0.00656128,-1.00660706,0.366211,0.183105,-0.122070
6549299958,0.00254822,0.00689697,-1.00737000,0.366211,0.000000,-0.122070
6554337125,0.00276184,0.00756836,-1.00718689,0.305176,-0.061035,-0.122070
6559331541,0.00283813,0.00776672,-1.00659180,0.305176,0.122070,-0.061035
6564269083,0.00244141,0.00729370,-1.00650024,0.366211,0.122070,-0.122070
6569298500,0.00180054,0.00692749,-1.00689697,0.305176,0.061035,-0.122070
6574277666,0.00164795,0.00689697,-1.00701904,0.427246,0.000000,-0.061035
6579293625,0.00205994,0.00654602,-1.00677490,0.244141,0.000000,-0.183105
6584275250,0.00245667,0.00625610,-1.00695801,0.305176,0.061035,-0.183105
6589353250,0.00251770,0.00674438,-1.00727844,0.305176,0.000000,-0.244141
6594326458,0.00245667,0.00737000,-1.00675964,0.305176,0.122070,-0.122070
6599308375,0.00241089,0.00729370,-1.00584412,0.305176,0.183105,-0.061035
6604308375,0.00242615,0.00689697,-1.00581360,0.366211,0.122070,0.000000
6609292333,0.00245667,0.00674438,-1.00645447,0.366211,0.122070,-0.061035
6614276500,0.00268555,0.00679016,-1.00646973,0.305176,0.061035,-0.061035
6619305041,0.00309753,0.00697327,-1.00592041,0.366211,-0.061035,0.000000
6624323375,0.00317383,0.00709534,-1.00611877,0.366211,0.122070,0.061035
6629361375,0.00263977,0.00682068,-1.00698853,0.366211,0.122070,0.061035
6634314250,0.00202942,0.00650024,-1.00715637,0.488281,0.061035,0.000000
6639296125,0.00186157,0.00665283,-1.00674438,0.427246,0.122070,0.000000
6644274750,0.00204468,0.00695801,-1.00634766,0.366211,0.122070,0.000000
6649294166,0.00227356,0.00679016,-1.00610352,0.427246,0.061035,-0.183105
6654295541,0.00236511,0.00650024,-1.00665283,0.488281,0.061035,0.000000
6659312666,0.00227356,0.00643921,-1.00769043,0.427246,0.122070,-0.061035
6664332458,0.00221252,0.00643921,-1.00781250,0.244141,0.244141,-0.183105
6669305791,0.00242615,0.00657654,-1.00701904,0.244141,0.000000,-0.183105
6674295958,0.00276184,0.00694275,-1.00650024,0.244141,0.122070,0.061035
6679297833,0.00280762,0.00720215,-1.00682068,0.427246,-0.061035,-0.122070
6684342541,0.00218201,0.00708008,-1.00726318,0.305176,-0.061035,-0.122070
6689336166,0.00144958,0.00703430,-1.00694275,0.305176,0.183105,0.000000
6694308291,0.00126648,0.00720215,-1.00628662,0.366211,0.122070,0.000000
6699350625,0.00158691,0.00718689,-1.00628662,0.427246,0.122070,-0.122070
6704334750,0.00198364,0.00697327,-1.00653076,0.305176,-0.122070,-0.061035
6709345416,0.00213623,0.00694275,-1.00604248,0.305176,0.061035,-0.061035
6714306875,0.00202942,0.00730896,-1.00543213,0.366211,0.122070,-0.061035
6719304500,0.00193787,0.00762939,-1.00564575,0.305176,0.122070,-0.183105
6724343208,0.00192261,0.00765991,-1.00621033,0.366211,0.122070,-0.122070
6729328750,0.00190735,0.00781250,-1.00621033,0.427246,0.183105,-0.061035
6734345958,0.00175476,0.00770569,-1.00556946,0.183105,0.122070,0.000000
6739334083,0.00160217,0.00697327,-1.00532532,0.183105,0.122070,0.000000
6744293291,0.00177002,0.00654602,-1.00585938,0.244141,-0.061035,-0.061035
6749322958,0.00216675,0.00679016,-1.00630188,0.488281,0.061035,0.000000
6754351958,0.00256348,0.00691223,-1.00625610,0.366211,0.061035,-0.122070
6759340166,0.00250244,0.00688171,-1.00630188,0.427246,0.000000,0.000000
6764295041,0.00198364,0.00720215,-1.00656128,0.183105,0.061035,-0.183105
6769335833,0.00161743,0.00749207,-1.00645447,0.427246,0.061035,-0.061035
6774331250,0.00199890,0.00724792,-1.00619507,0.427246,0.061035,-0.061035
6779320958,0.00286865,0.00698853,-1.00607300,0.244141,0.061035,0.000000
6784311583,0.00349426,0.00701904,-1.00619507,0.244141,0.061035,-0.122070
6789341416,0.00300598,0.00685120,-1.00648499,0.305176,0.000000,-0.183105
6794324291,0.00180054,0.00660706,-1.00654602,0.244141,0.000000,-0.122070
6799362666,0.00131226,0.00662231,-1.00640869,0.244141,-0.061035,-0.061035
6804328958,0.00224304,0.00662231,-1.00628662,0.244141,-0.061035,-0.183105
6809333958,0.00347900,0.00657654,-1.00611877,0.305176,0.061035,0.000000
6814333000,0.00375366,0.00683594,-1.00630188,0.244141,0.244141,-0.122070
6819330875,0.00308228,0.00715637,-1.00691223,0.244141,0.000000,-0.061035
6824321333,0.00207520,0.00711060,-1.00729370,0.366211,-0.061035,-0.122070
6829357916,0.00155640,0.00679016,-1.00714111,0.366211,0.122070,-0.122070
6834313458,0.00157166,0.00662231,-1.00704956,0.427246,0.122070,-0.122070
6839321166,0.00170898,0.00685120,-1.00752258,0.305176,0.000000,-0.122070
6844315291,0.00180054,0.00697327,-1.00808716,0.183105,0.000000,0.000000
6849344375,0.00169373,0.00682068,-1.00765991,0.244141,0.000000,-0.061035
6854358708,0.00161743,0.00697327,-1.00621033,0.366211,0.183105,-0.244141
6859370958,0.00199890,0.00740051,-1.00521851,0.305176,0.000000,0.000000
6864338416,0.00238037,0.00781250,-1.00572205,0.488281,0.061035,0.000000
6869360000,0.00205994,0.00811768,-1.00697327,0.427246,0.000000,-0.061035
6874319083,0.00167847,0.00820923,-1.00756836,0.244141,0.000000,-0.122070
6879332833,0.00190735,0.00804138,-1.00708008,0.305176,0.183105,-0.122070
6884339958,0.00205994,0.00784302,-1.00622559,0.427246,0.000000,-0.122070
6889458916,0.00158691,0.00778198,-1.00582886,0.305176,0.061035,-0.061035
6894348375,0.00120544,0.00790405,-1.00610352,0.366211,0.122070,-0.122070
6899374791,0.00158691,0.00787354,-1.00653076,0.305176,0.061035,0.000000
6904341416,0.00216675,0.00718689,-1.00636292,0.427246,0.061035,-0.122070
6909339833,0.00207520,0.00643921,-1.00595093,0.244141,0.122070,-0.122070
6914347458,0.00169373,0.00645447,-1.00617981,0.366211,0.183105,0.000000
6919351875,0.00181580,0.00680542,-1.00650024,0.244141,0.061035,-0.061035
6924345500,0.00213623,0.00704956,-1.00614929,0.244141,0.122070,-0.122070
6929346750,0.00205994,0.00729370,-1.00575256,0.427246,0.122070,0.000000
6934334500,0.00184631,0.00755310,-1.00621033,0.427246,0.061035,-0.061035
6939357166,0.00198364,0.00741577,-1.00708008,0.427246,0.000000,-0.183105
6944342833,0.00239563,0.00675964,-1.00746155,0.305176,0.061035,-0.061035
6949351125,0.00260925,0.00630188,-1.00714111,0.244141,0.244141,-0.061035
6954386750,0.00224304,0.00636292,-1.00650024,0.427246,0.122070,0.000000
6959357458,0.00184631,0.00672913,-1.00625610,0.488281,-0.061035,-0.061035
6964387791,0.00181580,0.00708008,-1.00657654,0.305176,0.000000,-0.122070
6969378791,0.00192261,0.00729370,-1.00685120,0.244141,0.122070,-0.183105
6974337208,0.00196838,0.00744629,-1.00686646,0.244141,0.000000,-0.183105
6979344958,0.00201416,0.00762939,-1.00686646,0.122070,0.000000,0.061035
6984333208,0.00218201,0.00761414,-1.00692749,0.366211,0.061035,0.000000
6989356708,0.00221252,0.00743103,-1.00665283,0.427246,0.061035,0.000000
6994440500,0.00201416,0.00744629,-1.00614929,0.305176,0.000000,-0.122070
6999387666,0.00172424,0.00750732,-1.00605774,0.366211,0.061035,-0.122070
7004373041,0.00161743,0.00743103,-1.00627136,0.427246,0.244141,0.000000
7009367250,0.00180054,0.00750732,-1.00640869,0.305176,0.000000,0.000000
7014363250,0.00195312,0.00782776,-1.00636292,0.488281,0.061035,-0.061035
7019362250,0.00198364,0.00794983,-1.00610352,0.366211,0.061035,-0.122070
7024381000,0.00204468,0.00752258,-1.00575256,0.488281,0.061035,-0.061035
7029392916,0.00225830,0.00721741,-1.00582886,0.366211,0.000000,-0.061035
7034369458,0.00241089,0.00765991,-1.00634766,0.305176,0.000000,0.000000
7039365250,0.00218201,0.00799561,-1.00679016,0.366211,0.122070,0.000000
7044349583,0.00175476,0.00756836,-1.00662231,0.305176,0.061035,-0.061035
7049360208,0.00186157,0.00694275,-1.00587463,0.366211,-0.061035,-0.183105
7054396000,0.00259399,0.00665283,-1.00544739,0.488281,0.000000,-0.183105
7059374041,0.00323486,0.00650024,-1.00585938,0.427246,-0.061035,-0.183105
7064386416,0.00303650,0.00645447,-1.00642395,0.366211,0.061035,-0.061035
7069378166,0.00242615,0.00662231,-1.00671387,0.305176,0.000000,-0.061035
7074374708,0.00225830,0.00669861,-1.00634766,0.488281,0.061035,-0.122070
7079356250,0.00241089,0.00634766,-1.00531006,0.305176,0.122070,-0.122070
7084341208,0.00236511,0.00599670,-1.00471497,0.122070,0.061035,0.000000
7089357083,0.00224304,0.00608826,-1.00509644,0.244141,0.061035,-0.061035
7094379833,0.00213623,0.00631714,-1.00569153,0.244141,0.000000,-0.244141
7099391958,0.00205994,0.00637817,-1.00614929,0.305176,0.000000,-0.122070
7104361958,0.00218201,0.00636292,-1.00639343,0.366211,0.000000,-0.244141
7109379083,0.00227356,0.00653076,-1.00642395,0.305176,-0.061035,-0.061035
7114367750,0.00207520,0.00703430,-1.00637817,0.488281,-0.061035,0.000000
7119384666,0.00202942,0.00756836,-1.00624084,0.427246,0.061035,-0.183105
7124385833,0.00207520,0.00756836,-1.00584412,0.427246,0.183105,-0.122070
7129411583,0.00163269,0.00718689,-1.00553894,0.366211,0.061035,-0.061035
7134359375,0.00109863,0.00709534,-1.00572205,0.122070,0.122070,-0.122070
7139370250,0.00106812,0.00724792,-1.00617981,0.244141,0.000000,-0.122070
7144373750,0.00122070,0.00733948,-1.00637817,0.427246,-0.061035,-0.122070
7149394750,0.00140381,0.00732422,-1.00613403,0.366211,0.000000,-0.061035
7154396375,0.00149536,0.00720215,-1.00573730,0.366211,0.061035,-0.183105
7159373375,0.00181580,0.00683594,-1.00575256,0.366211,0.122070,-0.122070
7164382291,0.00265503,0.00642395,-1.00633240,0.305176,0.061035,0.061035
7169398458,0.00326538,0.00634766,-1.00662231,0.305176,0.061035,-0.183105
7174391125,0.00296021,0.00662231,-1.00628662,0.366211,0.061035,0.000000
7179385250,0.00234985,0.00683594,-1.00611877,0.305176,0.000000,-0.122070
7184365833,0.00241089,0.00688171,-1.00668335,0.244141,0.000000,0.000000
7189346791,0.00318909,0.00700378,-1.00714111,0.549316,0.122070,-0.122070
7194397583,0.00404358,0.00732422,-1.00686646,0.244141,0.000000,-0.244141
7199463208,0.00433350,0.00724792,-1.00628662,0.366211,0.061035,-0.122070
7204395333,0.00379944,0.00650024,-1.00599670,0.305176,0.122070,-0.061035
7209384750,0.00299072,0.00593567,-1.00633240,0.305176,0.183105,-0.122070
7214382875,0.00231934,0.00617981,-1.00680542,0.366211,0.122070,0.000000
7219390333,0.00195312,0.00669861,-1.00697327,0.366211,0.183105,-0.061035
7224406375,0.00202942,0.00691223,-1.00709534,0.366211,0.000000,-0.061035
7229371291,0.00236511,0.00686646,-1.00724792,0.366211,0.061035,-0.061035
7234384500,0.00251770,0.00672913,-1.00714111,0.305176,0.000000,-0.122070
7239418166,0.00250244,0.00651550,-1.00660706,0.427246,0.061035,0.000000
7244392541,0.00259399,0.00651550,-1.00593567,0.305176,0.061035,0.000000
7249385208,0.00256348,0.00666809,-1.00613403,0.427246,0.000000,0.000000
7254424625,0.00219727,0.00645447,-1.00723267,0.305176,0.061035,-0.061035
7259398833,0.00190735,0.00605774,-1.00775146,0.427246,0.061035,-0.061035
7264407833,0.00178528,0.00621033,-1.00718689,0.549316,0.061035,0.000000
7269424791,0.00161743,0.00694275,-1.00639343,0.244141,0.122070,-0.061035
7274380000,0.00157166,0.00759888,-1.00601196,0.366211,-0.061035,0.000000
7279403291,0.00163269,0.00741577,-1.00616455,0.427246,0.000000,-0.122070
7284398208,0.00173950,0.00671387,-1.00665283,0.366211,0.061035,-0.122070
7289413416,0.00189209,0.00653076,-1.00712585,0.305176,0.061035,0.000000
7294385125,0.00209045,0.00698853,-1.00700378,0.366211,0.000000,-0.061035
7299433208,0.00244141,0.00741577,-1.00622559,0.366211,0.061035,-0.061035
7304471250,0.00260925,0.00762939,-1.00558472,0.427246,0.122070,-0.122070
7309416958,0.00254822,0.00747681,-1.00573730,0.427246,0.061035,-0.061035
7314403083,0.00260925,0.00688171,-1.00657654,0.305176,0.122070,-0.122070
7319409125,0.00263977,0.00651550,-1.00740051,0.305176,0.122070,-0.183105
7324412625,0.00233459,0.00680542,-1.00715637,0.488281,0.061035,-0.061035
7329439666,0.00221252,0.00724792,-1.00585938,0.244141,0.061035,-0.122070
7334407291,0.00250244,0.00733948,-1.00495911,0.366211,0.061035,0.000000
7339399750,0.00260925,0.00701904,-1.00537109,0.427246,0.000000,0.000000
7344394625,0.00225830,0.00637817,-1.00646973,0.305176,0.000000,-0.061035
7349406416,0.00193787,0.00585938,-1.00717163,0.244141,0.000000,-0.183105
7354413375,0.00186157,0.00607300,-1.00695801,0.427246,0.000000,-0.122070
7359416750,0.00183105,0.00662231,-1.00645447,0.305176,0.000000,-0.122070
7364425916,0.00160217,0.00672913,-1.00613403,0.305176,-0.061035,-0.061035
7369439708,0.00129700,0.00645447,-1.00607300,0.366211,0.000000,0.000000
7374391916,0.00135803,0.00636292,-1.00624084,0.305176,0.061035,-0.122070
7379417500,0.00192261,0.00646973,-1.00648499,0.366211,0.122070,-0.061035
7384412958,0.00234985,0.00628662,-1.00695801,0.366211,0.061035,-0.061035
7389338250,0.00213623,0.00582886,-1.00737000,0.305176,0.061035,-0.061035
7394423458,0.00164795,0.00585938,-1.00715637,0.183105,0.122070,-0.061035
7399442875,0.00137329,0.00640869,-1.00659180,0.366211,0.000000,-0.061035
7404420333,0.00115967,0.00671387,-1.00628662,0.427246,0.000000,-0.061035
7409439041,0.00111389,0.00700378,-1.00630188,0.366211,-0.061035,0.000000
7414415791,0.00152588,0.00741577,-1.00631714,0.244141,0.061035,-0.061035
7419407500,0.00201416,0.00724792,-1.00621033,0.305176,0.061035,-0.061035
7424425000,0.00210571,0.00675964,-1.00584412,0.305176,0.061035,-0.183105
7429452083,0.00212097,0.00674438,-1.00566101,0.427246,0.122070,0.000000
7434422416,0.00230408,0.00726318,-1.00625610,0.488281,0.061035,-0.061035
7439427458,0.00244141,0.00753784,-1.00718689,0.427246,0.061035,0.000000
7444401083,0.00238037,0.00720215,-1.00740051,0.305176,-0.061035,0.000000
7449424958,0.00213623,0.00685120,-1.00672913,0.549316,0.122070,-0.183105
7454409041,0.00218201,0.00691223,-1.00624084,0.305176,0.000000,-0.183105
7459439166,0.00263977,0.00704956,-1.00639343,0.366211,0.122070,0.000000
7464428000,0.00303650,0.00709534,-1.00639343,0.366211,0.000000,-0.061035
7469477833,0.00320435,0.00740051,-1.00610352,0.366211,0.122070,0.000000
7474416958,0.00315857,0.00773621,-1.00631714,0.427246,0.061035,-0.122070
7479418583,0.00299072,0.00767517,-1.00711060,0.488281,0.122070,0.000000
7484464375,0.00267029,0.00718689,-1.00732422,0.366211,0.000000,-0.122070
7489436416,0.00195312,0.00677490,-1.00677490,0.427246,-0.061035,-0.122070
7494418041,0.00122070,0.00656128,-1.00633240,0.366211,0.061035,-0.061035
7499454958,0.00119019,0.00669861,-1.00627136,0.366211,0.061035,-0.061035
7504421791,0.00167847,0.00723267,-1.00643921,0.183105,0.000000,-0.061035
7509423416,0.00183105,0.00758362,-1.00657654,0.366211,0.183105,0.000000
7514432000,0.00140381,0.00753784,-1.00648499,0.427246,0.183105,-0.122070
7519449458,0.00115967,0.00764465,-1.00631714,0.366211,0.122070,-0.122070
7524429083,0.00175476,0.00791931,-1.00650024,0.183105,-0.061035,-0.244141
7529437875,0.00256348,0.00794983,-1.00679016,0.305176,0.000000,-0.061035
7534411625,0.00256348,0.00776672,-1.00634766,0.427246,0.000000,-0.061035
7539507791,0.00181580,0.00741577,-1.00564575,0.366211,0.122070,-0.183105
7544412875,0.00157166,0.00700378,-1.00553894,0.305176,0.061035,-0.122070
7549443958,0.00204468,0.00698853,-1.00569153,0.305176,0.061035,-0.183105
7554423333,0.00225830,0.00740051,-1.00569153,0.305176,0.061035,-0.122070
7559450500,0.00212097,0.00767517,-1.00601196,0.122070,0.000000,-0.061035
7564487041,0.00219727,0.00743103,-1.00662231,0.244141,0.122070,-0.183105
7569445208,0.00236511,0.00714111,-1.00706482,0.305176,0.122070,0.122070
7574426750,0.00242615,0.00717163,-1.00711060,0.305176,-0.122070,-0.061035
7579435291,0.00250244,0.00717163,-1.00663757,0.244141,0.122070,0.000000
7584413916,0.00256348,0.00671387,-1.00595093,0.366211,0.061035,-0.061035
7589454916,0.00242615,0.00608826,-1.00546265,0.366211,0.122070,-0.122070
7594447500,0.00268555,0.00596619,-1.00546265,0.366211,0.305176,-0.122070
7599452833,0.00332642,0.00621033,-1.00593567,0.244141,0.061035,-0.122070
7604441708,0.00318909,0.00625610,-1.00639343,0.427246,0.000000,-0.183105
7609454166,0.00219727,0.00631714,-1.00671387,0.366211,0.122070,-0.183105
7614430875,0.00160217,0.00660706,-1.00709534,0.427246,0.000000,-0.122070
7619452666,0.00180054,0.00669861,-1.00720215,0.305176,0.183105,0.000000
7624427291,0.00215149,0.00650024,-1.00668335,0.244141,0.061035,0.061035
7629450125,0.00196838,0.00669861,-1.00630188,0.305176,0.000000,-0.122070
7634438583,0.00163269,0.00730896,-1.00683594,0.427246,0.061035,-0.122070
7639448125,0.00163269,0.00761414,-1.00735474,0.305176,0.000000,-0.122070
7644438500,0.00155640,0.00732422,-1.00697327,0.366211,0.000000,-0.061035
7649443083,0.00119019,0.00700378,-1.00636292,0.427246,0.000000,0.122070
7654510416,0.00086975,0.00723267,-1.00604248,0.427246,0.122070,-0.061035
7659460500,0.00070190,0.00775146,-1.00599670,0.183105,0.183105,-0.122070
7664444916,0.00074768,0.00775146,-1.00617981,0.366211,0.244141,0.061035
7669476333,0.00094604,0.00729370,-1.00636292,0.427246,0.061035,-0.061035
7674434083,0.00129700,0.00708008,-1.00634766,0.305176,0.122070,-0.061035
7679458333,0.00175476,0.00721741,-1.00610352,0.244141,-0.061035,-0.061035
7684446291,0.00205994,0.00747681,-1.00588989,0.366211,-0.061035,-0.061035
7689472791,0.00244141,0.00769043,-1.00584412,0.427246,0.061035,-0.061035
7694451291,0.00306702,0.00753784,-1.00587463,0.366211,0.122070,-0.183105
7699459833,0.00363159,0.00703430,-1.00588989,0.366211,0.122070,-0.061035
7704469166,0.00354004,0.00685120,-1.00590515,0.427246,0.122070,0.000000
7709437625,0.00277710,0.00717163,-1.00602722,0.244141,0.122070,0.000000
7714454458,0.00221252,0.00759888,-1.00619507,0.366211,0.061035,-0.061035
7719512958,0.00216675,0.00776672,-1.00613403,0.305176,0.000000,-0.061035
7724453958,0.00201416,0.00769043,-1.00588989,0.366211,0.000000,-0.061035
7729481833,0.00160217,0.00752258,-1.00570679,0.427246,0.000000,-0.122070
7734463750,0.00135803,0.00721741,-1.00598145,0.244141,0.000000,0.000000
7739469125,0.00160217,0.00689697,-1.00668335,0.427246,0.183105,-0.122070
7744464833,0.00239563,0.00686646,-1.00715637,0.305176,0.000000,-0.061035
7749469166,0.00312805,0.00711060,-1.00704956,0.244141,0.000000,0.000000
7754460125,0.00311279,0.00732422,-1.00660706,0.305176,0.122070,0.000000
7759468833,0.00262451,0.00726318,-1.00610352,0.305176,0.000000,-0.122070
7764459958,0.00244141,0.00700378,-1.00573730,0.366211,0.122070,-0.183105
7769485625,0.00268555,0.00689697,-1.00559998,0.366211,0.061035,0.000000
7774460541,0.00282288,0.00711060,-1.00595093,0.366211,0.183105,-0.061035
7779481333,0.00241089,0.00746155,-1.00659180,0.244141,0.061035,-0.061035
7784456041,0.00173950,0.00773621,-1.00701904,0.305176,0.122070,0.000000
7789492541,0.00155640,0.00784302,-1.00689697,0.366211,0.061035,0.061035
7794463083,0.00181580,0.00782776,-1.00651550,0.427246,0.122070,-0.061035
7799478333,0.00221252,0.00779724,-1.00630188,0.427246,0.122070,-0.122070
7804486500,0.00288391,0.00779724,-1.00639343,0.427246,0.122070,-0.122070
7809476791,0.00340271,0.00779724,-1.00668335,0.488281,0.000000,-0.122070
7814458916,0.00291443,0.00769043,-1.00685120,0.366211,-0.061035,-0.122070
7819468625,0.00196838,0.00732422,-1.00663757,0.244141,0.061035,-0.183105
7824474625,0.00184631,0.00682068,-1.00605774,0.244141,-0.061035,0.000000
7829499375,0.00245667,0.00671387,-1.00567627,0.427246,0.061035,-0.183105
7834460666,0.00294495,0.00706482,-1.00585938,0.305176,0.122070,-0.061035
7839488458,0.00296021,0.00727844,-1.00627136,0.305176,0.122070,0.000000
7844465625,0.00253296,0.00701904,-1.00669861,0.244141,0.061035,-0.061035
7849480666,0.00201416,0.00651550,-1.00692749,0.305176,0.061035,0.000000
7854473250,0.00163269,0.00611877,-1.00634766,0.305176,0.061035,-0.183105
7859492000,0.00144958,0.00595093,-1.00537109,0.488281,0.122070,-0.061035
7864458291,0.00183105,0.00619507,-1.00521851,0.305176,0.183105,-0.061035
7869505500,0.00265503,0.00691223,-1.00614929,0.305176,0.061035,-0.122070
7874511750,0.00283813,0.00761414,-1.00695801,0.305176,-0.061035,-0.122070
7879498458,0.00231934,0.00770569,-1.00677490,0.427246,0.183105,-0.122070
7884469833,0.00207520,0.00730896,-1.00646973,0.244141,0.183105,0.000000
7889540458,0.00221252,0.00665283,-1.00675964,0.305176,0.000000,-0.061035
7894472791,0.00205994,0.00617981,-1.00703430,0.427246,0.061035,0.061035
7899513833,0.00164795,0.00643921,-1.00701904,0.305176,0.061035,-0.122070
7904481416,0.00141907,0.00720215,-1.00701904,0.488281,0.122070,-0.061035
7909493666,0.00115967,0.00773621,-1.00662231,0.427246,0.183105,-0.061035
7914489625,0.00093079,0.00755310,-1.00567627,0.244141,0.122070,0.000000
7919495333,0.00137329,0.00698853,-1.00534058,0.305176,0.000000,-0.183105
7924495041,0.00230408,0.00674438,-1.00607300,0.305176,0.000000,0.061035
7929489958,0.00292969,0.00712585,-1.00680542,0.366211,0.061035,0.061035
7934487625,0.00289917,0.00767517,-1.00685120,0.183105,0.000000,0.000000
7939500708,0.00254822,0.00782776,-1.00680542,0.244141,0.122070,0.000000
7944489916,0.00224304,0.00744629,-1.00692749,0.366211,0.122070,-0.244141
7949504833,0.00201416,0.00694275,-1.00671387,0.427246,0.122070,-0.183105
7954481625,0.00199890,0.00683594,-1.00633240,0.366211,0.000000,-0.061035
7959509208,0.00222778,0.00718689,-1.00610352,0.183105,0.122070,-0.061035
7964490791,0.00233459,0.00740051,-1.00610352,0.305176,0.122070,0.061035
7969494083,0.00216675,0.00714111,-1.00605774,0.305176,0.000000,-0.183105
7974484750,0.00195312,0.00689697,-1.00599670,0.305176,0.183105,-0.061035
7979499583,0.00175476,0.00711060,-1.00625610,0.305176,0.183105,-0.061035
7984489625,0.00161743,0.00758362,-1.00654602,0.366211,0.183105,-0.122070
7989528750,0.00186157,0.00767517,-1.00636292,0.305176,0.183105,-0.122070
7994499166,0.00248718,0.00726318,-1.00630188,0.183105,0.122070,-0.122070
7999525083,0.00294495,0.00712585,-1.00633240,0.305176,0.000000,-0.061035
8004535916,0.00302124,0.00746155,-1.00578308,0.366211,0.183105,-0.061035
8009495541,0.00291443,0.00775146,-1.00508118,0.366211,0.061035,-0.061035
8014517041,0.00263977,0.00781250,-1.00529480,0.366211,0.000000,-0.122070
8019494583,0.00212097,0.00776672,-1.00642395,0.427246,0.061035,-0.061035
8024492666,0.00160217,0.00747681,-1.00733948,0.427246,0.122070,-0.122070
8029549625,0.00158691,0.00685120,-1.00744629,0.366211,0.000000,-0.061035
8034500583,0.00218201,0.00646973,-1.00677490,0.366211,0.122070,-0.122070
8039515958,0.00256348,0.00646973,-1.00567627,0.305176,0.122070,0.000000
8044509625,0.00199890,0.00643921,-1.00495911,0.305176,0.122070,-0.061035
8049488416,0.00132751,0.00645447,-1.00520325,0.305176,0.000000,-0.183105
8054518791,0.00144958,0.00680542,-1.00596619,0.366211,0.061035,-0.122070
8059519125,0.00186157,0.00741577,-1.00651550,0.183105,0.061035,-0.061035
8064500416,0.00189209,0.00782776,-1.00674438,0.427246,0.061035,-0.061035
8069531208,0.00164795,0.00788879,-1.00683594,0.366211,0.244141,-0.061035
8074488875,0.00170898,0.00779724,-1.00666809,0.366211,0.000000,-0.122070
8079517125,0.00202942,0.00752258,-1.00640869,0.366211,0.061035,-0.122070
8084496083,0.00215149,0.00689697,-1.00617981,0.366211,0.000000,-0.183105
8089536833,0.00205994,0.00651550,-1.00605774,0.427246,0.061035,0.000000
8094521916,0.00210571,0.00680542,-1.00617981,0.366211,0.000000,-0.183105
8099544416,0.00221252,0.00715637,-1.00636292,0.427246,0.061035,0.000000
8104518916,0.00219727,0.00712585,-1.00642395,0.244141,0.061035,-0.061035
8109521791,0.00228882,0.00711060,-1.00657654,0.366211,0.061035,-0.122070
8114521458,0.00227356,0.00715637,-1.00700378,0.244141,0.000000,-0.122070
8119513208,0.00213623,0.00718689,-1.00720215,0.366211,0.122070,0.000000
8124521458,0.00222778,0.00738525,-1.00698853,0.427246,0.183105,-0.183105
8129539416,0.00241089,0.00744629,-1.00640869,0.366211,-0.061035,-0.122070
8134524958,0.00242615,0.00723267,-1.00578308,0.427246,0.000000,-0.122070
8139513083,0.00231934,0.00740051,-1.00582886,0.366211,0.122070,0.000000
8144507375,0.00227356,0.00784302,-1.00624084,0.244141,0.061035,-0.061035
8149535041,0.00205994,0.00762939,-1.00643921,0.244141,-0.061035,-0.061035
8154558250,0.00177002,0.00680542,-1.00640869,0.305176,0.000000,-0.061035
8159542208,0.00195312,0.00637817,-1.00634766,0.366211,0.061035,-0.061035
8164538416,0.00253296,0.00645447,-1.00636292,0.244141,-0.122070,-0.061035
8169537166,0.00289917,0.00671387,-1.00653076,0.366211,0.061035,0.000000
8174513916,0.00283813,0.00711060,-1.00704956,0.244141,0.061035,-0.122070
8179534041,0.00273132,0.00732422,-1.00761414,0.122070,-0.061035,-0.122070
8184567375,0.00260925,0.00717163,-1.00764465,0.244141,-0.061035,-0.122070
8189550125,0.00245667,0.00688171,-1.00701904,0.427246,0.000000,-0.122070
8194519500,0.00241089,0.00671387,-1.00624084,0.305176,-0.061035,-0.061035
8199553166,0.00247192,0.00653076,-1.00593567,0.366211,0.122070,-0.061035
8204550875,0.00257874,0.00634766,-1.00630188,0.305176,0.061035,-0.061035
