timestamp_ns,accel_x,accel_y,accel_z,gyro_x,gyro_y,gyro_z
61562125,0.00047302,0.01071167,-1.00563049,0.427246,-0.061035,-0.183105
66524416,0.00047302,0.00997925,-1.00627136,0.244141,-0.061035,-0.122070
71780375,0.00073242,0.00947571,-1.00793457,0.244141,0.122070,0.122070
76651166,0.00096130,0.00967407,-1.00816345,0.244141,0.000000,0.122070
81620458,0.00109863,0.00994873,-1.00614929,0.366211,-0.061035,-0.122070
86944541,0.00160217,0.00967407,-1.00382996,0.244141,0.000000,-0.244141
91697583,0.00245667,0.00918579,-1.00367737,0.427246,0.000000,-0.061035
97252208,0.00294495,0.00863647,-1.00611877,0.366211,0.061035,-0.061035
102658000,0.00277710,0.00793457,-1.00894165,0.305176,0.061035,-0.061035
106965500,0.00253296,0.00724792,-1.00936890,0.305176,0.183105,-0.183105
120049333,0.00288391,0.00657654,-1.00729370,0.366211,0.122070,-0.122070
120053291,0.00369263,0.00598145,-1.00514221,0.427246,0.000000,-0.305176
126123541,0.00367737,0.00552368,-1.00476074,0.305176,0.122070,-0.061035
127103125,0.00280762,0.00518799,-1.00558472,0.366211,0.000000,0.000000
134307166,0.00267029,0.00535583,-1.00634766,0.305176,0.061035,-0.061035
136705625,0.00341797,0.00619507,-1.00679016,0.366211,0.061035,-0.244141
143421250,0.00378418,0.00709534,-1.00703430,0.305176,0.061035,-0.183105
146738416,0.00338745,0.00762939,-1.00663757,0.427246,0.122070,-0.183105
151572375,0.00257874,0.00755310,-1.00561523,0.305176,0.061035,-0.183105
156901875,0.00198364,0.00708008,-1.00498962,0.427246,0.061035,0.000000
162676833,0.00183105,0.00735474,-1.00544739,0.366211,0.061035,-0.122070
166552083,0.00190735,0.00827026,-1.00689697,0.427246,0.122070,-0.061035
171554375,0.00195312,0.00842285,-1.00842285,0.366211,0.000000,-0.122070
176542583,0.00190735,0.00773621,-1.00849915,0.305176,0.000000,-0.122070
181572833,0.00167847,0.00730896,-1.00689697,0.427246,0.183105,-0.061035
186567291,0.00146484,0.00752258,-1.00541687,0.366211,0.122070,-0.122070
191567083,0.00140381,0.00779724,-1.00553894,0.305176,0.122070,-0.061035
196552375,0.00143433,0.00791931,-1.00682068,0.244141,0.061035,0.000000
201631833,0.00148010,0.00822449,-1.00764465,0.488281,0.000000,-0.122070
206570500,0.00149536,0.00865173,-1.00727844,0.366211,0.122070,0.061035
211601875,0.00140381,0.00885010,-1.00672913,0.305176,0.061035,-0.122070
216599666,0.00144958,0.00885010,-1.00689697,0.366211,0.000000,0.000000
221596166,0.00181580,0.00888062,-1.00729370,0.305176,0.061035,0.000000
226602375,0.00250244,0.00906372,-1.00682068,0.183105,0.061035,-0.183105
231597958,0.00331116,0.00921631,-1.00590515,0.183105,0.000000,-0.183105
236559458,0.00347900,0.00900269,-1.00575256,0.366211,0.122070,0.000000
241610333,0.00291443,0.00851440,-1.00602722,0.244141,0.000000,-0.183105
246596333,0.00247192,0.00819397,-1.00587463,0.244141,0.061035,-0.183105
251602916,0.00230408,0.00788879,-1.00556946,0.427246,0.000000,-0.183105
256567500,0.00219727,0.00732422,-1.00587463,0.366211,0.000000,-0.183105
261601000,0.00250244,0.00683594,-1.00675964,0.244141,-0.061035,-0.122070
266615000,0.00315857,0.00672913,-1.00717163,0.183105,0.000000,-0.122070
271605791,0.00360107,0.00697327,-1.00642395,0.427246,0.122070,-0.122070
276589250,0.00323486,0.00724792,-1.00561523,0.244141,0.061035,-0.061035
281611458,0.00227356,0.00680542,-1.00575256,0.305176,0.061035,-0.122070
286598916,0.00158691,0.00611877,-1.00624084,0.366211,0.061035,-0.122070
291597041,0.00175476,0.00617981,-1.00610352,0.305176,0.122070,0.061035
296583166,0.00245667,0.00660706,-1.00566101,0.427246,0.183105,-0.061035
301596750,0.00276184,0.00694275,-1.00576782,0.427246,0.122070,-0.122070
306571291,0.00238037,0.00715637,-1.00621033,0.305176,0.000000,-0.183105
311601750,0.00199890,0.00715637,-1.00642395,0.366211,0.000000,0.000000
316584208,0.00212097,0.00743103,-1.00633240,0.366211,0.061035,-0.061035
321588708,0.00253296,0.00817871,-1.00643921,0.488281,0.000000,-0.061035
326590958,0.00274658,0.00856018,-1.00675964,0.366211,0.000000,-0.061035
331591791,0.00238037,0.00842285,-1.00646973,0.305176,0.061035,-0.061035
336582958,0.00189209,0.00823975,-1.00572205,0.244141,0.000000,-0.122070
341603666,0.00173950,0.00851440,-1.00581360,0.427246,0.000000,-0.122070
346590750,0.00164795,0.00917053,-1.00677490,0.305176,-0.061035,-0.244141
351604791,0.00160217,0.00953674,-1.00764465,0.366211,0.061035,0.000000
356596208,0.00146484,0.00956726,-1.00767517,0.305176,-0.122070,-0.061035
361599625,0.00096130,0.00947571,-1.00659180,0.244141,0.000000,-0.122070
366579833,0.00076294,0.00923157,-1.00552368,0.549316,-0.061035,0.000000
371652583,0.00112915,0.00889587,-1.00567627,0.183105,-0.122070,-0.122070
376658000,0.00148010,0.00852966,-1.00643921,0.305176,0.061035,-0.122070
381610500,0.00154114,0.00799561,-1.00628662,0.305176,0.061035,-0.061035
386583458,0.00146484,0.00755310,-1.00537109,0.366211,0.061035,0.000000
391647750,0.00144958,0.00730896,-1.00503540,0.366211,0.061035,-0.061035
396601166,0.00158691,0.00688171,-1.00573730,0.244141,0.000000,0.000000
401602291,0.00184631,0.00656128,-1.00668335,0.244141,0.061035,-0.061035
406581625,0.00198364,0.00675964,-1.00654602,0.366211,0.061035,-0.122070
411631458,0.00198364,0.00738525,-1.00581360,0.244141,0.000000,-0.122070
416636708,0.00209045,0.00772095,-1.00585938,0.305176,-0.061035,-0.061035
421629333,0.00234985,0.00711060,-1.00650024,0.244141,-0.061035,-0.122070
426618833,0.00270081,0.00608826,-1.00656128,0.244141,0.000000,-0.122070
431618166,0.00325012,0.00558472,-1.00588989,0.244141,-0.061035,-0.183105
436629333,0.00392151,0.00567627,-1.00561523,0.305176,0.061035,-0.183105
441633666,0.00398254,0.00628662,-1.00636292,0.366211,0.061035,-0.061035
446614958,0.00337219,0.00724792,-1.00720215,0.305176,-0.061035,-0.061035
451631625,0.00286865,0.00772095,-1.00686646,0.305176,0.183105,-0.122070
456616083,0.00279236,0.00770569,-1.00619507,0.244141,0.000000,-0.122070
461643208,0.00262451,0.00778198,-1.00645447,0.183105,0.061035,0.000000
466657750,0.00189209,0.00805664,-1.00727844,0.427246,0.122070,-0.061035
471637666,0.00132751,0.00839233,-1.00747681,0.488281,0.000000,-0.183105
476606041,0.00180054,0.00875854,-1.00659180,0.488281,0.061035,0.000000
481665666,0.00260925,0.00912476,-1.00575256,0.305176,-0.061035,-0.122070
486626500,0.00270081,0.00930786,-1.00596619,0.244141,0.122070,0.061035
491661666,0.00212097,0.00939941,-1.00674438,0.305176,0.122070,-0.061035
496651750,0.00140381,0.00947571,-1.00685120,0.183105,-0.061035,0.000000
501607541,0.00115967,0.00923157,-1.00608826,0.305176,0.183105,0.000000
506841750,0.00151062,0.00898743,-1.00578308,0.305176,0.000000,0.000000
511652791,0.00192261,0.00901794,-1.00630188,0.427246,-0.061035,-0.061035
516605583,0.00219727,0.00889587,-1.00672913,0.305176,0.061035,-0.122070
521634541,0.00256348,0.00848389,-1.00646973,0.366211,0.183105,-0.061035
526653333,0.00283813,0.00808716,-1.00619507,0.366211,0.061035,0.061035
531627500,0.00271606,0.00769043,-1.00621033,0.305176,-0.061035,-0.061035
536645416,0.00248718,0.00737000,-1.00619507,0.183105,0.000000,-0.122070
541620500,0.00251770,0.00733948,-1.00584412,0.244141,0.000000,0.000000
546628000,0.00280762,0.00740051,-1.00558472,0.366211,0.061035,-0.061035
551635958,0.00312805,0.00701904,-1.00588989,0.305176,0.061035,-0.061035
556646666,0.00354004,0.00651550,-1.00630188,0.305176,0.061035,-0.122070
561631291,0.00375366,0.00640869,-1.00619507,0.427246,0.061035,-0.183105
566626291,0.00334167,0.00642395,-1.00561523,0.366211,0.122070,-0.122070
571638958,0.00256348,0.00642395,-1.00550842,0.305176,-0.061035,-0.061035
576626041,0.00199890,0.00654602,-1.00614929,0.305176,0.122070,-0.183105
581658333,0.00187683,0.00675964,-1.00701904,0.305176,0.061035,-0.061035
586620541,0.00213623,0.00723267,-1.00732422,0.244141,0.000000,-0.183105
591653666,0.00270081,0.00756836,-1.00675964,0.427246,0.122070,-0.122070
596631791,0.00331116,0.00732422,-1.00605774,0.427246,0.061035,-0.061035
601632041,0.00312805,0.00704956,-1.00605774,0.366211,0.122070,-0.122070
606641250,0.00207520,0.00746155,-1.00650024,0.244141,0.000000,-0.122070
611648916,0.00122070,0.00814819,-1.00656128,0.244141,0.000000,-0.061035
616622416,0.00117493,0.00846863,-1.00625610,0.549316,0.000000,-0.061035
621635333,0.00140381,0.00862122,-1.00646973,0.366211,0.122070,-0.122070
626644208,0.00144958,0.00874329,-1.00721741,0.549316,0.061035,-0.122070
631630000,0.00128174,0.00880432,-1.00732422,0.305176,0.061035,-0.061035
636629041,0.00111389,0.00880432,-1.00622559,0.183105,0.061035,-0.122070
641662958,0.00134277,0.00891113,-1.00523376,0.305176,0.000000,0.061035
646622208,0.00178528,0.00903320,-1.00559998,0.244141,0.000000,-0.122070
651665625,0.00183105,0.00877380,-1.00646973,0.366211,-0.061035,-0.061035
656648125,0.00135803,0.00836182,-1.00657654,0.305176,0.061035,-0.122070
661663750,0.00103760,0.00819397,-1.00596619,0.305176,0.122070,0.061035
666631666,0.00131226,0.00798035,-1.00567627,0.183105,-0.061035,-0.061035
671643958,0.00201416,0.00741577,-1.00642395,0.427246,0.000000,-0.061035
676664333,0.00271606,0.00709534,-1.00749207,0.122070,0.122070,-0.061035
681673833,0.00302124,0.00738525,-1.00746155,0.366211,0.061035,0.061035
686693541,0.00286865,0.00761414,-1.00657654,0.183105,0.000000,-0.183105
691649416,0.00234985,0.00724792,-1.00648499,0.305176,0.000000,0.000000
696639958,0.00187683,0.00656128,-1.00724792,0.244141,0.061035,-0.061035
701650291,0.00207520,0.00614929,-1.00735474,0.305176,0.122070,0.000000
706642333,0.00277710,0.00630188,-1.00656128,0.305176,0.061035,-0.122070
711669125,0.00312805,0.00665283,-1.00607300,0.366211,0.061035,-0.122070
716643208,0.00279236,0.00665283,-1.00640869,0.427246,0.061035,-0.061035
721646041,0.00225830,0.00671387,-1.00703430,0.305176,0.122070,-0.122070
726631250,0.00210571,0.00723267,-1.00709534,0.305176,0.000000,-0.122070
731664958,0.00239563,0.00761414,-1.00642395,0.427246,0.122070,-0.122070
736644416,0.00230408,0.00759888,-1.00578308,0.305176,0.061035,-0.122070
741663458,0.00184631,0.00804138,-1.00582886,0.366211,0.000000,-0.122070
746651083,0.00170898,0.00888062,-1.00630188,0.244141,0.000000,-0.122070
751671916,0.00184631,0.00932312,-1.00639343,0.366211,0.122070,0.000000
756658291,0.00172424,0.00926208,-1.00616455,0.305176,0.061035,0.000000
761755208,0.00129700,0.00874329,-1.00645447,0.244141,0.061035,0.000000
766639708,0.00126648,0.00813293,-1.00740051,0.244141,0.000000,-0.061035
771640833,0.00178528,0.00810242,-1.00779724,0.244141,0.061035,-0.061035
776628708,0.00187683,0.00871277,-1.00730896,0.305176,0.000000,0.000000
781689125,0.00103760,0.00926208,-1.00685120,0.244141,0.061035,-0.183105
786650083,0.00030518,0.00926208,-1.00694275,0.244141,0.000000,0.000000
791660583,0.00065613,0.00877380,-1.00715637,0.244141,0.000000,-0.061035
796646250,0.00151062,0.00833130,-1.00694275,0.366211,0.061035,-0.183105
801672041,0.00192261,0.00836182,-1.00660706,0.366211,0.122070,-0.183105
806657333,0.00221252,0.00843811,-1.00646973,0.244141,0.061035,-0.183105
811649708,0.00268555,0.00813293,-1.00650024,0.305176,0.122070,-0.061035
816658250,0.00306702,0.00779724,-1.00663757,0.366211,0.061035,-0.061035
821668833,0.00311279,0.00772095,-1.00650024,0.305176,0.061035,-0.061035
826650791,0.00259399,0.00775146,-1.00610352,0.183105,0.000000,-0.122070
831661583,0.00198364,0.00759888,-1.00592041,0.244141,-0.061035,-0.122070
836647583,0.00234985,0.00726318,-1.00602722,0.183105,0.000000,-0.061035
841697166,0.00340271,0.00680542,-1.00592041,0.366211,0.122070,-0.061035
846649916,0.00384521,0.00651550,-1.00588989,0.244141,0.061035,-0.183105
851680625,0.00328064,0.00685120,-1.00617981,0.366211,0.122070,0.000000
856672583,0.00242615,0.00750732,-1.00648499,0.244141,0.122070,-0.244141
861677625,0.00225830,0.00796509,-1.00654602,0.305176,0.122070,-0.183105
866661541,0.00268555,0.00820923,-1.00608826,0.305176,0.000000,-0.183105
871684250,0.00297546,0.00830078,-1.00567627,0.305176,0.061035,-0.183105
876667041,0.00286865,0.00816345,-1.00621033,0.488281,0.122070,0.000000
881712750,0.00239563,0.00790405,-1.00717163,0.305176,0.122070,-0.061035
886656250,0.00196838,0.00776672,-1.00708008,0.305176,0.000000,-0.244141
891691666,0.00173950,0.00781250,-1.00602722,0.305176,0.000000,-0.122070
896670875,0.00138855,0.00793457,-1.00537109,0.305176,0.122070,-0.061035
901694291,0.00106812,0.00807190,-1.00553894,0.366211,0.061035,-0.061035
906707166,0.00122070,0.00837708,-1.00585938,0.366211,0.000000,-0.122070
911700958,0.00178528,0.00859070,-1.00595093,0.305176,0.000000,-0.061035
916663500,0.00250244,0.00845337,-1.00601196,0.366211,0.122070,-0.122070
921675083,0.00282288,0.00830078,-1.00637817,0.244141,0.000000,-0.061035
926668666,0.00234985,0.00843811,-1.00708008,0.366211,0.000000,0.000000
931681708,0.00178528,0.00862122,-1.00747681,0.244141,0.183105,-0.061035
936652416,0.00190735,0.00877380,-1.00703430,0.305176,-0.061035,0.000000
941669416,0.00228882,0.00881958,-1.00642395,0.366211,0.122070,-0.122070
946683375,0.00225830,0.00842285,-1.00628662,0.427246,0.061035,-0.122070
951682375,0.00201416,0.00772095,-1.00651550,0.244141,0.061035,-0.061035
956678833,0.00202942,0.00737000,-1.00657654,0.366211,0.061035,-0.061035
961686666,0.00228882,0.00762939,-1.00650024,0.244141,0.183105,-0.122070
966664875,0.00231934,0.00808716,-1.00660706,0.305176,0.061035,-0.183105
971682541,0.00209045,0.00808716,-1.00672913,0.366211,0.122070,-0.061035
976690208,0.00192261,0.00744629,-1.00624084,0.366211,0.061035,-0.061035
981700583,0.00202942,0.00675964,-1.00535583,0.366211,0.122070,-0.122070
986671916,0.00218201,0.00685120,-1.00531006,0.366211,0.061035,-0.122070
991680541,0.00215149,0.00750732,-1.00639343,0.305176,0.122070,-0.061035
996739875,0.00230408,0.00788879,-1.00727844,0.244141,-0.061035,-0.122070
1001690291,0.00260925,0.00790405,-1.00691223,0.366211,-0.061035,-0.061035
1006704500,0.00254822,0.00801086,-1.00593567,0.305176,0.000000,-0.061035
1011693541,0.00210571,0.00846863,-1.00576782,0.366211,0.122070,-0.061035
1016666500,0.00164795,0.00857544,-1.00640869,0.427246,0.000000,-0.122070
1021699083,0.00154114,0.00799561,-1.00653076,0.366211,0.000000,-0.244141
1026681791,0.00166321,0.00773621,-1.00576782,0.366211,0.061035,-0.061035
1031694916,0.00178528,0.00834656,-1.00517273,0.427246,0.000000,-0.183105
1036688250,0.00209045,0.00889587,-1.00543213,0.244141,0.000000,-0.122070
1041706000,0.00221252,0.00880432,-1.00593567,0.549316,0.122070,-0.122070
1046695708,0.00201416,0.00846863,-1.00593567,0.366211,0.061035,-0.061035
1051701750,0.00160217,0.00856018,-1.00556946,0.305176,0.000000,-0.061035
1056683958,0.00117493,0.00874329,-1.00549316,0.244141,-0.061035,-0.061035
1061691041,0.00102234,0.00859070,-1.00598145,0.427246,0.183105,-0.183105
1066701041,0.00129700,0.00849915,-1.00665283,0.366211,0.122070,-0.061035
1071707208,0.00172424,0.00837708,-1.00656128,0.366211,0.061035,-0.061035
1076695416,0.00202942,0.00825500,-1.00613403,0.488281,0.000000,0.000000
1081703458,0.00224304,0.00834656,-1.00616455,0.427246,-0.061035,-0.061035
1086700708,0.00227356,0.00823975,-1.00656128,0.366211,0.122070,-0.122070
1091754500,0.00228882,0.00814819,-1.00654602,0.549316,0.122070,0.061035
1096712875,0.00228882,0.00836182,-1.00556946,0.244141,0.061035,-0.122070
1101699958,0.00212097,0.00825500,-1.00497437,0.427246,0.122070,-0.061035
1106723875,0.00202942,0.00769043,-1.00578308,0.122070,0.061035,-0.122070
1111706791,0.00224304,0.00738525,-1.00694275,0.244141,0.000000,-0.122070
1116693333,0.00248718,0.00732422,-1.00714111,0.305176,0.122070,-0.061035
1121717791,0.00256348,0.00715637,-1.00672913,0.305176,0.000000,0.000000
1126671041,0.00267029,0.00726318,-1.00686646,0.366211,0.061035,-0.061035
1131701541,0.00279236,0.00782776,-1.00746155,0.305176,0.061035,-0.061035
1136696041,0.00268555,0.00823975,-1.00752258,0.244141,0.000000,-0.122070
1141719083,0.00247192,0.00801086,-1.00659180,0.427246,0.122070,-0.061035
1146711500,0.00250244,0.00740051,-1.00588989,0.305176,-0.061035,-0.122070
1151721791,0.00286865,0.00709534,-1.00650024,0.366211,0.061035,-0.122070
1156752916,0.00292969,0.00724792,-1.00735474,0.305176,0.183105,-0.122070
1161719791,0.00236511,0.00718689,-1.00709534,0.427246,0.183105,0.000000
1166691541,0.00183105,0.00689697,-1.00630188,0.366211,0.183105,-0.122070
1171707583,0.00175476,0.00701904,-1.00621033,0.244141,0.122070,-0.183105
1176689791,0.00183105,0.00765991,-1.00659180,0.305176,0.122070,-0.061035
1181718041,0.00190735,0.00805664,-1.00657654,0.305176,0.000000,-0.061035
1186684583,0.00222778,0.00781250,-1.00617981,0.183105,-0.061035,-0.061035
1191703250,0.00251770,0.00779724,-1.00621033,0.305176,0.122070,-0.061035
1196685416,0.00219727,0.00839233,-1.00643921,0.305176,0.000000,-0.122070
1201727541,0.00177002,0.00904846,-1.00607300,0.305176,0.183105,0.000000
1206711250,0.00177002,0.00917053,-1.00564575,0.366211,0.000000,-0.061035
1211735333,0.00204468,0.00894165,-1.00599670,0.366211,0.061035,-0.061035
1216714625,0.00247192,0.00868225,-1.00674438,0.183105,-0.061035,-0.061035
1221710666,0.00268555,0.00845337,-1.00711060,0.427246,0.061035,0.000000
1226685125,0.00247192,0.00837708,-1.00669861,0.366211,0.061035,-0.061035
1231729041,0.00209045,0.00827026,-1.00601196,0.366211,0.061035,-0.061035
1236708125,0.00195312,0.00784302,-1.00619507,0.244141,0.061035,0.000000
1241727541,0.00216675,0.00738525,-1.00711060,0.427246,0.122070,0.000000
1246715041,0.00244141,0.00761414,-1.00743103,0.305176,0.000000,-0.122070
1251726416,0.00277710,0.00822449,-1.00680542,0.427246,-0.061035,-0.061035
1256732583,0.00318909,0.00825500,-1.00599670,0.427246,0.000000,-0.122070
1261720458,0.00326538,0.00747681,-1.00559998,0.366211,0.000000,-0.122070
1266699125,0.00317383,0.00682068,-1.00570679,0.244141,0.061035,0.000000
1271725250,0.00320435,0.00685120,-1.00622559,0.305176,0.122070,-0.183105
1276741250,0.00305176,0.00746155,-1.00662231,0.305176,0.000000,-0.122070
1281729916,0.00274658,0.00805664,-1.00653076,0.366211,0.122070,-0.183105
1286704208,0.00274658,0.00785828,-1.00646973,0.305176,0.061035,-0.061035
1291733166,0.00276184,0.00691223,-1.00666809,0.366211,0.000000,-0.122070
1296712666,0.00248718,0.00628662,-1.00660706,0.183105,0.000000,-0.061035
1301711583,0.00239563,0.00665283,-1.00601196,0.366211,0.061035,0.000000
1306702791,0.00268555,0.00744629,-1.00563049,0.366211,0.061035,-0.244141
1311718708,0.00292969,0.00831604,-1.00616455,0.427246,0.000000,-0.122070
1316724875,0.00277710,0.00904846,-1.00701904,0.366211,-0.061035,-0.244141
1321719666,0.00228882,0.00920105,-1.00704956,0.183105,0.061035,-0.183105
1326741625,0.00190735,0.00880432,-1.00631714,0.366211,-0.061035,-0.183105
1331735833,0.00173950,0.00862122,-1.00607300,0.244141,0.061035,0.000000
1336710041,0.00149536,0.00892639,-1.00660706,0.305176,0.122070,0.183105
1341730583,0.00167847,0.00926208,-1.00685120,0.305176,0.000000,-0.122070
1346722083,0.00221252,0.00921631,-1.00607300,0.244141,-0.061035,-0.061035
1351724416,0.00192261,0.00874329,-1.00540161,0.305176,-0.061035,0.061035
1356835416,0.00111389,0.00817871,-1.00593567,0.427246,0.061035,-0.061035
1361732000,0.00111389,0.00787354,-1.00669861,0.366211,0.122070,-0.061035
1366729458,0.00177002,0.00805664,-1.00624084,0.427246,0.061035,-0.061035
1371724166,0.00231934,0.00831604,-1.00529480,0.244141,0.000000,-0.061035
1376708541,0.00253296,0.00819397,-1.00534058,0.244141,0.061035,-0.061035
1381751458,0.00270081,0.00810242,-1.00637817,0.305176,0.061035,0.122070
1386734625,0.00289917,0.00819397,-1.00709534,0.427246,-0.061035,-0.183105
1391792708,0.00279236,0.00813293,-1.00657654,0.549316,0.183105,-0.061035
1396739875,0.00250244,0.00775146,-1.00570679,0.183105,0.061035,-0.061035
1401741000,0.00228882,0.00743103,-1.00596619,0.244141,0.000000,-0.061035
1406725166,0.00216675,0.00721741,-1.00714111,0.366211,0.000000,-0.061035
1411733166,0.00225830,0.00712585,-1.00738525,0.366211,0.061035,-0.061035
1416736083,0.00247192,0.00720215,-1.00588989,0.305176,0.061035,0.000000
1421754916,0.00265503,0.00714111,-1.00419617,0.244141,0.061035,-0.122070
1426727708,0.00267029,0.00675964,-1.00434875,0.366211,0.122070,0.061035
1431754083,0.00234985,0.00656128,-1.00611877,0.244141,0.061035,-0.122070
1436730083,0.00198364,0.00701904,-1.00720215,0.366211,0.122070,-0.061035
1441774333,0.00186157,0.00791931,-1.00671387,0.305176,0.061035,-0.183105
1446723625,0.00192261,0.00865173,-1.00616455,0.488281,-0.061035,-0.122070
1451759541,0.00209045,0.00875854,-1.00640869,0.244141,0.122070,-0.061035
1456764250,0.00219727,0.00845337,-1.00674438,0.305176,0.061035,0.000000
1461832250,0.00207520,0.00823975,-1.00648499,0.244141,0.122070,-0.061035
1466742250,0.00195312,0.00833130,-1.00601196,0.244141,0.061035,-0.122070
1471750791,0.00201416,0.00860596,-1.00596619,0.305176,0.122070,0.000000
1476759166,0.00233459,0.00869751,-1.00659180,0.366211,0.122070,-0.061035
1481765000,0.00238037,0.00848389,-1.00718689,0.244141,0.061035,0.000000
1486723708,0.00193787,0.00828552,-1.00682068,0.305176,0.061035,-0.061035
1491762208,0.00189209,0.00833130,-1.00605774,0.549316,-0.061035,-0.183105
1496774833,0.00247192,0.00860596,-1.00578308,0.305176,0.000000,0.000000
1501749375,0.00292969,0.00874329,-1.00614929,0.305176,0.061035,-0.122070
1506862583,0.00279236,0.00845337,-1.00642395,0.305176,0.122070,-0.122070
1511783291,0.00218201,0.00793457,-1.00604248,0.305176,0.061035,0.061035
1516724833,0.00148010,0.00770569,-1.00579834,0.427246,0.122070,0.000000
1521756666,0.00132751,0.00781250,-1.00639343,0.244141,0.061035,-0.061035
1526784041,0.00166321,0.00802612,-1.00714111,0.305176,0.061035,-0.122070
1531818583,0.00190735,0.00814819,-1.00721741,0.061035,0.122070,-0.061035
1536795000,0.00202942,0.00799561,-1.00656128,0.305176,0.000000,-0.366211
1541761291,0.00224304,0.00779724,-1.00598145,0.488281,0.061035,-0.061035
1546733583,0.00270081,0.00770569,-1.00631714,0.427246,0.061035,-0.122070
1551764416,0.00317383,0.00755310,-1.00697327,0.305176,0.122070,0.061035
1556785083,0.00323486,0.00764465,-1.00666809,0.366211,0.183105,-0.122070
1561766833,0.00292969,0.00811768,-1.00556946,0.427246,0.061035,-0.122070
1566758041,0.00285339,0.00819397,-1.00540161,0.366211,-0.061035,-0.122070
1571766125,0.00297546,0.00769043,-1.00677490,0.183105,0.000000,-0.122070
1576744375,0.00259399,0.00740051,-1.00784302,0.305176,-0.122070,-0.061035
1581775375,0.00183105,0.00761414,-1.00724792,0.366211,0.122070,-0.183105
1586761875,0.00137329,0.00794983,-1.00616455,0.183105,-0.122070,-0.061035
1591751583,0.00140381,0.00813293,-1.00613403,0.305176,-0.061035,-0.061035
1596747500,0.00177002,0.00805664,-1.00686646,0.366211,0.000000,-0.122070
1601767458,0.00219727,0.00805664,-1.00712585,0.427246,0.000000,-0.122070
1606743375,0.00231934,0.00808716,-1.00666809,0.366211,0.000000,-0.061035
1611788458,0.00210571,0.00796509,-1.00610352,0.244141,0.061035,-0.122070
1616808208,0.00184631,0.00798035,-1.00598145,0.305176,0.061035,-0.061035
1621765625,0.00149536,0.00819397,-1.00640869,0.366211,0.061035,-0.061035
1626774458,0.00123596,0.00828552,-1.00645447,0.366211,0.000000,-0.061035
1631776750,0.00158691,0.00802612,-1.00573730,0.305176,0.122070,-0.061035
1636767541,0.00222778,0.00764465,-1.00534058,0.305176,0.183105,0.061035
1641770500,0.00253296,0.00772095,-1.00624084,0.305176,0.000000,-0.061035
1646738875,0.00248718,0.00788879,-1.00764465,0.305176,0.000000,-0.061035
1651773708,0.00222778,0.00788879,-1.00801086,0.244141,0.061035,-0.061035
1656760875,0.00198364,0.00796509,-1.00726318,0.366211,0.183105,-0.183105
1661755833,0.00189209,0.00798035,-1.00646973,0.366211,0.061035,-0.122070
1666764291,0.00193787,0.00798035,-1.00634766,0.427246,0.061035,-0.061035
1671763791,0.00209045,0.00823975,-1.00660706,0.366211,0.000000,-0.061035
1676762416,0.00230408,0.00820923,-1.00657654,0.305176,0.061035,-0.122070
1681792833,0.00227356,0.00758362,-1.00639343,0.305176,0.061035,-0.061035
1686755791,0.00216675,0.00695801,-1.00628662,0.366211,0.122070,-0.061035
1691771375,0.00228882,0.00698853,-1.00613403,0.305176,0.122070,0.000000
1696777416,0.00242615,0.00772095,-1.00590515,0.244141,0.061035,-0.061035
1701773250,0.00247192,0.00852966,-1.00575256,0.305176,0.000000,-0.122070
1706764833,0.00247192,0.00883484,-1.00596619,0.122070,0.061035,-0.061035
1711779166,0.00242615,0.00852966,-1.00648499,0.427246,0.000000,0.061035
1716755875,0.00212097,0.00794983,-1.00668335,0.305176,0.000000,-0.122070
1721779041,0.00187683,0.00743103,-1.00645447,0.244141,0.122070,-0.244141
1726765000,0.00193787,0.00726318,-1.00614929,0.366211,0.000000,-0.122070
1731784666,0.00183105,0.00752258,-1.00627136,0.427246,-0.061035,-0.183105
1736770583,0.00154114,0.00814819,-1.00665283,0.244141,0.000000,0.061035
1741806000,0.00148010,0.00856018,-1.00630188,0.366211,-0.061035,-0.244141
1746768583,0.00157166,0.00846863,-1.00546265,0.305176,0.061035,-0.061035
1751774208,0.00138855,0.00810242,-1.00531006,0.244141,0.000000,-0.061035
1756848041,0.00128174,0.00781250,-1.00598145,0.366211,0.000000,-0.183105
1761865083,0.00198364,0.00782776,-1.00633240,0.305176,0.000000,-0.061035
1766783833,0.00328064,0.00805664,-1.00561523,0.183105,0.061035,0.061035
1771835791,0.00379944,0.00804138,-1.00476074,0.366211,0.000000,0.000000
1776774916,0.00302124,0.00785828,-1.00502014,0.549316,0.122070,-0.183105
1781786958,0.00222778,0.00785828,-1.00592041,0.305176,0.000000,-0.061035
1786772916,0.00218201,0.00823975,-1.00627136,0.427246,0.061035,0.000000
1791808333,0.00245667,0.00851440,-1.00601196,0.305176,0.061035,-0.183105
1796804416,0.00274658,0.00807190,-1.00566101,0.305176,0.183105,-0.061035
1801795750,0.00279236,0.00756836,-1.00588989,0.366211,0.000000,-0.061035
1806771875,0.00233459,0.00769043,-1.00637817,0.305176,0.000000,0.000000
1811787500,0.00172424,0.00779724,-1.00636292,0.305176,0.061035,-0.061035
1816786458,0.00161743,0.00752258,-1.00604248,0.366211,0.061035,-0.061035
1821803583,0.00178528,0.00727844,-1.00607300,0.305176,0.122070,-0.061035
1826780333,0.00198364,0.00721741,-1.00643921,0.305176,0.122070,-0.061035
1831796291,0.00242615,0.00711060,-1.00657654,0.366211,0.061035,0.000000
1836789875,0.00274658,0.00712585,-1.00613403,0.244141,0.000000,0.000000
1841799041,0.00276184,0.00749207,-1.00569153,0.366211,0.061035,-0.061035
1847017750,0.00265503,0.00782776,-1.00559998,0.366211,0.122070,-0.122070
1851800458,0.00241089,0.00802612,-1.00579834,0.244141,0.000000,-0.061035
1856787458,0.00236511,0.00825500,-1.00634766,0.305176,0.122070,-0.183105
1861792000,0.00260925,0.00831604,-1.00683594,0.244141,0.122070,-0.122070
1866768708,0.00265503,0.00791931,-1.00691223,0.366211,0.061035,-0.061035
1871789416,0.00221252,0.00781250,-1.00657654,0.488281,0.183105,-0.122070
1876786500,0.00186157,0.00837708,-1.00611877,0.427246,0.061035,-0.122070
1881821875,0.00215149,0.00903320,-1.00598145,0.244141,-0.122070,-0.183105
1886775458,0.00270081,0.00898743,-1.00605774,0.244141,-0.061035,-0.183105
1891791791,0.00277710,0.00816345,-1.00585938,0.427246,0.061035,-0.061035
1896781791,0.00228882,0.00747681,-1.00550842,0.427246,0.122070,-0.183105
1901792625,0.00163269,0.00767517,-1.00537109,0.305176,0.122070,-0.122070
1906792916,0.00144958,0.00840759,-1.00555420,0.366211,0.061035,-0.122070
1911794166,0.00184631,0.00881958,-1.00588989,0.244141,0.061035,-0.122070
1916798375,0.00193787,0.00860596,-1.00630188,0.244141,0.000000,0.000000
1921800000,0.00173950,0.00794983,-1.00671387,0.305176,0.000000,-0.122070
1926842041,0.00178528,0.00740051,-1.00691223,0.305176,0.000000,-0.122070
1931819125,0.00201416,0.00746155,-1.00689697,0.244141,0.122070,-0.183105
1936812875,0.00230408,0.00796509,-1.00675964,0.366211,0.244141,0.000000
1941805916,0.00247192,0.00823975,-1.00642395,0.305176,0.122070,-0.122070
1946801875,0.00257874,0.00804138,-1.00628662,0.244141,0.061035,-0.244141
1951786125,0.00250244,0.00781250,-1.00657654,0.244141,0.061035,-0.061035
1956816208,0.00199890,0.00793457,-1.00656128,0.305176,0.061035,-0.061035
1961814666,0.00172424,0.00830078,-1.00614929,0.183105,0.061035,-0.183105
1966802250,0.00199890,0.00817871,-1.00607300,0.366211,0.122070,-0.122070
1971854375,0.00204468,0.00756836,-1.00648499,0.305176,0.000000,-0.122070
1976824333,0.00172424,0.00708008,-1.00703430,0.366211,0.061035,0.061035
1981826083,0.00181580,0.00704956,-1.00720215,0.244141,-0.061035,-0.122070
1986792916,0.00234985,0.00724792,-1.00656128,0.366211,0.000000,-0.061035
1991883833,0.00280762,0.00738525,-1.00550842,0.366211,-0.061035,-0.183105
1996825458,0.00280762,0.00767517,-1.00520325,0.244141,0.000000,-0.122070
2001811583,0.00270081,0.00830078,-1.00582886,0.366211,0.000000,-0.061035
2006833666,0.00296021,0.00851440,-1.00633240,0.244141,0.061035,-0.122070
2011812500,0.00323486,0.00811768,-1.00631714,0.427246,0.122070,-0.122070
2016799458,0.00289917,0.00776672,-1.00627136,0.488281,-0.122070,-0.061035
2021812791,0.00210571,0.00772095,-1.00624084,0.305176,0.061035,-0.183105
2026873458,0.00149536,0.00782776,-1.00621033,0.305176,0.122070,-0.183105
2031813041,0.00138855,0.00793457,-1.00665283,0.549316,0.122070,-0.122070
2036824416,0.00140381,0.00784302,-1.00723267,0.366211,0.000000,-0.122070
2041815583,0.00143433,0.00759888,-1.00709534,0.305176,0.000000,0.000000
2046830291,0.00180054,0.00765991,-1.00689697,0.488281,0.122070,0.000000
2051822708,0.00234985,0.00790405,-1.00730896,0.366211,0.122070,0.000000
2056816416,0.00242615,0.00772095,-1.00749207,0.305176,0.000000,-0.122070
2061833833,0.00212097,0.00717163,-1.00685120,0.305176,-0.061035,-0.122070
2066827791,0.00222778,0.00689697,-1.00587463,0.305176,0.000000,-0.122070
2071815500,0.00274658,0.00721741,-1.00553894,0.366211,0.122070,-0.061035
2076831666,0.00303650,0.00762939,-1.00627136,0.305176,0.122070,-0.061035
2081851958,0.00286865,0.00761414,-1.00730896,0.305176,0.061035,-0.061035
2086826291,0.00224304,0.00726318,-1.00732422,0.244141,-0.061035,-0.122070
2091966583,0.00170898,0.00720215,-1.00643921,0.183105,0.000000,0.061035
2096962708,0.00195312,0.00765991,-1.00602722,0.183105,0.244141,-0.122070
2101871375,0.00259399,0.00801086,-1.00642395,0.183105,0.000000,0.000000
2106886541,0.00263977,0.00807190,-1.00683594,0.488281,0.061035,0.061035
2111875791,0.00192261,0.00817871,-1.00665283,0.244141,0.061035,-0.183105
2116853625,0.00115967,0.00837708,-1.00611877,0.244141,0.183105,-0.061035
2121927000,0.00102234,0.00863647,-1.00581360,0.305176,0.183105,-0.122070
2126922666,0.00132751,0.00878906,-1.00579834,0.427246,0.061035,-0.122070
2131897958,0.00169373,0.00868225,-1.00567627,0.305176,0.000000,-0.122070
2136882250,0.00172424,0.00825500,-1.00549316,0.366211,0.000000,-0.183105
2141981041,0.00144958,0.00782776,-1.00566101,0.488281,0.061035,-0.244141
2146876500,0.00148010,0.00765991,-1.00631714,0.488281,0.061035,-0.061035
2151882583,0.00173950,0.00750732,-1.00683594,0.427246,0.122070,-0.122070
2156896750,0.00173950,0.00747681,-1.00666809,0.366211,0.061035,-0.061035
2161903000,0.00169373,0.00756836,-1.00599670,0.427246,0.061035,-0.122070
2166917166,0.00196838,0.00759888,-1.00558472,0.305176,-0.061035,-0.061035
2171909458,0.00218201,0.00779724,-1.00593567,0.305176,0.000000,0.000000
2176898708,0.00213623,0.00813293,-1.00677490,0.305176,0.000000,-0.122070
2181862708,0.00219727,0.00814819,-1.00746155,0.305176,0.000000,-0.183105
2186878541,0.00238037,0.00794983,-1.00747681,0.305176,0.000000,0.000000
2191876000,0.00241089,0.00801086,-1.00712585,0.366211,0.061035,-0.122070
2196836166,0.00204468,0.00817871,-1.00657654,0.305176,0.122070,-0.122070
2201840833,0.00157166,0.00819397,-1.00587463,0.366211,0.122070,-0.122070
2206876666,0.00140381,0.00845337,-1.00547791,0.427246,0.000000,0.061035
2211855583,0.00160217,0.00895691,-1.00573730,0.305176,0.061035,0.000000
2216819875,0.00187683,0.00907898,-1.00640869,0.305176,-0.061035,-0.061035
2221845250,0.00196838,0.00885010,-1.00660706,0.366211,0.000000,0.061035
2226843166,0.00222778,0.00852966,-1.00621033,0.305176,0.061035,-0.061035
2231849166,0.00270081,0.00811768,-1.00593567,0.488281,0.183105,-0.122070
2236837833,0.00268555,0.00798035,-1.00613403,0.427246,0.000000,-0.244141
2241845083,0.00201416,0.00810242,-1.00631714,0.427246,0.061035,-0.122070
2246814583,0.00160217,0.00804138,-1.00616455,0.610352,0.061035,-0.183105
2251849166,0.00164795,0.00784302,-1.00585938,0.427246,0.122070,-0.122070
2256838625,0.00155640,0.00765991,-1.00563049,0.549316,0.061035,-0.061035
2261915250,0.00163269,0.00738525,-1.00584412,0.488281,0.061035,-0.061035
2266833166,0.00228882,0.00694275,-1.00645447,0.549316,0.061035,-0.061035
2271847708,0.00291443,0.00656128,-1.00671387,0.427246,-0.061035,-0.183105
2276831125,0.00305176,0.00659180,-1.00621033,0.549316,0.122070,-0.122070
2281869666,0.00296021,0.00672913,-1.00588989,0.488281,0.061035,-0.183105
2286880125,0.00285339,0.00666809,-1.00660706,0.366211,0.000000,-0.122070
2291860958,0.00273132,0.00683594,-1.00733948,0.366211,0.061035,-0.122070
2296825208,0.00274658,0.00740051,-1.00677490,0.366211,0.122070,-0.122070
2301848833,0.00268555,0.00778198,-1.00569153,0.549316,0.061035,-0.061035
2306838541,0.00251770,0.00765991,-1.00538635,0.366211,-0.061035,-0.061035
2311855750,0.00239563,0.00759888,-1.00567627,0.488281,0.000000,-0.061035
2316845375,0.00244141,0.00787354,-1.00607300,0.305176,0.000000,-0.061035
2321858791,0.00274658,0.00782776,-1.00628662,0.488281,0.122070,-0.061035
2326861041,0.00338745,0.00727844,-1.00593567,0.427246,0.122070,0.000000
2331857625,0.00366211,0.00706482,-1.00544739,0.305176,0.183105,-0.183105
2336831166,0.00288391,0.00738525,-1.00509644,0.427246,0.061035,-0.122070
2341844208,0.00160217,0.00738525,-1.00433350,0.366211,0.244141,-0.061035
2346858541,0.00106812,0.00685120,-1.00364685,0.244141,0.061035,-0.122070
2351852875,0.00131226,0.00634766,-1.00462341,0.366211,0.122070,0.000000
2356854083,0.00135803,0.00622559,-1.00735474,0.427246,0.061035,0.061035
2361866916,0.00137329,0.00630188,-1.00962830,0.427246,0.000000,-0.122070
2366853666,0.00186157,0.00634766,-1.00936890,0.427246,0.122070,-0.061035
2371843625,0.00230408,0.00634766,-1.00737000,0.427246,0.061035,-0.061035
2376848875,0.00221252,0.00627136,-1.00576782,0.488281,-0.122070,-0.061035
2381859541,0.00202942,0.00602722,-1.00537109,0.488281,0.061035,-0.183105
2386841000,0.00215149,0.00576782,-1.00579834,0.610352,0.183105,-0.122070
2391945583,0.00242615,0.00601196,-1.00619507,0.366211,0.061035,-0.061035
2396841791,0.00280762,0.00665283,-1.00611877,0.549316,0.000000,-0.061035
2401870708,0.00334167,0.00701904,-1.00608826,0.549316,0.061035,-0.122070
2406846666,0.00343323,0.00662231,-1.00593567,0.671387,0.061035,-0.183105
2411864208,0.00292969,0.00617981,-1.00543213,0.488281,0.122070,-0.122070
2416854541,0.00265503,0.00637817,-1.00541687,0.549316,0.061035,-0.122070
2421871333,0.00282288,0.00677490,-1.00588989,0.488281,-0.061035,-0.122070
2426857083,0.00321960,0.00692749,-1.00604248,0.610352,0.183105,-0.061035
2431866416,0.00338745,0.00700378,-1.00654602,0.549316,0.122070,-0.122070
2436885166,0.00279236,0.00720215,-1.00747681,0.244141,-0.061035,-0.122070
2441870000,0.00228882,0.00755310,-1.00764465,0.488281,0.000000,-0.183105
2446848583,0.00268555,0.00820923,-1.00698853,0.366211,0.000000,-0.244141
2451875041,0.00312805,0.00888062,-1.00613403,0.427246,0.122070,-0.122070
2456864541,0.00273132,0.00927734,-1.00575256,0.488281,0.061035,0.000000
2461876500,0.00193787,0.00933838,-1.00604248,0.488281,0.000000,-0.122070
2466862208,0.00164795,0.00927734,-1.00640869,0.549316,0.000000,-0.183105
2471874333,0.00181580,0.00924683,-1.00663757,0.305176,-0.061035,-0.183105
2476860750,0.00196838,0.00924683,-1.00663757,0.427246,-0.061035,-0.122070
2481872500,0.00192261,0.00923157,-1.00646973,0.305176,0.122070,-0.061035
2486869500,0.00167847,0.00897217,-1.00669861,0.427246,0.000000,0.061035
2491865000,0.00146484,0.00849915,-1.00683594,0.488281,0.000000,-0.122070
2496895791,0.00146484,0.00822449,-1.00613403,0.366211,0.000000,-0.061035
2501869500,0.00169373,0.00819397,-1.00544739,0.427246,0.122070,-0.183105
2506865916,0.00181580,0.00807190,-1.00588989,0.549316,-0.061035,-0.061035
2511887750,0.00148010,0.00781250,-1.00657654,0.366211,0.061035,-0.061035
2516849666,0.00125122,0.00752258,-1.00630188,0.427246,0.061035,-0.061035
2521864541,0.00173950,0.00759888,-1.00561523,0.549316,0.000000,-0.183105
2526884958,0.00251770,0.00799561,-1.00558472,0.549316,0.061035,-0.061035
2531881083,0.00314331,0.00801086,-1.00601196,0.366211,0.122070,-0.061035
2536868458,0.00360107,0.00733948,-1.00546265,0.488281,0.000000,0.000000
2541887708,0.00367737,0.00659180,-1.00459290,0.427246,-0.061035,0.000000
2546872416,0.00367737,0.00651550,-1.00532532,0.549316,0.000000,-0.183105
2551887916,0.00401306,0.00695801,-1.00653076,0.549316,0.000000,-0.122070
2556918958,0.00416565,0.00708008,-1.00610352,0.427246,0.061035,-0.061035
2561877750,0.00367737,0.00662231,-1.00488281,0.427246,0.061035,0.000000
2566881583,0.00302124,0.00602722,-1.00529480,0.427246,0.061035,-0.122070
2571875500,0.00276184,0.00582886,-1.00785828,0.244141,-0.061035,-0.061035
2576866416,0.00260925,0.00617981,-1.00975037,0.244141,0.122070,0.000000
2581894083,0.00222778,0.00646973,-1.00865173,0.244141,0.183105,-0.061035
2586882500,0.00183105,0.00596619,-1.00642395,0.244141,0.122070,-0.061035
2591886083,0.00155640,0.00512695,-1.00532532,0.305176,0.122070,0.000000
2596887208,0.00146484,0.00476074,-1.00526428,0.366211,0.183105,-0.061035
2601881166,0.00148010,0.00517273,-1.00573730,0.427246,0.061035,0.000000
2606907333,0.00114441,0.00605774,-1.00625610,0.366211,0.000000,-0.061035
2611884833,0.00083923,0.00689697,-1.00648499,0.427246,0.061035,-0.122070
2616892791,0.00123596,0.00744629,-1.00669861,0.366211,0.061035,-0.122070
2621902083,0.00175476,0.00791931,-1.00680542,0.244141,0.000000,0.000000
2626919583,0.00178528,0.00825500,-1.00611877,0.244141,0.061035,0.061035
2631901625,0.00193787,0.00823975,-1.00547791,0.427246,0.061035,-0.122070
2636876625,0.00288391,0.00811768,-1.00593567,0.244141,-0.122070,-0.305176
2641891875,0.00398254,0.00801086,-1.00654602,0.244141,0.061035,0.000000
2646890208,0.00419617,0.00770569,-1.00651550,0.366211,0.000000,-0.061035
2651931541,0.00376892,0.00735474,-1.00653076,0.305176,0.000000,-0.061035
2656880958,0.00364685,0.00712585,-1.00646973,0.366211,0.000000,-0.061035
2661884333,0.00389099,0.00669861,-1.00621033,0.305176,0.122070,-0.122070
2666890625,0.00372314,0.00596619,-1.00624084,0.305176,0.061035,-0.061035
2671902625,0.00312805,0.00541687,-1.00682068,0.305176,0.061035,-0.061035
2676863583,0.00254822,0.00550842,-1.00738525,0.366211,-0.061035,-0.122070
2681910000,0.00213623,0.00616455,-1.00715637,0.244141,-0.061035,-0.183105
2686901000,0.00178528,0.00675964,-1.00619507,0.305176,-0.061035,-0.061035
2691896708,0.00175476,0.00691223,-1.00524902,0.488281,0.000000,-0.061035
2696926000,0.00209045,0.00657654,-1.00503540,0.244141,-0.061035,-0.122070
2701914583,0.00196838,0.00605774,-1.00538635,0.427246,0.061035,-0.122070
2706901250,0.00132751,0.00598145,-1.00604248,0.305176,0.061035,0.000000
2711892666,0.00102234,0.00657654,-1.00685120,0.305176,0.061035,-0.244141
2716884041,0.00125122,0.00721741,-1.00738525,0.366211,0.000000,-0.122070
2721898083,0.00140381,0.00749207,-1.00743103,0.427246,0.061035,-0.122070
2726892041,0.00132751,0.00761414,-1.00715637,0.183105,-0.061035,-0.061035
2731890041,0.00134277,0.00753784,-1.00679016,0.488281,0.000000,-0.122070
2736936291,0.00146484,0.00689697,-1.00645447,0.366211,0.061035,-0.061035
2741896791,0.00177002,0.00633240,-1.00613403,0.305176,0.000000,-0.061035
2746889166,0.00212097,0.00674438,-1.00572205,0.244141,-0.061035,-0.122070
2751921958,0.00204468,0.00773621,-1.00572205,0.488281,0.000000,-0.122070
2756941916,0.00181580,0.00837708,-1.00643921,0.244141,0.061035,0.061035
2761925500,0.00181580,0.00843811,-1.00752258,0.122070,0.000000,-0.061035
2766911333,0.00187683,0.00846863,-1.00811768,0.244141,0.000000,0.000000
2771909750,0.00173950,0.00872803,-1.00781250,0.366211,0.061035,-0.122070
2776877958,0.00183105,0.00863647,-1.00724792,0.305176,0.061035,0.000000
2781909000,0.00230408,0.00793457,-1.00671387,0.366211,0.061035,0.122070
2786886000,0.00239563,0.00698853,-1.00634766,0.305176,0.061035,-0.122070
2791956083,0.00202942,0.00653076,-1.00608826,0.427246,0.183105,0.000000
2796912791,0.00184631,0.00657654,-1.00582886,0.183105,0.061035,-0.183105
2801910250,0.00192261,0.00642395,-1.00575256,0.305176,0.061035,-0.183105
2806911416,0.00209045,0.00601196,-1.00633240,0.305176,0.000000,-0.183105
2811910750,0.00201416,0.00576782,-1.00697327,0.366211,0.122070,0.061035
2816914875,0.00149536,0.00567627,-1.00689697,0.366211,0.122070,-0.061035
2821913708,0.00117493,0.00532532,-1.00669861,0.427246,-0.061035,0.000000
2826898083,0.00114441,0.00503540,-1.00674438,0.244141,-0.061035,-0.061035
2831905916,0.00094604,0.00526428,-1.00668335,0.366211,0.061035,-0.061035
2836888166,0.00065613,0.00550842,-1.00598145,0.244141,0.061035,0.000000
2841915000,0.00088501,0.00563049,-1.00538635,0.366211,0.061035,-0.122070
2846905083,0.00155640,0.00621033,-1.00579834,0.305176,-0.061035,-0.183105
2851930708,0.00201416,0.00720215,-1.00680542,0.305176,0.122070,0.000000
2857018416,0.00204468,0.00772095,-1.00759888,0.366211,0.183105,0.000000
2861912416,0.00198364,0.00746155,-1.00749207,0.366211,-0.061035,-0.122070
2866918375,0.00212097,0.00697327,-1.00677490,0.183105,0.000000,0.000000
2871915166,0.00222778,0.00685120,-1.00650024,0.366211,0.122070,-0.061035
2876914333,0.00201416,0.00720215,-1.00692749,0.366211,0.122070,-0.122070
2881940000,0.00180054,0.00769043,-1.00741577,0.366211,0.000000,-0.061035
2886895958,0.00190735,0.00778198,-1.00726318,0.366211,0.061035,-0.061035
2891935916,0.00207520,0.00753784,-1.00646973,0.305176,0.122070,-0.061035
2896910375,0.00222778,0.00762939,-1.00592041,0.366211,0.061035,0.000000
2901926125,0.00215149,0.00814819,-1.00587463,0.244141,0.061035,-0.122070
2906932333,0.00161743,0.00865173,-1.00593567,0.366211,0.122070,-0.061035
2911961958,0.00106812,0.00871277,-1.00608826,0.244141,0.061035,-0.061035
2916944333,0.00096130,0.00843811,-1.00680542,0.244141,0.122070,-0.061035
2921943708,0.00135803,0.00828552,-1.00749207,0.305176,-0.061035,-0.122070
2926931625,0.00205994,0.00820923,-1.00733948,0.366211,0.061035,-0.061035
2931931791,0.00273132,0.00798035,-1.00657654,0.305176,-0.061035,0.061035
2936908958,0.00325012,0.00773621,-1.00582886,0.427246,0.061035,-0.122070
2941941500,0.00369263,0.00741577,-1.00570679,0.427246,-0.061035,-0.122070
2946938250,0.00390625,0.00717163,-1.00648499,0.244141,0.061035,-0.183105
2951943500,0.00375366,0.00700378,-1.00733948,0.305176,0.061035,-0.122070
2956919791,0.00361633,0.00674438,-1.00724792,0.305176,0.000000,-0.061035
2961920125,0.00367737,0.00665283,-1.00627136,0.244141,0.122070,-0.122070
2966919250,0.00358582,0.00671387,-1.00582886,0.305176,0.000000,-0.183105
2971922333,0.00318909,0.00674438,-1.00642395,0.427246,0.000000,-0.061035
2976911125,0.00292969,0.00636292,-1.00675964,0.244141,0.061035,-0.061035
2981968916,0.00311279,0.00558472,-1.00637817,0.366211,0.000000,-0.061035
2986937916,0.00355530,0.00531006,-1.00607300,0.427246,0.061035,-0.183105
2991950458,0.00346375,0.00561523,-1.00634766,0.305176,0.061035,-0.122070
2996927333,0.00262451,0.00588989,-1.00694275,0.305176,0.000000,-0.061035
3001938458,0.00192261,0.00590515,-1.00726318,0.305176,-0.061035,-0.122070
3006901208,0.00166321,0.00592041,-1.00695801,0.366211,0.122070,-0.061035
3011956791,0.00132751,0.00624084,-1.00654602,0.366211,0.000000,-0.183105
3016955500,0.00085449,0.00672913,-1.00656128,0.305176,0.000000,-0.122070
3021947250,0.00079346,0.00709534,-1.00656128,0.305176,0.000000,-0.122070
3026947500,0.00105286,0.00717163,-1.00602722,0.366211,0.122070,-0.122070
3031938541,0.00091553,0.00724792,-1.00526428,0.366211,0.000000,0.000000
3036930083,0.00041199,0.00794983,-1.00527954,0.305176,-0.061035,-0.061035
3041948541,0.00024414,0.00892639,-1.00601196,0.366211,0.000000,-0.061035
3046937250,0.00093079,0.00923157,-1.00666809,0.366211,0.122070,0.061035
3051935708,0.00224304,0.00910950,-1.00683594,0.305176,0.061035,-0.061035
3056920500,0.00321960,0.00930786,-1.00643921,0.305176,-0.061035,0.000000
3061945458,0.00331116,0.00961304,-1.00595093,0.366211,0.122070,-0.122070
3066919791,0.00317383,0.00930786,-1.00579834,0.305176,0.122070,0.000000
3071946875,0.00315857,0.00843811,-1.00590515,0.427246,0.000000,0.000000
3076932583,0.00314331,0.00759888,-1.00634766,0.488281,0.061035,0.000000
3081945125,0.00341797,0.00714111,-1.00686646,0.427246,0.061035,0.061035
3086945916,0.00396729,0.00680542,-1.00663757,0.427246,0.183105,-0.122070
3091947500,0.00422668,0.00646973,-1.00569153,0.427246,-0.061035,0.061035
3096918666,0.00376892,0.00611877,-1.00506592,0.488281,0.061035,-0.061035
3101961916,0.00311279,0.00558472,-1.00541687,0.366211,0.122070,-0.122070
3106971750,0.00303650,0.00547791,-1.00588989,0.183105,0.122070,0.000000
3111947625,0.00321960,0.00588989,-1.00559998,0.366211,0.000000,-0.122070
3116963291,0.00315857,0.00605774,-1.00544739,0.366211,0.122070,-0.061035
3121950791,0.00314331,0.00587463,-1.00596619,0.427246,-0.061035,-0.061035
3126932625,0.00328064,0.00558472,-1.00645447,0.366211,0.061035,-0.183105
3131955208,0.00323486,0.00555420,-1.00648499,0.305176,-0.061035,-0.183105
3136950125,0.00297546,0.00575256,-1.00616455,0.305176,0.122070,-0.183105
3141962583,0.00256348,0.00587463,-1.00588989,0.427246,0.000000,-0.183105
3146921250,0.00209045,0.00593567,-1.00584412,0.427246,0.000000,-0.122070
3151984291,0.00204468,0.00625610,-1.00605774,0.305176,-0.061035,-0.122070
3156950583,0.00230408,0.00671387,-1.00640869,0.305176,-0.061035,-0.183105
3161958291,0.00239563,0.00703430,-1.00695801,0.366211,0.000000,-0.122070
3166982500,0.00228882,0.00717163,-1.00740051,0.427246,0.000000,-0.061035
3171966041,0.00230408,0.00688171,-1.00698853,0.244141,0.061035,-0.122070
3176951458,0.00236511,0.00648499,-1.00588989,0.244141,0.183105,-0.183105
3181960958,0.00239563,0.00651550,-1.00538635,0.427246,0.000000,-0.122070
3186969708,0.00236511,0.00679016,-1.00599670,0.305176,0.061035,-0.183105
3191960625,0.00218201,0.00708008,-1.00660706,0.305176,0.061035,-0.061035
3196947458,0.00207520,0.00730896,-1.00657654,0.305176,0.061035,-0.061035
3201967625,0.00230408,0.00752258,-1.00639343,0.427246,0.244141,-0.122070
3206951958,0.00236511,0.00755310,-1.00646973,0.244141,0.122070,-0.122070
3211953208,0.00227356,0.00740051,-1.00672913,0.366211,0.061035,-0.061035
3216961000,0.00224304,0.00726318,-1.00686646,0.305176,0.000000,0.000000
3221979958,0.00212097,0.00701904,-1.00663757,0.305176,-0.122070,-0.061035
3226921375,0.00209045,0.00663757,-1.00602722,0.305176,0.122070,0.000000
3231969708,0.00225830,0.00660706,-1.00543213,0.244141,0.000000,-0.122070
3236952416,0.00216675,0.00692749,-1.00552368,0.488281,-0.061035,0.000000
3241949958,0.00177002,0.00704956,-1.00607300,0.183105,-0.061035,0.000000
3246945541,0.00175476,0.00703430,-1.00653076,0.488281,0.183105,-0.244141
3251963625,0.00221252,0.00691223,-1.00689697,0.244141,0.000000,-0.061035
3256973250,0.00268555,0.00659180,-1.00679016,0.305176,-0.061035,-0.061035
3261959291,0.00292969,0.00633240,-1.00604248,0.305176,0.000000,-0.061035
3266952000,0.00289917,0.00637817,-1.00550842,0.427246,0.122070,-0.061035
3272035291,0.00254822,0.00679016,-1.00582886,0.305176,0.000000,-0.183105
3276957625,0.00230408,0.00723267,-1.00650024,0.244141,0.061035,0.000000
3282002750,0.00247192,0.00738525,-1.00668335,0.244141,-0.061035,-0.061035
3286994000,0.00251770,0.00735474,-1.00665283,0.305176,0.122070,-0.061035
3291976291,0.00228882,0.00741577,-1.00697327,0.305176,0.061035,-0.061035
3296988083,0.00242615,0.00747681,-1.00726318,0.366211,0.000000,-0.122070
3302000750,0.00286865,0.00724792,-1.00692749,0.366211,0.000000,-0.183105
3307030791,0.00283813,0.00677490,-1.00596619,0.366211,0.000000,-0.183105
3311993416,0.00248718,0.00646973,-1.00532532,0.244141,0.000000,-0.061035
3317013208,0.00213623,0.00660706,-1.00582886,0.244141,0.061035,0.000000
3322138958,0.00195312,0.00700378,-1.00650024,0.366211,0.000000,-0.061035
3327017333,0.00212097,0.00749207,-1.00637817,0.244141,-0.061035,0.000000
3331984791,0.00219727,0.00762939,-1.00610352,0.427246,-0.061035,-0.183105
3336999541,0.00184631,0.00733948,-1.00636292,0.122070,-0.061035,0.061035
3341980708,0.00143433,0.00704956,-1.00685120,0.549316,0.122070,-0.122070
3346952333,0.00117493,0.00709534,-1.00692749,0.366211,0.122070,-0.122070
3351984958,0.00117493,0.00727844,-1.00628662,0.244141,-0.061035,-0.244141
3356976375,0.00160217,0.00735474,-1.00558472,0.427246,0.061035,-0.061035
3362004250,0.00238037,0.00729370,-1.00575256,0.366211,0.122070,0.000000
3366988041,0.00306702,0.00711060,-1.00674438,0.305176,0.122070,0.000000
3371995333,0.00328064,0.00685120,-1.00762939,0.244141,0.061035,-0.061035
3376962291,0.00309753,0.00656128,-1.00769043,0.305176,0.000000,-0.122070
3381998000,0.00299072,0.00622559,-1.00732422,0.244141,0.061035,-0.061035
3386964375,0.00309753,0.00592041,-1.00688171,0.366211,0.000000,-0.061035
3392044458,0.00291443,0.00599670,-1.00625610,0.366211,0.122070,0.000000
3396995750,0.00236511,0.00642395,-1.00563049,0.122070,0.061035,-0.244141
3401985416,0.00189209,0.00646973,-1.00544739,0.366211,0.000000,-0.122070
3407011125,0.00187683,0.00588989,-1.00605774,0.305176,0.000000,-0.244141
3412024708,0.00216675,0.00541687,-1.00697327,0.427246,0.000000,-0.122070
3416968916,0.00221252,0.00553894,-1.00740051,0.305176,0.122070,0.000000
3421974041,0.00228882,0.00605774,-1.00718689,0.183105,0.061035,-0.122070
3427003916,0.00283813,0.00659180,-1.00685120,0.244141,0.000000,-0.183105
3432007750,0.00321960,0.00671387,-1.00659180,0.366211,0.061035,-0.122070
3436979458,0.00274658,0.00634766,-1.00653076,0.366211,0.122070,0.000000
3442035958,0.00241089,0.00619507,-1.00657654,0.427246,0.061035,-0.122070
3446995875,0.00279236,0.00659180,-1.00630188,0.305176,0.000000,-0.122070
3452018000,0.00280762,0.00720215,-1.00595093,0.244141,0.000000,-0.122070
3457028666,0.00234985,0.00765991,-1.00598145,0.305176,0.000000,-0.061035
3462005666,0.00238037,0.00775146,-1.00605774,0.183105,0.000000,-0.122070
3466999666,0.00276184,0.00756836,-1.00588989,0.427246,0.122070,-0.061035
3472018000,0.00279236,0.00756836,-1.00552368,0.488281,0.000000,-0.122070
3477066583,0.00251770,0.00787354,-1.00535583,0.244141,0.061035,-0.183105
3481997333,0.00218201,0.00820923,-1.00561523,0.305176,0.122070,0.000000
3486985958,0.00196838,0.00834656,-1.00588989,0.305176,0.000000,0.000000
3492049000,0.00201416,0.00831604,-1.00595093,0.305176,0.061035,-0.061035
3496999500,0.00207520,0.00837708,-1.00590515,0.244141,0.122070,-0.061035
3501990083,0.00189209,0.00860596,-1.00584412,0.305176,0.061035,0.000000
3507036166,0.00175476,0.00872803,-1.00601196,0.244141,0.000000,-0.122070
3512060291,0.00172424,0.00848389,-1.00657654,0.305176,0.122070,0.000000
3517025041,0.00160217,0.00773621,-1.00703430,0.305176,0.000000,-0.122070
3522021916,0.00169373,0.00663757,-1.00692749,0.244141,-0.061035,0.061035
3527051500,0.00199890,0.00592041,-1.00660706,0.305176,0.061035,0.000000
3531998375,0.00192261,0.00608826,-1.00663757,0.427246,0.061035,0.000000
3537031375,0.00151062,0.00656128,-1.00688171,0.244141,0.061035,-0.122070
3542031083,0.00135803,0.00665283,-1.00695801,0.366211,0.000000,-0.183105
3546998166,0.00201416,0.00668335,-1.00688171,0.244141,0.061035,-0.061035
3552005958,0.00314331,0.00665283,-1.00677490,0.488281,0.061035,-0.061035
3557148541,0.00372314,0.00628662,-1.00680542,0.305176,0.061035,-0.061035
3562018708,0.00346375,0.00588989,-1.00740051,0.305176,0.000000,-0.183105
3567014208,0.00312805,0.00578308,-1.00790405,0.244141,0.122070,-0.122070
3572016875,0.00314331,0.00602722,-1.00749207,0.366211,-0.061035,-0.122070
3576996666,0.00349426,0.00642395,-1.00694275,0.122070,0.061035,-0.061035
3582010500,0.00379944,0.00666809,-1.00685120,0.488281,0.000000,-0.061035
3586993041,0.00360107,0.00650024,-1.00671387,0.427246,0.061035,-0.061035
3592013166,0.00282288,0.00628662,-1.00660706,0.244141,0.061035,-0.183105
3596998541,0.00175476,0.00622559,-1.00672913,0.366211,0.061035,-0.122070
3602017541,0.00119019,0.00624084,-1.00672913,0.244141,0.000000,-0.061035
3607024541,0.00160217,0.00665283,-1.00651550,0.244141,0.122070,-0.122070
3612022083,0.00207520,0.00750732,-1.00662231,0.427246,-0.061035,-0.061035
3616977750,0.00199890,0.00834656,-1.00703430,0.427246,-0.061035,0.000000
3622038958,0.00146484,0.00862122,-1.00695801,0.305176,-0.061035,-0.122070
3627025500,0.00088501,0.00798035,-1.00625610,0.183105,0.061035,-0.061035
3632076041,0.00080872,0.00711060,-1.00572205,0.305176,-0.122070,0.000000
3637200583,0.00120544,0.00701904,-1.00595093,0.366211,0.061035,-0.244141
3642090666,0.00149536,0.00749207,-1.00660706,0.305176,0.061035,0.061035
3647067958,0.00143433,0.00764465,-1.00694275,0.366211,-0.061035,-0.061035
3652078791,0.00131226,0.00730896,-1.00683594,0.305176,0.061035,-0.122070
3657118916,0.00181580,0.00698853,-1.00651550,0.366211,0.000000,0.000000
3662111583,0.00251770,0.00706482,-1.00622559,0.427246,0.122070,-0.183105
3667095500,0.00276184,0.00714111,-1.00601196,0.427246,0.061035,-0.122070
3672222250,0.00289917,0.00677490,-1.00604248,0.244141,0.061035,-0.061035
3677121500,0.00299072,0.00650024,-1.00651550,0.488281,0.061035,-0.061035
3682499666,0.00253296,0.00677490,-1.00691223,0.427246,0.122070,-0.122070
3687134625,0.00195312,0.00715637,-1.00645447,0.305176,0.183105,-0.061035
3692122666,0.00202942,0.00701904,-1.00564575,0.549316,0.122070,0.000000
3697138416,0.00228882,0.00640869,-1.00558472,0.244141,0.122070,0.061035
3702141708,0.00198364,0.00590515,-1.00634766,0.366211,0.122070,-0.061035
3707189708,0.00164795,0.00595093,-1.00677490,0.305176,-0.061035,0.000000
3712091458,0.00209045,0.00619507,-1.00624084,0.244141,0.061035,-0.183105
3717077625,0.00292969,0.00614929,-1.00550842,0.244141,0.000000,-0.122070
3722034333,0.00337219,0.00611877,-1.00540161,0.366211,0.122070,-0.061035
3727065458,0.00309753,0.00634766,-1.00570679,0.305176,-0.061035,-0.122070
3732056000,0.00257874,0.00660706,-1.00592041,0.244141,0.061035,0.000000
3737135416,0.00236511,0.00666809,-1.00588989,0.122070,-0.061035,-0.244141
3742129833,0.00244141,0.00640869,-1.00563049,0.305176,0.061035,-0.061035
3747056041,0.00256348,0.00622559,-1.00540161,0.305176,0.061035,-0.061035
3752041583,0.00268555,0.00660706,-1.00550842,0.366211,0.122070,-0.122070
3757073666,0.00236511,0.00718689,-1.00588989,0.366211,0.122070,-0.122070
3762032000,0.00180054,0.00741577,-1.00598145,0.244141,0.000000,-0.122070
3767048208,0.00187683,0.00741577,-1.00569153,0.305176,0.061035,-0.122070
3772031291,0.00250244,0.00756836,-1.00567627,0.305176,0.061035,-0.122070
3777049250,0.00254822,0.00776672,-1.00614929,0.305176,0.000000,-0.122070
3782031083,0.00193787,0.00784302,-1.00659180,0.488281,0.183105,0.122070
3787032041,0.00163269,0.00781250,-1.00636292,0.305176,0.061035,-0.183105
3792066416,0.00172424,0.00778198,-1.00596619,0.366211,0.061035,-0.183105
3797074208,0.00164795,0.00770569,-1.00611877,0.366211,0.000000,0.000000
3802042416,0.00143433,0.00747681,-1.00662231,0.427246,0.000000,-0.183105
3807032083,0.00129700,0.00726318,-1.00680542,0.183105,0.061035,-0.122070
3812054375,0.00132751,0.00706482,-1.00685120,0.366211,0.061035,-0.061035
3817032208,0.00126648,0.00683594,-1.00700378,0.427246,0.061035,-0.122070
3822193708,0.00125122,0.00659180,-1.00680542,0.366211,0.000000,-0.122070
3827028000,0.00161743,0.00653076,-1.00634766,0.366211,0.061035,-0.183105
3832050125,0.00202942,0.00669861,-1.00624084,0.305176,0.061035,0.000000
3837063291,0.00239563,0.00659180,-1.00659180,0.183105,-0.061035,-0.061035
3842066875,0.00303650,0.00610352,-1.00691223,0.427246,0.061035,0.000000
3847029208,0.00369263,0.00578308,-1.00675964,0.244141,0.000000,-0.183105
3852043750,0.00404358,0.00578308,-1.00608826,0.305176,0.000000,-0.183105
3857070958,0.00418091,0.00604248,-1.00558472,0.305176,0.061035,-0.122070
3862063250,0.00395203,0.00651550,-1.00579834,0.305176,-0.061035,-0.122070
3867031916,0.00318909,0.00686646,-1.00608826,0.427246,0.061035,-0.061035
3872035708,0.00247192,0.00709534,-1.00567627,0.366211,-0.061035,-0.061035
3877058291,0.00215149,0.00727844,-1.00511169,0.366211,0.122070,0.000000
3882060041,0.00199890,0.00729370,-1.00518799,0.366211,0.122070,-0.122070
3887026541,0.00193787,0.00709534,-1.00572205,0.366211,0.122070,0.000000
3892040958,0.00207520,0.00709534,-1.00621033,0.427246,-0.061035,-0.183105
3897032458,0.00231934,0.00741577,-1.00653076,0.366211,0.061035,-0.122070
3902047416,0.00236511,0.00746155,-1.00646973,0.244141,0.061035,-0.183105
3907063333,0.00199890,0.00717163,-1.00628662,0.244141,-0.061035,0.000000
3912051416,0.00163269,0.00711060,-1.00662231,0.427246,0.183105,0.000000
3917053583,0.00187683,0.00730896,-1.00715637,0.366211,0.000000,-0.122070
3922081333,0.00238037,0.00750732,-1.00714111,0.366211,-0.061035,-0.061035
3927033083,0.00221252,0.00743103,-1.00650024,0.427246,0.061035,-0.244141
3932061000,0.00164795,0.00708008,-1.00585938,0.366211,0.061035,-0.183105
3937033625,0.00148010,0.00679016,-1.00541687,0.183105,0.122070,-0.061035
3942078291,0.00196838,0.00662231,-1.00511169,0.183105,0.183105,-0.122070
3947048750,0.00239563,0.00642395,-1.00537109,0.244141,-0.061035,-0.061035
3952077375,0.00209045,0.00642395,-1.00617981,0.244141,0.122070,-0.122070
3957026416,0.00173950,0.00682068,-1.00675964,0.305176,0.061035,-0.061035
3962064916,0.00210571,0.00712585,-1.00657654,0.366211,-0.061035,-0.183105
3967036708,0.00257874,0.00704956,-1.00614929,0.305176,0.061035,0.000000
3972053708,0.00283813,0.00701904,-1.00625610,0.427246,-0.061035,-0.061035
3977088583,0.00315857,0.00714111,-1.00666809,0.366211,-0.061035,-0.183105
3982090083,0.00321960,0.00698853,-1.00671387,0.305176,0.122070,-0.061035
3987082666,0.00288391,0.00677490,-1.00627136,0.427246,0.122070,0.000000
3992072333,0.00247192,0.00669861,-1.00564575,0.488281,0.183105,-0.122070
3997079541,0.00213623,0.00656128,-1.00556946,0.305176,0.061035,-0.183105
4002067500,0.00175476,0.00663757,-1.00645447,0.366211,0.000000,-0.061035
4007087125,0.00151062,0.00706482,-1.00761414,0.244141,0.183105,0.000000
4012114416,0.00181580,0.00749207,-1.00781250,0.244141,0.122070,0.000000
4017066875,0.00268555,0.00759888,-1.00706482,0.366211,0.000000,-0.183105
4022049791,0.00312805,0.00711060,-1.00643921,0.305176,0.000000,-0.122070
4027050500,0.00279236,0.00645447,-1.00662231,0.244141,0.061035,-0.061035
4032075875,0.00244141,0.00622559,-1.00711060,0.183105,0.061035,-0.061035
4037084208,0.00245667,0.00640869,-1.00704956,0.122070,-0.061035,-0.061035
4042082291,0.00228882,0.00669861,-1.00637817,0.366211,0.122070,-0.061035
4047128208,0.00180054,0.00666809,-1.00596619,0.366211,0.061035,0.000000
4052070625,0.00170898,0.00643921,-1.00619507,0.305176,0.183105,-0.061035
4057054375,0.00190735,0.00656128,-1.00662231,0.244141,0.000000,-0.183105
4062073250,0.00173950,0.00721741,-1.00706482,0.244141,0.061035,-0.122070
4067066083,0.00131226,0.00781250,-1.00711060,0.366211,0.183105,-0.183105
4072084666,0.00144958,0.00808716,-1.00650024,0.427246,0.061035,-0.122070
4077063375,0.00234985,0.00791931,-1.00567627,0.305176,0.000000,-0.061035
4082072291,0.00291443,0.00729370,-1.00535583,0.488281,0.122070,0.000000
4087068750,0.00239563,0.00683594,-1.00575256,0.366211,0.122070,-0.122070
4092090208,0.00167847,0.00685120,-1.00645447,0.244141,0.000000,0.061035
4097043750,0.00187683,0.00665283,-1.00683594,0.244141,0.061035,-0.061035
4102066875,0.00274658,0.00627136,-1.00654602,0.366211,0.244141,-0.061035
4107241750,0.00297546,0.00650024,-1.00604248,0.305176,0.122070,0.000000
4112120083,0.00242615,0.00700378,-1.00607300,0.244141,-0.061035,-0.122070
4117056083,0.00221252,0.00680542,-1.00692749,0.366211,0.061035,-0.122070
4122054625,0.00228882,0.00625610,-1.00773621,0.366211,0.122070,-0.122070
4127090166,0.00227356,0.00651550,-1.00772095,0.183105,0.000000,-0.183105
4132078625,0.00231934,0.00750732,-1.00698853,0.366211,-0.122070,-0.061035
4137084041,0.00244141,0.00794983,-1.00622559,0.244141,0.000000,-0.122070
4142108875,0.00265503,0.00727844,-1.00622559,0.183105,0.061035,-0.061035
4147086000,0.00279236,0.00648499,-1.00674438,0.305176,0.183105,-0.122070
4152141916,0.00276184,0.00642395,-1.00668335,0.366211,0.000000,-0.183105
4157085916,0.00305176,0.00674438,-1.00563049,0.366211,0.183105,-0.122070
4162071333,0.00358582,0.00685120,-1.00479126,0.305176,0.061035,-0.122070
4167053166,0.00355530,0.00665283,-1.00534058,0.427246,-0.061035,-0.061035
4172076166,0.00270081,0.00646973,-1.00645447,0.305176,0.061035,-0.061035
4177083500,0.00187683,0.00660706,-1.00680542,0.183105,-0.061035,-0.061035
4182127958,0.00166321,0.00675964,-1.00665283,0.183105,0.061035,-0.122070
4187066375,0.00143433,0.00663757,-1.00651550,0.305176,0.061035,-0.183105
4192094750,0.00096130,0.00668335,-1.00639343,0.244141,-0.061035,-0.183105
4197077541,0.00096130,0.00724792,-1.00663757,0.244141,0.000000,0.000000
4202083458,0.00152588,0.00772095,-1.00675964,0.488281,0.122070,0.000000
4207157416,0.00184631,0.00756836,-1.00636292,0.366211,0.122070,-0.061035
4212108500,0.00166321,0.00715637,-1.00625610,0.366211,0.061035,-0.122070
4217113083,0.00143433,0.00706482,-1.00657654,0.488281,0.061035,-0.122070
4222101583,0.00140381,0.00720215,-1.00653076,0.305176,0.000000,-0.122070
4227059291,0.00144958,0.00714111,-1.00624084,0.244141,0.061035,-0.061035
4232097208,0.00149536,0.00704956,-1.00608826,0.488281,0.122070,-0.122070
4237074083,0.00172424,0.00717163,-1.00596619,0.305176,0.061035,-0.122070
4242103958,0.00233459,0.00730896,-1.00590515,0.366211,0.183105,0.000000
4247102583,0.00292969,0.00735474,-1.00608826,0.305176,-0.061035,-0.122070
4252135208,0.00291443,0.00740051,-1.00659180,0.244141,0.122070,0.000000
4257115000,0.00263977,0.00732422,-1.00697327,0.244141,0.244141,-0.122070
4262112208,0.00276184,0.00688171,-1.00675964,0.244141,-0.122070,-0.183105
4267083583,0.00332642,0.00650024,-1.00613403,0.366211,0.000000,-0.061035
4272112166,0.00357056,0.00657654,-1.00556946,0.366211,-0.061035,-0.061035
4277081166,0.00321960,0.00682068,-1.00567627,0.366211,0.122070,-0.061035
4282144333,0.00270081,0.00700378,-1.00653076,0.366211,0.122070,-0.122070
4287086416,0.00241089,0.00683594,-1.00733948,0.366211,0.061035,0.000000
4292091541,0.00234985,0.00634766,-1.00733948,0.305176,-0.061035,-0.122070
4297100250,0.00236511,0.00613403,-1.00660706,0.488281,-0.061035,-0.122070
4302099541,0.00238037,0.00617981,-1.00590515,0.305176,0.122070,-0.183105
4307151333,0.00230408,0.00605774,-1.00582886,0.427246,0.061035,-0.122070
4312140625,0.00181580,0.00616455,-1.00617981,0.305176,0.122070,-0.061035
4317118958,0.00123596,0.00666809,-1.00640869,0.366211,0.061035,-0.183105
4322096291,0.00126648,0.00706482,-1.00640869,0.366211,0.061035,-0.122070
4327088791,0.00166321,0.00701904,-1.00622559,0.305176,0.061035,-0.122070
4332111208,0.00169373,0.00692749,-1.00610352,0.427246,0.122070,0.000000
4337103958,0.00148010,0.00711060,-1.00650024,0.305176,0.122070,-0.061035
4342126625,0.00125122,0.00730896,-1.00723267,0.366211,0.000000,-0.061035
4347127083,0.00131226,0.00735474,-1.00765991,0.244141,0.061035,-0.183105
4352100541,0.00180054,0.00733948,-1.00733948,0.305176,0.061035,-0.122070
4357083291,0.00199890,0.00741577,-1.00645447,0.366211,0.061035,-0.061035
4362107250,0.00166321,0.00749207,-1.00608826,0.366211,0.122070,-0.061035
4367111000,0.00123596,0.00740051,-1.00650024,0.305176,0.061035,0.000000
4372087750,0.00129700,0.00727844,-1.00694275,0.366211,0.183105,-0.061035
4377126958,0.00192261,0.00717163,-1.00698853,0.305176,0.000000,-0.061035
4382123875,0.00257874,0.00721741,-1.00685120,0.305176,0.061035,-0.183105
4387088708,0.00291443,0.00740051,-1.00662231,0.183105,0.000000,0.000000
4392104166,0.00289917,0.00743103,-1.00628662,0.122070,-0.061035,-0.122070
4397087208,0.00283813,0.00721741,-1.00610352,0.305176,0.000000,-0.061035
4402109916,0.00267029,0.00666809,-1.00634766,0.427246,0.061035,-0.061035
4407135958,0.00216675,0.00602722,-1.00674438,0.366211,0.122070,0.000000
4412187875,0.00204468,0.00572205,-1.00674438,0.366211,0.061035,0.000000
4417123500,0.00239563,0.00559998,-1.00631714,0.244141,0.000000,-0.061035
4422123833,0.00260925,0.00567627,-1.00593567,0.305176,0.000000,0.000000
4427109833,0.00250244,0.00616455,-1.00582886,0.366211,0.061035,0.061035
4432116125,0.00209045,0.00671387,-1.00547791,0.366211,0.122070,0.000000
4437083041,0.00201416,0.00679016,-1.00509644,0.305176,0.000000,-0.122070
4442142583,0.00248718,0.00654602,-1.00520325,0.427246,0.061035,-0.122070
4447096625,0.00274658,0.00659180,-1.00578308,0.427246,0.000000,-0.183105
4452142166,0.00244141,0.00704956,-1.00648499,0.427246,0.061035,-0.122070
4457115958,0.00234985,0.00755310,-1.00653076,0.244141,0.000000,-0.061035
4462120208,0.00265503,0.00741577,-1.00595093,0.183105,0.061035,-0.061035
4467123666,0.00280762,0.00675964,-1.00590515,0.366211,-0.061035,-0.061035
4472123708,0.00285339,0.00648499,-1.00651550,0.305176,0.061035,-0.122070
4477103875,0.00300598,0.00677490,-1.00683594,0.244141,0.000000,0.000000
4482177208,0.00303650,0.00703430,-1.00648499,0.427246,0.061035,-0.122070
4487122750,0.00297546,0.00695801,-1.00601196,0.366211,-0.061035,-0.061035
4492153416,0.00300598,0.00682068,-1.00596619,0.366211,0.061035,-0.061035
4497113791,0.00280762,0.00679016,-1.00605774,0.244141,0.061035,0.000000
4502100666,0.00221252,0.00691223,-1.00595093,0.366211,-0.061035,-0.183105
4507138083,0.00167847,0.00726318,-1.00604248,0.244141,0.000000,-0.122070
4512119041,0.00167847,0.00747681,-1.00669861,0.244141,-0.061035,0.000000
4517217875,0.00190735,0.00723267,-1.00733948,0.366211,0.061035,-0.061035
4522148791,0.00198364,0.00688171,-1.00689697,0.305176,0.000000,-0.061035
4527129208,0.00196838,0.00674438,-1.00584412,0.305176,0.061035,-0.122070
4532130166,0.00204468,0.00682068,-1.00567627,0.244141,0.122070,-0.061035
4537137541,0.00234985,0.00703430,-1.00646973,0.366211,-0.061035,-0.061035
4542141750,0.00245667,0.00726318,-1.00669861,0.427246,0.061035,-0.061035
4547111166,0.00204468,0.00744629,-1.00593567,0.427246,0.000000,-0.122070
4552139666,0.00154114,0.00762939,-1.00511169,0.305176,0.061035,-0.122070
4557167083,0.00141907,0.00749207,-1.00511169,0.366211,0.061035,-0.122070
4562129041,0.00166321,0.00688171,-1.00596619,0.244141,0.061035,-0.061035
4567109083,0.00178528,0.00653076,-1.00704956,0.366211,0.061035,-0.183105
4572138291,0.00149536,0.00688171,-1.00756836,0.366211,-0.061035,-0.244141
4577149791,0.00128174,0.00743103,-1.00715637,0.244141,0.061035,0.000000
4582162791,0.00152588,0.00778198,-1.00650024,0.244141,-0.061035,-0.122070
4587117416,0.00189209,0.00784302,-1.00631714,0.305176,0.061035,-0.122070
4592132166,0.00199890,0.00761414,-1.00665283,0.305176,0.000000,-0.061035
4597110083,0.00183105,0.00706482,-1.00697327,0.244141,0.061035,-0.183105
4602132750,0.00158691,0.00688171,-1.00686646,0.366211,0.000000,-0.183105
4607143625,0.00170898,0.00733948,-1.00653076,0.305176,0.061035,-0.122070
4612153291,0.00224304,0.00772095,-1.00634766,0.305176,0.000000,-0.061035
4617148500,0.00274658,0.00758362,-1.00645447,0.305176,0.000000,-0.122070
4622182000,0.00292969,0.00735474,-1.00668335,0.305176,0.000000,-0.183105
4627163250,0.00273132,0.00744629,-1.00651550,0.427246,0.122070,-0.061035
4632154166,0.00265503,0.00758362,-1.00590515,0.183105,0.000000,-0.061035
4637165708,0.00280762,0.00746155,-1.00570679,0.305176,0.061035,-0.122070
4642147375,0.00294495,0.00735474,-1.00654602,0.488281,0.061035,-0.061035
4647152833,0.00294495,0.00750732,-1.00738525,0.427246,0.061035,-0.122070
4652167000,0.00292969,0.00747681,-1.00698853,0.366211,0.122070,-0.122070
4657147416,0.00296021,0.00709534,-1.00592041,0.427246,0.061035,-0.122070
4662150250,0.00317383,0.00675964,-1.00567627,0.427246,0.061035,-0.122070
4667155291,0.00337219,0.00648499,-1.00657654,0.305176,0.000000,-0.061035
4672148125,0.00314331,0.00640869,-1.00759888,0.305176,0.000000,-0.061035
4677175333,0.00230408,0.00701904,-1.00796509,0.244141,0.061035,-0.122070
4682190875,0.00161743,0.00791931,-1.00769043,0.244141,0.122070,-0.183105
4687162708,0.00161743,0.00814819,-1.00697327,0.244141,-0.061035,-0.061035
4692161541,0.00189209,0.00749207,-1.00599670,0.305176,0.061035,-0.183105
4697127750,0.00205994,0.00692749,-1.00526428,0.427246,-0.061035,-0.061035
4702143750,0.00231934,0.00700378,-1.00505066,0.305176,-0.061035,-0.061035
4707128041,0.00268555,0.00727844,-1.00549316,0.244141,-0.122070,-0.061035
4712150416,0.00270081,0.00726318,-1.00640869,0.305176,0.122070,-0.122070
4717177291,0.00250244,0.00680542,-1.00700378,0.366211,-0.061035,-0.122070
4722184625,0.00239563,0.00617981,-1.00663757,0.305176,0.061035,-0.122070
4727134833,0.00254822,0.00607300,-1.00579834,0.305176,0.000000,0.000000
4732157541,0.00271606,0.00657654,-1.00553894,0.305176,0.061035,-0.061035
4737126416,0.00257874,0.00720215,-1.00598145,0.305176,0.183105,-0.122070
4742185958,0.00212097,0.00744629,-1.00639343,0.549316,0.061035,0.000000
4747163500,0.00189209,0.00717163,-1.00656128,0.427246,0.183105,0.000000
4752184666,0.00228882,0.00689697,-1.00668335,0.488281,0.000000,-0.122070
4757144000,0.00276184,0.00706482,-1.00651550,0.366211,0.000000,-0.122070
4762156458,0.00259399,0.00761414,-1.00590515,0.305176,0.000000,-0.061035
4767140083,0.00177002,0.00794983,-1.00572205,0.305176,0.122070,-0.061035
4772147666,0.00125122,0.00749207,-1.00614929,0.366211,0.061035,0.000000
4777222625,0.00175476,0.00675964,-1.00648499,0.366211,0.000000,-0.061035
4782203666,0.00260925,0.00683594,-1.00665283,0.244141,-0.061035,-0.061035
4787136708,0.00277710,0.00759888,-1.00688171,0.305176,0.061035,-0.183105
4792190583,0.00233459,0.00794983,-1.00653076,0.305176,0.061035,0.000000
4797144208,0.00184631,0.00730896,-1.00559998,0.366211,0.000000,0.061035
4802149916,0.00144958,0.00646973,-1.00520325,0.366211,0.061035,0.000000
4807202750,0.00112915,0.00622559,-1.00575256,0.244141,0.122070,-0.122070
4812192750,0.00122070,0.00657654,-1.00686646,0.244141,0.122070,-0.122070
4817178166,0.00161743,0.00708008,-1.00758362,0.183105,-0.061035,0.000000
4822192375,0.00167847,0.00726318,-1.00726318,0.244141,0.000000,-0.061035
4827140833,0.00154114,0.00714111,-1.00657654,0.305176,0.061035,-0.122070
4832169750,0.00175476,0.00708008,-1.00625610,0.366211,0.061035,-0.122070
4837140500,0.00213623,0.00701904,-1.00621033,0.366211,0.000000,-0.061035
4842188500,0.00218201,0.00671387,-1.00636292,0.305176,0.183105,-0.122070
4847196083,0.00219727,0.00654602,-1.00669861,0.427246,0.061035,0.000000
4852178750,0.00263977,0.00669861,-1.00677490,0.366211,0.061035,-0.183105
4857188916,0.00309753,0.00685120,-1.00627136,0.244141,0.122070,-0.183105
4862181541,0.00305176,0.00695801,-1.00563049,0.244141,0.000000,-0.305176
4867145166,0.00251770,0.00729370,-1.00561523,0.305176,0.183105,0.061035
4872216083,0.00183105,0.00764465,-1.00627136,0.427246,0.000000,-0.122070
4877195833,0.00161743,0.00762939,-1.00680542,0.305176,0.122070,0.000000
4882246125,0.00210571,0.00753784,-1.00668335,0.427246,0.000000,0.000000
4887185458,0.00242615,0.00737000,-1.00634766,0.366211,0.061035,-0.122070
4892186875,0.00198364,0.00686646,-1.00613403,0.366211,0.122070,0.000000
4897176416,0.00125122,0.00656128,-1.00602722,0.427246,0.000000,0.061035
4902180458,0.00096130,0.00688171,-1.00605774,0.488281,0.061035,-0.122070
4907238125,0.00132751,0.00735474,-1.00616455,0.305176,0.061035,0.000000
4912152458,0.00199890,0.00765991,-1.00631714,0.366211,0.000000,-0.122070
4917132875,0.00242615,0.00761414,-1.00642395,0.305176,0.061035,0.000000
4922163250,0.00245667,0.00724792,-1.00630188,0.305176,0.000000,-0.061035
4927186208,0.00227356,0.00733948,-1.00593567,0.427246,0.000000,-0.122070
4932182125,0.00202942,0.00810242,-1.00582886,0.366211,0.122070,-0.061035
4937161208,0.00193787,0.00852966,-1.00659180,0.305176,0.061035,-0.061035
4942215375,0.00216675,0.00794983,-1.00737000,0.305176,0.122070,-0.061035
4947199250,0.00251770,0.00708008,-1.00701904,0.305176,0.122070,-0.183105
4952213375,0.00248718,0.00663757,-1.00604248,0.366211,0.244141,-0.061035
4957165416,0.00228882,0.00660706,-1.00570679,0.366211,0.061035,-0.122070
4962189666,0.00202942,0.00672913,-1.00621033,0.366211,0.061035,-0.061035
4967175750,0.00154114,0.00663757,-1.00689697,0.366211,0.000000,-0.061035
4972172916,0.00144958,0.00646973,-1.00723267,0.427246,0.061035,0.000000
4977210000,0.00198364,0.00653076,-1.00682068,0.427246,0.061035,-0.122070
4982189875,0.00244141,0.00657654,-1.00593567,0.366211,0.000000,-0.122070
4987254875,0.00233459,0.00646973,-1.00537109,0.427246,0.061035,0.122070
4992200333,0.00201416,0.00659180,-1.00556946,0.366211,0.122070,-0.061035
4997168916,0.00190735,0.00683594,-1.00608826,0.366211,0.000000,-0.061035
5002186958,0.00212097,0.00657654,-1.00622559,0.366211,0.061035,-0.122070
5007153000,0.00250244,0.00634766,-1.00602722,0.366211,-0.061035,0.000000
5012232875,0.00279236,0.00643921,-1.00642395,0.244141,-0.061035,-0.122070
5017210458,0.00279236,0.00628662,-1.00723267,0.366211,0.000000,-0.061035
5022199458,0.00253296,0.00616455,-1.00752258,0.366211,-0.061035,-0.061035
5027179791,0.00228882,0.00646973,-1.00704956,0.366211,0.000000,-0.183105
5032176166,0.00228882,0.00682068,-1.00624084,0.366211,0.061035,-0.183105
5037192333,0.00239563,0.00698853,-1.00581360,0.244141,0.061035,0.061035
5042214875,0.00245667,0.00718689,-1.00605774,0.366211,-0.061035,-0.122070
5047180583,0.00247192,0.00746155,-1.00660706,0.366211,0.000000,-0.122070
5052221625,0.00262451,0.00772095,-1.00688171,0.427246,0.061035,-0.061035
5057180958,0.00267029,0.00778198,-1.00671387,0.366211,0.122070,-0.061035
5062188916,0.00231934,0.00741577,-1.00648499,0.183105,0.122070,-0.183105
5067194791,0.00204468,0.00698853,-1.00671387,0.427246,0.061035,-0.061035
5072203708,0.00218201,0.00698853,-1.00704956,0.244141,0.061035,-0.061035
5077211125,0.00221252,0.00709534,-1.00706482,0.305176,0.122070,-0.061035
5082237750,0.00181580,0.00703430,-1.00692749,0.366211,0.000000,-0.061035
5087181833,0.00170898,0.00720215,-1.00657654,0.366211,-0.122070,0.000000
5092198375,0.00228882,0.00744629,-1.00616455,0.305176,0.061035,-0.122070
5097177708,0.00260925,0.00743103,-1.00610352,0.366211,-0.061035,-0.244141
5102196083,0.00230408,0.00732422,-1.00616455,0.366211,0.000000,-0.122070
5107216541,0.00205994,0.00723267,-1.00639343,0.305176,0.000000,-0.061035
5112224041,0.00224304,0.00698853,-1.00675964,0.366211,-0.061035,-0.061035
5117200166,0.00234985,0.00656128,-1.00668335,0.183105,0.000000,0.061035
5122218625,0.00218201,0.00624084,-1.00622559,0.427246,0.122070,0.000000
5127194333,0.00222778,0.00622559,-1.00585938,0.427246,0.122070,0.000000
5132221500,0.00256348,0.00636292,-1.00581360,0.305176,0.122070,0.000000
5137190666,0.00221252,0.00659180,-1.00602722,0.183105,0.000000,-0.061035
5142284041,0.00129700,0.00663757,-1.00646973,0.366211,0.122070,-0.122070
5147210958,0.00135803,0.00663757,-1.00689697,0.488281,0.061035,-0.061035
5152234000,0.00224304,0.00675964,-1.00714111,0.366211,0.061035,-0.061035
5157190208,0.00253296,0.00703430,-1.00715637,0.366211,0.122070,-0.061035
5162220958,0.00241089,0.00727844,-1.00712585,0.366211,0.000000,-0.122070
5167180791,0.00277710,0.00732422,-1.00701904,0.427246,0.000000,-0.122070
5172189125,0.00309753,0.00712585,-1.00657654,0.427246,0.122070,-0.122070
5177186375,0.00248718,0.00698853,-1.00611877,0.183105,0.183105,0.000000
5182244708,0.00170898,0.00729370,-1.00611877,0.244141,0.061035,-0.061035
5187193791,0.00210571,0.00764465,-1.00640869,0.427246,0.061035,0.000000
5192196083,0.00282288,0.00755310,-1.00688171,0.427246,0.061035,0.000000
5197208916,0.00257874,0.00721741,-1.00729370,0.305176,0.183105,-0.061035
5202212250,0.00178528,0.00672913,-1.00738525,0.061035,0.000000,-0.061035
5207260958,0.00140381,0.00640869,-1.00715637,0.244141,0.061035,-0.183105
5212253916,0.00167847,0.00653076,-1.00666809,0.122070,0.061035,0.000000
5217221333,0.00213623,0.00692749,-1.00613403,0.427246,0.000000,-0.061035
5222248541,0.00222778,0.00724792,-1.00601196,0.488281,0.061035,-0.122070
5227190625,0.00222778,0.00723267,-1.00631714,0.366211,0.061035,-0.061035
5232211083,0.00248718,0.00698853,-1.00682068,0.427246,0.122070,-0.061035
5237189000,0.00250244,0.00685120,-1.00721741,0.366211,0.061035,-0.122070
5242222791,0.00219727,0.00674438,-1.00680542,0.122070,0.061035,-0.061035
5247298250,0.00215149,0.00640869,-1.00584412,0.183105,0.061035,0.000000
5252234250,0.00234985,0.00601196,-1.00550842,0.366211,0.122070,-0.122070
5257217166,0.00244141,0.00593567,-1.00634766,0.366211,-0.061035,-0.122070
5262224708,0.00218201,0.00599670,-1.00756836,0.122070,0.061035,-0.183105
5267202083,0.00184631,0.00616455,-1.00772095,0.427246,-0.061035,-0.122070
5272208791,0.00207520,0.00650024,-1.00689697,0.427246,-0.061035,-0.183105
5277254958,0.00260925,0.00674438,-1.00628662,0.427246,0.061035,-0.061035
5282271041,0.00253296,0.00662231,-1.00630188,0.366211,0.122070,-0.122070
5287211291,0.00187683,0.00636292,-1.00627136,0.366211,0.061035,-0.061035
5292232458,0.00183105,0.00628662,-1.00582886,0.366211,0.061035,-0.061035
5297207250,0.00273132,0.00636292,-1.00587463,0.305176,0.000000,-0.061035
5302226916,0.00340271,0.00671387,-1.00672913,0.366211,0.061035,-0.061035
5307251041,0.00308228,0.00723267,-1.00697327,0.366211,0.000000,-0.122070
5312248833,0.00227356,0.00749207,-1.00619507,0.244141,0.061035,-0.061035
5317235625,0.00193787,0.00729370,-1.00579834,0.244141,0.061035,-0.122070
5322206500,0.00202942,0.00672913,-1.00645447,0.305176,0.000000,-0.061035
5327230666,0.00201416,0.00621033,-1.00726318,0.305176,0.000000,-0.183105
5332234666,0.00183105,0.00643921,-1.00738525,0.244141,0.061035,0.000000
5337221333,0.00173950,0.00700378,-1.00688171,0.305176,0.122070,-0.183105
5342267875,0.00218201,0.00723267,-1.00654602,0.183105,0.000000,0.000000
5347229541,0.00291443,0.00724792,-1.00697327,0.244141,0.061035,0.000000
5352295458,0.00305176,0.00698853,-1.00730896,0.244141,0.183105,-0.061035
5357217833,0.00244141,0.00646973,-1.00654602,0.305176,0.000000,-0.183105
5362223333,0.00192261,0.00616455,-1.00529480,0.366211,0.000000,-0.061035
5367218250,0.00196838,0.00622559,-1.00465393,0.427246,0.122070,-0.122070
5372467291,0.00231934,0.00633240,-1.00518799,0.427246,0.000000,-0.061035
5377244458,0.00262451,0.00637817,-1.00640869,0.244141,-0.061035,-0.122070
5382233166,0.00282288,0.00656128,-1.00720215,0.427246,0.000000,0.000000
5387225625,0.00260925,0.00717163,-1.00685120,0.366211,0.061035,0.000000
5392248083,0.00198364,0.00767517,-1.00602722,0.305176,-0.061035,-0.183105
5397216958,0.00181580,0.00735474,-1.00547791,0.366211,0.061035,-0.061035
5402234416,0.00207520,0.00646973,-1.00540161,0.305176,0.000000,-0.183105
5407251083,0.00190735,0.00584412,-1.00579834,0.244141,0.000000,-0.061035
5412237750,0.00135803,0.00592041,-1.00660706,0.244141,0.122070,-0.061035
5417218541,0.00126648,0.00662231,-1.00729370,0.244141,0.000000,-0.122070
5422224166,0.00181580,0.00723267,-1.00718689,0.244141,0.000000,-0.122070
5427223750,0.00228882,0.00706482,-1.00660706,0.244141,0.000000,-0.061035
5432227000,0.00218201,0.00651550,-1.00630188,0.427246,0.000000,0.000000
5437224333,0.00178528,0.00633240,-1.00657654,0.366211,0.122070,0.000000
5442253791,0.00166321,0.00674438,-1.00712585,0.244141,0.061035,-0.061035
5447241166,0.00210571,0.00730896,-1.00720215,0.183105,-0.061035,0.000000
5452274750,0.00254822,0.00749207,-1.00653076,0.366211,0.061035,-0.122070
5457337375,0.00248718,0.00723267,-1.00570679,0.244141,0.061035,0.000000
5462263166,0.00213623,0.00706482,-1.00546265,0.183105,-0.061035,0.061035
5467233333,0.00199890,0.00712585,-1.00604248,0.427246,0.122070,-0.183105
5472222041,0.00228882,0.00697327,-1.00660706,0.427246,0.122070,-0.122070
5477224875,0.00259399,0.00657654,-1.00660706,0.427246,0.061035,-0.061035
5482248583,0.00274658,0.00648499,-1.00640869,0.305176,0.183105,0.061035
5487243291,0.00280762,0.00671387,-1.00642395,0.244141,0.061035,-0.061035
5492276291,0.00254822,0.00701904,-1.00645447,0.427246,0.122070,-0.061035
5497233916,0.00234985,0.00727844,-1.00634766,0.427246,-0.061035,-0.122070
5502242750,0.00277710,0.00718689,-1.00617981,0.244141,-0.061035,-0.122070
5507250708,0.00325012,0.00691223,-1.00643921,0.366211,0.061035,-0.122070
5512249000,0.00303650,0.00675964,-1.00698853,0.244141,0.061035,-0.061035
5517240041,0.00231934,0.00663757,-1.00701904,0.305176,0.122070,0.000000
5522251833,0.00173950,0.00646973,-1.00663757,0.488281,0.122070,-0.122070
5527241916,0.00178528,0.00656128,-1.00653076,0.366211,0.061035,-0.183105
5532236166,0.00210571,0.00694275,-1.00677490,0.366211,0.122070,-0.061035
5537247625,0.00196838,0.00706482,-1.00695801,0.244141,0.122070,0.000000
5542288833,0.00167847,0.00691223,-1.00672913,0.305176,0.061035,-0.183105
5547267875,0.00190735,0.00688171,-1.00653076,0.122070,-0.061035,-0.122070
5552268333,0.00236511,0.00706482,-1.00654602,0.244141,0.061035,-0.122070
5557268166,0.00263977,0.00700378,-1.00657654,0.244141,0.061035,-0.122070
5562292541,0.00259399,0.00685120,-1.00683594,0.305176,-0.061035,-0.061035
5567245125,0.00207520,0.00711060,-1.00703430,0.244141,0.000000,-0.061035
5572275250,0.00135803,0.00741577,-1.00675964,0.366211,0.000000,-0.061035
5577279416,0.00108337,0.00730896,-1.00633240,0.244141,0.000000,0.000000
5582306083,0.00160217,0.00714111,-1.00602722,0.427246,-0.061035,-0.061035
5587295958,0.00227356,0.00738525,-1.00598145,0.427246,-0.061035,-0.122070
5592270125,0.00224304,0.00743103,-1.00634766,0.244141,0.122070,-0.122070
5597226125,0.00146484,0.00691223,-1.00659180,0.244141,0.000000,-0.122070
5602264208,0.00088501,0.00669861,-1.00634766,0.427246,0.122070,-0.061035
5607378708,0.00114441,0.00686646,-1.00601196,0.366211,0.122070,-0.061035
5612250875,0.00190735,0.00692749,-1.00598145,0.305176,0.000000,-0.061035
5617281416,0.00262451,0.00685120,-1.00598145,0.305176,0.000000,0.000000
5622252291,0.00288391,0.00695801,-1.00592041,0.244141,0.000000,-0.122070
5627250500,0.00267029,0.00730896,-1.00592041,0.366211,0.122070,0.000000
5632271000,0.00241089,0.00746155,-1.00625610,0.305176,0.061035,0.000000
5637251250,0.00222778,0.00703430,-1.00679016,0.244141,0.061035,-0.183105
5642282791,0.00193787,0.00665283,-1.00680542,0.305176,0.000000,-0.183105
5647276750,0.00180054,0.00697327,-1.00634766,0.366211,0.061035,-0.061035
5652298125,0.00181580,0.00759888,-1.00622559,0.427246,0.000000,-0.061035
5657253791,0.00160217,0.00788879,-1.00665283,0.366211,0.000000,-0.061035
5662258125,0.00125122,0.00776672,-1.00715637,0.366211,0.122070,0.000000
5667266750,0.00123596,0.00740051,-1.00712585,0.305176,0.000000,-0.061035
5672275041,0.00132751,0.00715637,-1.00637817,0.427246,0.061035,-0.122070
5677302083,0.00135803,0.00711060,-1.00579834,0.366211,-0.061035,-0.183105
5682320833,0.00164795,0.00708008,-1.00613403,0.305176,0.061035,-0.061035
5687258708,0.00215149,0.00715637,-1.00672913,0.305176,0.000000,-0.061035
5692280583,0.00263977,0.00720215,-1.00659180,0.427246,0.122070,-0.183105
5697271625,0.00286865,0.00701904,-1.00585938,0.366211,0.000000,0.061035
5702280708,0.00247192,0.00701904,-1.00559998,0.366211,0.122070,-0.061035
5707295625,0.00177002,0.00743103,-1.00602722,0.244141,0.000000,0.000000
5712270166,0.00155640,0.00778198,-1.00642395,0.244141,0.305176,0.000000
5717342125,0.00201416,0.00769043,-1.00665283,0.305176,0.000000,-0.122070
5722304291,0.00216675,0.00746155,-1.00683594,0.488281,0.061035,0.000000
5727266166,0.00173950,0.00743103,-1.00701904,0.305176,0.000000,-0.061035
5732281541,0.00149536,0.00740051,-1.00704956,0.488281,0.122070,-0.061035
5737270500,0.00181580,0.00741577,-1.00669861,0.427246,0.122070,-0.061035
5742322791,0.00248718,0.00761414,-1.00619507,0.244141,0.000000,0.000000
5747282791,0.00302124,0.00773621,-1.00619507,0.488281,0.000000,-0.122070
5752282333,0.00328064,0.00743103,-1.00680542,0.366211,0.061035,-0.061035
5757266041,0.00315857,0.00692749,-1.00715637,0.427246,0.061035,-0.183105
5762285458,0.00270081,0.00653076,-1.00692749,0.244141,0.061035,-0.061035
5767270666,0.00227356,0.00639343,-1.00643921,0.366211,0.000000,-0.061035
5772270208,0.00221252,0.00662231,-1.00598145,0.305176,0.122070,0.000000
5777296416,0.00231934,0.00717163,-1.00570679,0.244141,0.061035,-0.122070
5782280458,0.00219727,0.00743103,-1.00592041,0.305176,0.122070,-0.061035
5787276583,0.00210571,0.00714111,-1.00634766,0.366211,0.000000,-0.244141
5792296666,0.00239563,0.00686646,-1.00622559,0.366211,0.000000,-0.061035
5797261416,0.00262451,0.00709534,-1.00559998,0.244141,0.061035,-0.122070
5802270583,0.00238037,0.00740051,-1.00549316,0.244141,-0.061035,-0.061035
5807306833,0.00199890,0.00721741,-1.00602722,0.488281,0.122070,-0.061035
5812339541,0.00186157,0.00680542,-1.00642395,0.366211,0.061035,-0.183105
5817257750,0.00190735,0.00639343,-1.00643921,0.366211,0.000000,-0.061035
5822378125,0.00189209,0.00608826,-1.00627136,0.427246,0.122070,-0.061035
5827280250,0.00170898,0.00627136,-1.00601196,0.366211,0.122070,-0.061035
5832297458,0.00161743,0.00665283,-1.00584412,0.244141,0.061035,-0.061035
5837270166,0.00167847,0.00674438,-1.00582886,0.488281,0.000000,-0.122070
5842329208,0.00199890,0.00679016,-1.00585938,0.244141,0.000000,-0.061035
5847316291,0.00262451,0.00741577,-1.00588989,0.366211,0.000000,-0.122070
5852310125,0.00323486,0.00817871,-1.00607300,0.305176,0.122070,0.061035
5857303833,0.00335693,0.00807190,-1.00642395,0.122070,-0.061035,-0.061035
5862309041,0.00308228,0.00730896,-1.00639343,0.427246,0.183105,-0.061035
5867262166,0.00279236,0.00680542,-1.00596619,0.366211,-0.061035,0.000000
5872303541,0.00254822,0.00698853,-1.00585938,0.244141,-0.061035,-0.183105
5877289916,0.00241089,0.00743103,-1.00622559,0.488281,0.000000,-0.061035
5882327333,0.00242615,0.00727844,-1.00659180,0.427246,0.122070,-0.122070
5887311500,0.00256348,0.00692749,-1.00689697,0.427246,0.000000,-0.122070
5892309875,0.00244141,0.00714111,-1.00680542,0.366211,0.000000,0.061035
5897283208,0.00193787,0.00740051,-1.00625610,0.488281,0.061035,-0.122070
5902306625,0.00175476,0.00721741,-1.00588989,0.244141,0.061035,-0.122070
5907301625,0.00210571,0.00711060,-1.00601196,0.427246,0.183105,-0.122070
5912324041,0.00230408,0.00723267,-1.00628662,0.488281,0.122070,-0.183105
5917321291,0.00199890,0.00744629,-1.00627136,0.244141,0.000000,0.000000
5922340625,0.00175476,0.00785828,-1.00581360,0.305176,0.061035,-0.183105
5927335583,0.00216675,0.00811768,-1.00561523,0.366211,0.061035,-0.122070
5932304083,0.00271606,0.00764465,-1.00593567,0.427246,0.000000,-0.061035
5937288125,0.00288391,0.00683594,-1.00601196,0.366211,0.061035,-0.122070
5942319375,0.00303650,0.00672913,-1.00582886,0.305176,-0.122070,-0.122070
5947323166,0.00306702,0.00715637,-1.00596619,0.366211,0.122070,-0.183105
5952307541,0.00256348,0.00706482,-1.00622559,0.305176,0.000000,-0.122070
5957291250,0.00178528,0.00666809,-1.00616455,0.244141,0.000000,-0.061035
5962301833,0.00134277,0.00659180,-1.00599670,0.488281,0.183105,-0.061035
5967302375,0.00120544,0.00660706,-1.00601196,0.305176,0.000000,0.000000
5972324083,0.00137329,0.00668335,-1.00640869,0.427246,0.061035,-0.061035
5977374708,0.00175476,0.00697327,-1.00686646,0.366211,0.122070,-0.122070
5982329541,0.00212097,0.00695801,-1.00640869,0.244141,0.000000,0.000000
5987317291,0.00238037,0.00643921,-1.00537109,0.427246,0.061035,0.000000
5992319291,0.00247192,0.00637817,-1.00500488,0.366211,0.000000,-0.122070
5997311291,0.00245667,0.00686646,-1.00534058,0.305176,0.122070,0.000000
6002308833,0.00242615,0.00697327,-1.00595093,0.366211,0.122070,-0.061035
6007308750,0.00242615,0.00668335,-1.00657654,0.305176,0.000000,-0.061035
6012316041,0.00233459,0.00675964,-1.00680542,0.244141,0.000000,0.000000
6017298500,0.00216675,0.00715637,-1.00659180,0.366211,0.061035,-0.061035
6022339458,0.00213623,0.00735474,-1.00628662,0.244141,0.061035,-0.122070
6027292458,0.00213623,0.00715637,-1.00619507,0.427246,0.000000,-0.122070
6032317958,0.00216675,0.00688171,-1.00642395,0.366211,0.122070,0.000000
6037313958,0.00216675,0.00677490,-1.00675964,0.366211,0.000000,-0.183105
6042325916,0.00221252,0.00685120,-1.00689697,0.366211,0.000000,-0.061035
6047326333,0.00256348,0.00697327,-1.00669861,0.244141,0.122070,-0.061035
6052338916,0.00268555,0.00669861,-1.00619507,0.366211,0.244141,-0.183105
6057298458,0.00231934,0.00628662,-1.00596619,0.366211,0.000000,-0.122070
6062316791,0.00205994,0.00643921,-1.00631714,0.366211,-0.122070,-0.122070
6067313458,0.00202942,0.00711060,-1.00666809,0.427246,0.000000,-0.061035
6072312291,0.00207520,0.00782776,-1.00651550,0.488281,0.122070,-0.122070
6077324625,0.00225830,0.00794983,-1.00601196,0.366211,0.061035,-0.122070
6082392041,0.00244141,0.00750732,-1.00564575,0.305176,0.000000,-0.122070
6087303583,0.00247192,0.00700378,-1.00604248,0.427246,0.061035,-0.061035
6092323625,0.00242615,0.00677490,-1.00685120,0.305176,0.061035,-0.122070
6097335583,0.00228882,0.00685120,-1.00697327,0.244141,0.122070,-0.061035
6102327916,0.00202942,0.00692749,-1.00622559,0.305176,0.000000,0.061035
6107343458,0.00181580,0.00679016,-1.00549316,0.488281,0.122070,0.000000
6112333833,0.00186157,0.00650024,-1.00534058,0.305176,0.061035,-0.061035
6117302791,0.00233459,0.00643921,-1.00588989,0.366211,0.061035,-0.183105
6122303833,0.00294495,0.00665283,-1.00657654,0.366211,0.000000,-0.122070
6127309916,0.00286865,0.00665283,-1.00669861,0.305176,-0.061035,0.061035
6132341041,0.00186157,0.00640869,-1.00630188,0.305176,0.000000,-0.122070
6137335958,0.00122070,0.00608826,-1.00563049,0.244141,0.061035,-0.183105
6142320750,0.00167847,0.00590515,-1.00541687,0.305176,0.122070,-0.122070
6147315916,0.00236511,0.00621033,-1.00610352,0.305176,0.061035,0.061035
6152349583,0.00248718,0.00695801,-1.00675964,0.305176,-0.061035,-0.061035
6157310541,0.00228882,0.00733948,-1.00654602,0.427246,0.061035,0.000000
6162338916,0.00209045,0.00711060,-1.00611877,0.305176,0.122070,-0.061035
6167329000,0.00183105,0.00682068,-1.00617981,0.366211,0.061035,-0.183105
6172287458,0.00201416,0.00689697,-1.00654602,0.305176,0.122070,-0.061035
6177346875,0.00279236,0.00715637,-1.00675964,0.366211,0.122070,-0.061035
6182347333,0.00311279,0.00718689,-1.00668335,0.305176,0.122070,-0.183105
6187319833,0.00273132,0.00711060,-1.00668335,0.305176,0.061035,-0.122070
6192343125,0.00234985,0.00714111,-1.00662231,0.427246,0.061035,-0.061035
6197316208,0.00215149,0.00691223,-1.00648499,0.427246,0.061035,-0.061035
6202343291,0.00207520,0.00648499,-1.00663757,0.366211,0.122070,-0.061035
6207334541,0.00207520,0.00640869,-1.00703430,0.366211,0.000000,0.000000
6212360875,0.00181580,0.00671387,-1.00691223,0.244141,0.122070,0.000000
6217329000,0.00131226,0.00704956,-1.00624084,0.427246,0.061035,-0.122070
6222325833,0.00099182,0.00694275,-1.00592041,0.183105,0.061035,-0.122070
6227331125,0.00114441,0.00660706,-1.00639343,0.244141,0.122070,-0.122070
6232330625,0.00167847,0.00679016,-1.00703430,0.366211,0.183105,-0.122070
6237383958,0.00218201,0.00741577,-1.00724792,0.366211,0.000000,-0.061035
6242345791,0.00245667,0.00765991,-1.00743103,0.427246,0.061035,-0.061035
6247335875,0.00257874,0.00727844,-1.00737000,0.366211,0.122070,0.000000
6252338875,0.00274658,0.00704956,-1.00666809,0.366211,0.000000,-0.061035
6257366083,0.00267029,0.00733948,-1.00608826,0.305176,0.061035,-0.122070
6262341500,0.00221252,0.00761414,-1.00625610,0.488281,0.061035,0.000000
6267342708,0.00175476,0.00765991,-1.00651550,0.305176,0.000000,0.061035
6272368791,0.00169373,0.00750732,-1.00648499,0.427246,0.061035,0.000000
6277334625,0.00184631,0.00730896,-1.00654602,0.122070,-0.061035,-0.061035
6282376083,0.00209045,0.00708008,-1.00665283,0.305176,0.061035,-0.122070
6287321083,0.00234985,0.00695801,-1.00666809,0.305176,0.000000,-0.122070
6292363125,0.00245667,0.00709534,-1.00669861,0.244141,0.122070,-0.122070
6297343625,0.00225830,0.00706482,-1.00659180,0.183105,0.183105,-0.122070
6302347833,0.00166321,0.00665283,-1.00628662,0.244141,0.061035,0.000000
6307344708,0.00134277,0.00656128,-1.00581360,0.305176,0.183105,-0.122070
6312365916,0.00186157,0.00723267,-1.00546265,0.427246,0.122070,-0.183105
6317357500,0.00238037,0.00775146,-1.00569153,0.305176,0.061035,-0.122070
6322360250,0.00221252,0.00730896,-1.00646973,0.183105,-0.122070,-0.122070
6327337958,0.00196838,0.00654602,-1.00675964,0.366211,0.000000,-0.122070
6332353333,0.00212097,0.00639343,-1.00630188,0.305176,0.061035,-0.122070
6337347916,0.00234985,0.00686646,-1.00598145,0.183105,-0.061035,-0.122070
6342398916,0.00219727,0.00715637,-1.00642395,0.427246,0.122070,-0.061035
6347350416,0.00215149,0.00720215,-1.00701904,0.244141,-0.061035,0.000000
6352366791,0.00283813,0.00747681,-1.00703430,0.366211,0.061035,-0.061035
6357351791,0.00355530,0.00755310,-1.00686646,0.427246,-0.061035,-0.244141
6362360625,0.00338745,0.00720215,-1.00706482,0.183105,0.061035,-0.122070
6367353458,0.00279236,0.00703430,-1.00712585,0.366211,0.061035,-0.061035
6372328750,0.00263977,0.00737000,-1.00666809,0.122070,0.000000,-0.061035
6377353708,0.00267029,0.00759888,-1.00613403,0.183105,-0.061035,-0.061035
6382365666,0.00218201,0.00729370,-1.00601196,0.366211,-0.122070,-0.061035
6387339208,0.00134277,0.00686646,-1.00602722,0.610352,0.061035,0.000000
6392362583,0.00093079,0.00674438,-1.00621033,0.305176,0.122070,-0.183105
6397339833,0.00109863,0.00691223,-1.00662231,0.305176,0.061035,-0.122070
6402362041,0.00125122,0.00704956,-1.00689697,0.366211,0.061035,-0.061035
6407347291,0.00129700,0.00691223,-1.00683594,0.549316,0.061035,0.000000
6412374541,0.00152588,0.00680542,-1.00653076,0.427246,0.183105,-0.061035
6417346916,0.00180054,0.00703430,-1.00631714,0.305176,0.061035,0.000000
6422361583,0.00190735,0.00749207,-1.00613403,0.244141,0.000000,0.000000
6427344791,0.00209045,0.00752258,-1.00602722,0.488281,0.061035,0.000000
6432366625,0.00241089,0.00701904,-1.00640869,0.244141,0.061035,0.061035
6437360583,0.00274658,0.00679016,-1.00706482,0.305176,0.061035,0.000000
6442358666,0.00294495,0.00685120,-1.00741577,0.305176,0.000000,-0.061035
6447346083,0.00306702,0.00665283,-1.00717163,0.427246,0.000000,-0.122070
6452377291,0.00334167,0.00642395,-1.00639343,0.244141,0.000000,0.000000
6457351708,0.00344849,0.00666809,-1.00578308,0.305176,0.061035,0.000000
6462362958,0.00315857,0.00703430,-1.00592041,0.305176,0.122070,-0.061035
6467360166,0.00276184,0.00711060,-1.00651550,0.305176,-0.061035,0.000000
6472389666,0.00248718,0.00715637,-1.00668335,0.427246,0.000000,-0.183105
6477361416,0.00251770,0.00714111,-1.00598145,0.183105,0.061035,-0.183105
6482384500,0.00268555,0.00695801,-1.00509644,0.244141,0.061035,-0.122070
6487369875,0.00248718,0.00694275,-1.00498962,0.366211,0.122070,-0.122070
6492390791,0.00205994,0.00717163,-1.00553894,0.366211,0.061035,-0.061035
6497398666,0.00173950,0.00733948,-1.00630188,0.305176,0.000000,-0.122070
6502372291,0.00160217,0.00724792,-1.00711060,0.427246,0.061035,-0.183105
6507367458,0.00173950,0.00685120,-1.00756836,0.366211,0.000000,-0.061035
6512375291,0.00180054,0.00648499,-1.00726318,0.305176,0.061035,-0.122070
6517367416,0.00180054,0.00666809,-1.00660706,0.305176,0.122070,-0.122070
6522378500,0.00207520,0.00709534,-1.00642395,0.244141,-0.122070,-0.122070
6527352125,0.00230408,0.00712585,-1.00682068,0.183105,0.000000,-0.061035
6532379708,0.00202942,0.00688171,-1.00727844,0.366211,0.000000,-0.122070
6537397458,0.00157166,0.00663757,-1.00743103,0.305176,0.000000,-0.061035
6542379750,0.00148010,0.00662231,-1.00733948,0.366211,-0.061035,-0.122070
6547377125,0.00190735,0.00706482,-1.00701904,0.305176,0.061035,-0.244141
6552379500,0.00254822,0.00741577,-1.00636292,0.244141,-0.061035,-0.183105
6557588250,0.00291443,0.00706482,-1.00553894,0.244141,0.061035,0.000000
6562389125,0.00271606,0.00657654,-1.00509644,0.366211,0.061035,-0.183105
6567402333,0.00218201,0.00674438,-1.00540161,0.488281,0.061035,-0.122070
6572409958,0.00186157,0.00735474,-1.00605774,0.122070,0.061035,0.000000
6577387791,0.00172424,0.00746155,-1.00621033,0.427246,0.061035,-0.061035
6582402833,0.00164795,0.00709534,-1.00579834,0.305176,0.061035,-0.061035
6587463208,0.00210571,0.00701904,-1.00569153,0.366211,0.122070,-0.061035
6592453458,0.00294495,0.00712585,-1.00621033,0.183105,0.183105,-0.122070
6597376750,0.00315857,0.00683594,-1.00653076,0.366211,0.061035,-0.122070
6602416375,0.00268555,0.00624084,-1.00637817,0.366211,0.122070,-0.183105
6607420416,0.00221252,0.00621033,-1.00630188,0.427246,0.061035,-0.061035
6612399958,0.00218201,0.00698853,-1.00660706,0.305176,0.061035,0.000000
6617381666,0.00236511,0.00758362,-1.00706482,0.244141,0.061035,-0.061035
6622388375,0.00244141,0.00718689,-1.00694275,0.366211,0.000000,-0.183105
6627393666,0.00234985,0.00659180,-1.00628662,0.366211,-0.061035,0.000000
6632412916,0.00231934,0.00666809,-1.00581360,0.366211,0.061035,-0.183105
6637524208,0.00241089,0.00691223,-1.00582886,0.366211,0.061035,0.000000
6642384875,0.00257874,0.00669861,-1.00630188,0.366211,0.122070,-0.122070
6647369416,0.00265503,0.00613403,-1.00686646,0.366211,0.000000,-0.122070
6652384291,0.00227356,0.00588989,-1.00698853,0.305176,0.061035,-0.122070
6657407500,0.00166321,0.00663757,-1.00665283,0.305176,0.000000,-0.061035
6662387041,0.00135803,0.00749207,-1.00622559,0.427246,0.061035,-0.061035
6667405458,0.00131226,0.00730896,-1.00610352,0.488281,0.122070,-0.183105
6672486083,0.00138855,0.00642395,-1.00645447,0.305176,-0.061035,-0.061035
6677410166,0.00164795,0.00614929,-1.00671387,0.305176,0.061035,-0.061035
6682454125,0.00178528,0.00656128,-1.00656128,0.427246,0.122070,0.000000
6687398500,0.00161743,0.00683594,-1.00645447,0.427246,0.061035,-0.122070
6692403041,0.00148010,0.00665283,-1.00662231,0.244141,-0.061035,-0.061035
6697454000,0.00175476,0.00656128,-1.00653076,0.366211,0.183105,-0.122070
6702543291,0.00225830,0.00704956,-1.00582886,0.183105,0.000000,-0.061035
6707497791,0.00242615,0.00782776,-1.00500488,0.427246,0.000000,-0.061035
6712395000,0.00230408,0.00813293,-1.00506592,0.366211,0.122070,0.000000
6717437958,0.00199890,0.00773621,-1.00582886,0.427246,0.061035,-0.122070
6722425666,0.00186157,0.00709534,-1.00619507,0.244141,0.061035,-0.122070
6727451500,0.00215149,0.00643921,-1.00602722,0.244141,-0.061035,-0.244141
6732455458,0.00242615,0.00611877,-1.00585938,0.305176,0.061035,-0.061035
6737422833,0.00230408,0.00653076,-1.00590515,0.427246,0.061035,0.000000
6742410958,0.00183105,0.00704956,-1.00614929,0.183105,0.061035,-0.183105
6747397583,0.00170898,0.00717163,-1.00625610,0.366211,0.122070,-0.122070
6752468750,0.00228882,0.00732422,-1.00592041,0.427246,0.183105,-0.061035
6757432041,0.00270081,0.00755310,-1.00570679,0.427246,0.122070,-0.061035
6762417041,0.00245667,0.00784302,-1.00599670,0.366211,0.000000,-0.061035
6767431416,0.00225830,0.00796509,-1.00634766,0.366211,0.122070,0.000000
6772446250,0.00234985,0.00740051,-1.00643921,0.122070,0.000000,-0.061035
6777392750,0.00253296,0.00657654,-1.00637817,0.305176,0.000000,-0.122070
6782409750,0.00273132,0.00628662,-1.00627136,0.305176,0.000000,-0.122070
6787420416,0.00267029,0.00668335,-1.00619507,0.366211,0.122070,-0.061035
6792564291,0.00248718,0.00737000,-1.00634766,0.305176,0.122070,-0.122070
6797403208,0.00253296,0.00772095,-1.00646973,0.305176,0.122070,-0.061035
6802478500,0.00276184,0.00753784,-1.00643921,0.244141,-0.122070,0.000000
6807615291,0.00270081,0.00711060,-1.00656128,0.427246,0.061035,-0.122070
6812412791,0.00234985,0.00682068,-1.00679016,0.305176,0.061035,-0.061035
6817442375,0.00210571,0.00669861,-1.00692749,0.305176,0.061035,-0.183105
6822527333,0.00201416,0.00680542,-1.00688171,0.305176,0.000000,-0.122070
6827470875,0.00212097,0.00729370,-1.00637817,0.366211,0.061035,0.000000
6832447041,0.00212097,0.00776672,-1.00555420,0.366211,0.122070,-0.122070
6837459125,0.00177002,0.00787354,-1.00532532,0.366211,0.061035,-0.183105
6842423125,0.00151062,0.00769043,-1.00566101,0.366211,0.061035,-0.061035
6847434750,0.00190735,0.00759888,-1.00579834,0.488281,0.183105,0.000000
6852424791,0.00277710,0.00758362,-1.00543213,0.427246,0.122070,-0.122070
6857562416,0.00318909,0.00743103,-1.00505066,0.305176,0.000000,-0.061035
6862456666,0.00303650,0.00724792,-1.00529480,0.183105,0.061035,-0.061035
6867439125,0.00260925,0.00701904,-1.00611877,0.488281,0.061035,-0.061035
6872512875,0.00212097,0.00682068,-1.00675964,0.427246,0.000000,0.000000
6877422083,0.00193787,0.00663757,-1.00654602,0.366211,0.000000,-0.122070
6882415125,0.00205994,0.00646973,-1.00579834,0.366211,-0.061035,-0.122070
6887406666,0.00212097,0.00646973,-1.00549316,0.244141,0.000000,-0.061035
6892436291,0.00231934,0.00639343,-1.00604248,0.244141,0.122070,-0.061035
6897415416,0.00262451,0.00610352,-1.00650024,0.305176,0.000000,-0.061035
6902477416,0.00251770,0.00601196,-1.00624084,0.366211,0.061035,-0.183105
6907563166,0.00263977,0.00646973,-1.00587463,0.366211,0.000000,-0.122070
6912440625,0.00367737,0.00708008,-1.00584412,0.427246,0.122070,-0.122070
6917430791,0.00454712,0.00708008,-1.00621033,0.305176,0.000000,-0.183105
6922477625,0.00404358,0.00643921,-1.00648499,0.305176,0.061035,0.000000
6927457333,0.00276184,0.00604248,-1.00625610,0.366211,0.061035,-0.061035
6932434333,0.00195312,0.00637817,-1.00593567,0.427246,-0.061035,-0.061035
6937504666,0.00193787,0.00689697,-1.00599670,0.305176,0.061035,-0.122070
6942420875,0.00205994,0.00718689,-1.00617981,0.305176,0.122070,-0.061035
6947454583,0.00213623,0.00700378,-1.00608826,0.305176,0.061035,0.000000
6952436500,0.00231934,0.00653076,-1.00590515,0.427246,0.061035,-0.183105
6957444416,0.00238037,0.00627136,-1.00593567,0.122070,0.000000,-0.061035
6962428875,0.00209045,0.00639343,-1.00627136,0.305176,0.183105,-0.122070
6967459291,0.00192261,0.00685120,-1.00682068,0.366211,0.061035,-0.061035
6972521208,0.00234985,0.00724792,-1.00697327,0.305176,0.000000,-0.061035
6977468583,0.00250244,0.00711060,-1.00639343,0.549316,0.000000,-0.122070
6982443333,0.00187683,0.00677490,-1.00578308,0.427246,0.122070,-0.183105
6987416291,0.00131226,0.00691223,-1.00570679,0.366211,0.000000,0.000000
6992417333,0.00167847,0.00727844,-1.00614929,0.366211,0.000000,-0.061035
6997422791,0.00254822,0.00755310,-1.00659180,0.366211,0.061035,-0.122070
7002441916,0.00302124,0.00752258,-1.00648499,0.366211,0.122070,-0.122070
7007470666,0.00297546,0.00724792,-1.00637817,0.305176,0.061035,0.000000
7012471208,0.00267029,0.00726318,-1.00654602,0.366211,0.000000,-0.122070
7017433416,0.00242615,0.00717163,-1.00646973,0.488281,0.061035,-0.061035
7022427750,0.00247192,0.00653076,-1.00605774,0.366211,-0.061035,-0.122070
7027420583,0.00274658,0.00592041,-1.00556946,0.183105,0.000000,0.061035
7032443708,0.00292969,0.00588989,-1.00521851,0.427246,0.061035,-0.061035
7037435958,0.00282288,0.00637817,-1.00535583,0.427246,0.000000,-0.122070
7042457000,0.00251770,0.00680542,-1.00604248,0.427246,-0.061035,-0.122070
7047469125,0.00209045,0.00679016,-1.00679016,0.488281,0.122070,-0.183105
7052462833,0.00169373,0.00622559,-1.00691223,0.488281,0.000000,-0.183105
7057429000,0.00166321,0.00561523,-1.00645447,0.061035,-0.061035,-0.244141
7062471583,0.00177002,0.00572205,-1.00611877,0.488281,-0.061035,-0.183105
7067450250,0.00149536,0.00654602,-1.00602722,0.427246,0.122070,-0.061035
7072451291,0.00094604,0.00717163,-1.00595093,0.305176,0.122070,-0.122070
7077480875,0.00080872,0.00695801,-1.00601196,0.305176,-0.061035,-0.061035
7082482666,0.00123596,0.00628662,-1.00619507,0.366211,0.061035,-0.061035
7087439708,0.00163269,0.00601196,-1.00614929,0.488281,0.061035,0.000000
7092468000,0.00190735,0.00639343,-1.00605774,0.305176,0.061035,-0.061035
7097449166,0.00248718,0.00685120,-1.00636292,0.305176,0.122070,-0.061035
7102443583,0.00277710,0.00717163,-1.00663757,0.366211,0.061035,-0.061035
7107458416,0.00241089,0.00753784,-1.00642395,0.305176,0.061035,0.000000
7112526583,0.00209045,0.00772095,-1.00581360,0.305176,0.122070,0.061035
7117476375,0.00222778,0.00753784,-1.00512695,0.244141,0.122070,-0.061035
7122458541,0.00238037,0.00740051,-1.00494385,0.305176,0.122070,-0.183105
7127428166,0.00221252,0.00765991,-1.00555420,0.305176,0.122070,-0.122070
7132443666,0.00190735,0.00790405,-1.00622559,0.183105,0.061035,-0.061035
7137447083,0.00149536,0.00749207,-1.00637817,0.305176,0.061035,-0.061035
7142494291,0.00120544,0.00691223,-1.00660706,0.427246,0.000000,-0.122070
7147451875,0.00128174,0.00691223,-1.00717163,0.244141,0.122070,-0.183105
7152461541,0.00154114,0.00712585,-1.00727844,0.244141,0.000000,0.061035
7157454833,0.00192261,0.00691223,-1.00679016,0.183105,-0.061035,-0.061035
7162468333,0.00244141,0.00651550,-1.00657654,0.427246,0.061035,-0.061035
7167444375,0.00283813,0.00650024,-1.00677490,0.305176,0.000000,-0.122070
7172464083,0.00274658,0.00656128,-1.00708008,0.366211,-0.061035,-0.122070
7177467083,0.00227356,0.00628662,-1.00715637,0.305176,0.000000,-0.183105
7182504750,0.00204468,0.00625610,-1.00651550,0.366211,0.000000,0.000000
7187431375,0.00225830,0.00645447,-1.00543213,0.244141,-0.061035,-0.061035
7192465250,0.00254822,0.00637817,-1.00511169,0.244141,0.061035,-0.183105
7197447125,0.00294495,0.00630188,-1.00578308,0.244141,0.000000,0.000000
7202450041,0.00329590,0.00651550,-1.00659180,0.366211,-0.061035,-0.061035
7207476208,0.00317383,0.00651550,-1.00692749,0.366211,0.061035,-0.061035
7212459500,0.00274658,0.00611877,-1.00679016,0.244141,-0.122070,-0.061035
7217486750,0.00282288,0.00581360,-1.00659180,0.366211,0.061035,-0.122070
7222481333,0.00331116,0.00582886,-1.00697327,0.244141,0.122070,-0.122070
7227439000,0.00309753,0.00608826,-1.00776672,0.305176,-0.061035,-0.061035
7232453666,0.00212097,0.00628662,-1.00793457,0.366211,0.000000,0.061035
7237458416,0.00149536,0.00634766,-1.00715637,0.305176,0.061035,-0.061035
7242494791,0.00155640,0.00656128,-1.00628662,0.488281,0.122070,-0.122070
7247484708,0.00180054,0.00698853,-1.00587463,0.366211,0.000000,-0.122070
7252462250,0.00163269,0.00727844,-1.00576782,0.305176,0.061035,0.000000
7257488083,0.00122070,0.00683594,-1.00561523,0.244141,-0.061035,-0.061035
7262470625,0.00141907,0.00593567,-1.00549316,0.305176,-0.122070,-0.244141
7267434708,0.00248718,0.00578308,-1.00592041,0.244141,0.000000,-0.061035
7272465458,0.00317383,0.00663757,-1.00700378,0.183105,0.061035,-0.122070
7277484250,0.00289917,0.00737000,-1.00784302,0.244141,0.061035,-0.122070
7282475583,0.00228882,0.00747681,-1.00747681,0.305176,0.061035,-0.061035
7287492208,0.00180054,0.00727844,-1.00651550,0.244141,0.061035,-0.122070
7292485083,0.00180054,0.00695801,-1.00613403,0.427246,0.061035,-0.122070
7297461041,0.00222778,0.00669861,-1.00633240,0.183105,0.061035,-0.183105
7302469833,0.00273132,0.00674438,-1.00633240,0.366211,0.183105,-0.122070
7307468416,0.00318909,0.00712585,-1.00604248,0.427246,0.122070,0.000000
7312510541,0.00344849,0.00775146,-1.00595093,0.305176,0.061035,-0.183105
7317480083,0.00340271,0.00793457,-1.00634766,0.366211,0.061035,0.000000
7322582500,0.00296021,0.00744629,-1.00679016,0.427246,-0.061035,-0.061035
7327469875,0.00238037,0.00668335,-1.00680542,0.427246,0.122070,-0.061035
7332479875,0.00231934,0.00624084,-1.00663757,0.244141,0.000000,-0.122070
7337458666,0.00253296,0.00637817,-1.00656128,0.549316,0.061035,-0.183105
7342537166,0.00254822,0.00694275,-1.00648499,0.366211,0.061035,-0.122070
7347481250,0.00250244,0.00724792,-1.00663757,0.183105,0.061035,0.000000
7352482791,0.00241089,0.00692749,-1.00695801,0.366211,0.061035,-0.183105
7357464416,0.00196838,0.00643921,-1.00698853,0.244141,0.061035,-0.061035
7362488666,0.00146484,0.00631714,-1.00677490,0.244141,0.000000,-0.183105
7367480291,0.00119019,0.00669861,-1.00668335,0.305176,-0.061035,-0.061035
7372477208,0.00119019,0.00717163,-1.00651550,0.366211,0.061035,-0.061035
7377503458,0.00137329,0.00718689,-1.00614929,0.366211,0.122070,-0.122070
7382506125,0.00148010,0.00679016,-1.00613403,0.122070,0.061035,-0.061035
7387501083,0.00148010,0.00643921,-1.00657654,0.305176,0.183105,-0.122070
7392498708,0.00144958,0.00657654,-1.00688171,0.305176,0.061035,-0.061035
7397462125,0.00148010,0.00703430,-1.00679016,0.366211,0.061035,-0.122070
7402480958,0.00167847,0.00740051,-1.00660706,0.366211,0.061035,-0.061035
7407509416,0.00183105,0.00755310,-1.00656128,0.366211,0.000000,-0.122070
7412498208,0.00157166,0.00747681,-1.00648499,0.305176,0.000000,0.000000
7417505208,0.00149536,0.00741577,-1.00633240,0.488281,0.122070,0.000000
7422503833,0.00193787,0.00759888,-1.00643921,0.366211,0.061035,-0.061035
7427516833,0.00228882,0.00779724,-1.00686646,0.244141,0.061035,0.000000
7432490250,0.00239563,0.00782776,-1.00714111,0.183105,-0.061035,-0.122070
7437486166,0.00213623,0.00765991,-1.00694275,0.366211,0.000000,-0.122070
7442524833,0.00166321,0.00721741,-1.00634766,0.244141,0.183105,-0.244141
7447486250,0.00158691,0.00662231,-1.00567627,0.366211,0.122070,-0.061035
7452489958,0.00196838,0.00633240,-1.00526428,0.366211,-0.122070,-0.122070
7457478750,0.00236511,0.00651550,-1.00506592,0.366211,0.061035,-0.183105
7462485041,0.00239563,0.00677490,-1.00521851,0.366211,-0.061035,-0.061035
7467481958,0.00193787,0.00668335,-1.00587463,0.244141,0.000000,0.061035
7472500125,0.00131226,0.00643921,-1.00639343,0.244141,0.061035,-0.061035
7477491875,0.00119019,0.00643921,-1.00602722,0.305176,0.061035,-0.122070
7482501125,0.00173950,0.00653076,-1.00538635,0.366211,0.183105,-0.244141
7487481916,0.00231934,0.00666809,-1.00550842,0.427246,0.000000,-0.183105
7492499291,0.00247192,0.00688171,-1.00610352,0.244141,0.000000,-0.061035
7497486875,0.00224304,0.00717163,-1.00633240,0.244141,0.000000,-0.061035
7502503500,0.00218201,0.00737000,-1.00642395,0.427246,0.061035,-0.183105
7507547500,0.00253296,0.00749207,-1.00657654,0.488281,-0.061035,-0.122070
7512533916,0.00308228,0.00738525,-1.00640869,0.427246,0.061035,-0.061035
7517529000,0.00357056,0.00689697,-1.00617981,0.305176,0.000000,0.000000
7522513125,0.00334167,0.00640869,-1.00622559,0.366211,0.122070,-0.061035
7527477458,0.00212097,0.00639343,-1.00617981,0.305176,0.122070,-0.183105
7532511041,0.00093079,0.00682068,-1.00585938,0.366211,0.122070,0.000000
7537502791,0.00093079,0.00715637,-1.00575256,0.366211,0.061035,-0.122070
7542557000,0.00148010,0.00697327,-1.00614929,0.244141,0.061035,-0.122070
7547482250,0.00163269,0.00657654,-1.00669861,0.244141,0.061035,0.000000
7552511750,0.00173950,0.00668335,-1.00683594,0.244141,-0.061035,-0.183105
7557564125,0.00193787,0.00712585,-1.00631714,0.305176,0.061035,-0.061035
7562509625,0.00199890,0.00738525,-1.00544739,0.366211,0.122070,-0.061035
7567503875,0.00196838,0.00737000,-1.00505066,0.305176,0.122070,-0.122070
7572502416,0.00193787,0.00727844,-1.00521851,0.366211,0.122070,-0.183105
7577520333,0.00184631,0.00703430,-1.00558472,0.366211,0.061035,-0.122070
7582574416,0.00155640,0.00660706,-1.00601196,0.305176,0.000000,-0.122070
7587534000,0.00137329,0.00631714,-1.00622559,0.305176,0.061035,-0.122070
7592528500,0.00161743,0.00636292,-1.00616455,0.305176,0.061035,-0.183105
7597494041,0.00192261,0.00671387,-1.00624084,0.183105,0.000000,-0.183105
7602519583,0.00201416,0.00730896,-1.00660706,0.305176,0.000000,-0.061035
7607505125,0.00202942,0.00790405,-1.00703430,0.488281,0.000000,-0.122070
7612535291,0.00234985,0.00772095,-1.00688171,0.427246,0.061035,-0.183105
7617527750,0.00288391,0.00668335,-1.00617981,0.244141,-0.061035,-0.183105
7622519333,0.00306702,0.00595093,-1.00592041,0.305176,0.061035,-0.061035
7627513833,0.00265503,0.00628662,-1.00624084,0.244141,-0.061035,-0.122070
7632518000,0.00210571,0.00706482,-1.00631714,0.427246,0.000000,-0.061035
7637551541,0.00186157,0.00737000,-1.00585938,0.244141,0.000000,-0.122070
7642550958,0.00189209,0.00698853,-1.00555420,0.366211,0.061035,-0.061035
7647513250,0.00202942,0.00645447,-1.00573730,0.427246,0.061035,-0.122070
7652513583,0.00207520,0.00628662,-1.00608826,0.244141,-0.061035,-0.183105
7657503083,0.00199890,0.00663757,-1.00613403,0.427246,0.061035,-0.061035
7662520625,0.00192261,0.00714111,-1.00601196,0.305176,0.000000,-0.183105
7667518125,0.00180054,0.00732422,-1.00611877,0.366211,0.000000,0.000000
7672509416,0.00141907,0.00711060,-1.00634766,0.305176,-0.061035,-0.122070
7677502750,0.00111389,0.00703430,-1.00642395,0.305176,0.000000,0.000000
7682567916,0.00135803,0.00735474,-1.00637817,0.427246,0.000000,0.061035
7687630750,0.00178528,0.00753784,-1.00636292,0.366211,0.061035,0.000000
7692532791,0.00180054,0.00752258,-1.00645447,0.366211,-0.061035,-0.061035
7697515916,0.00160217,0.00741577,-1.00669861,0.366211,0.000000,-0.122070
7702513791,0.00177002,0.00712585,-1.00683594,0.427246,0.000000,-0.122070
7707551000,0.00181580,0.00708008,-1.00672913,0.061035,0.061035,0.000000
7712540791,0.00120544,0.00744629,-1.00671387,0.488281,0.061035,-0.061035
7717529666,0.00074768,0.00765991,-1.00656128,0.366211,0.061035,-0.061035
7722608875,0.00128174,0.00749207,-1.00593567,0.183105,0.000000,-0.122070
7727515083,0.00218201,0.00724792,-1.00549316,0.305176,0.061035,-0.183105
7732537041,0.00257874,0.00701904,-1.00578308,0.488281,0.061035,0.000000
7737526458,0.00250244,0.00688171,-1.00627136,0.122070,0.061035,-0.122070
7742535500,0.00222778,0.00671387,-1.00628662,0.244141,0.000000,0.000000
7747523458,0.00195312,0.00669861,-1.00611877,0.427246,0.061035,-0.061035
7752511375,0.00169373,0.00720215,-1.00621033,0.366211,-0.061035,-0.061035
7757555416,0.00149536,0.00765991,-1.00624084,0.427246,0.244141,-0.183105
7762537041,0.00143433,0.00752258,-1.00595093,0.427246,0.122070,-0.183105
7767525250,0.00158691,0.00697327,-1.00584412,0.366211,0.122070,-0.122070
7772514333,0.00186157,0.00651550,-1.00605774,0.305176,0.061035,-0.061035
7777503375,0.00209045,0.00659180,-1.00628662,0.366211,0.000000,-0.061035
7782570500,0.00202942,0.00688171,-1.00646973,0.366211,0.000000,-0.122070
7787513458,0.00170898,0.00659180,-1.00659180,0.305176,0.122070,0.000000
7792607458,0.00157166,0.00616455,-1.00625610,0.366211,0.122070,-0.061035
7797535875,0.00192261,0.00646973,-1.00575256,0.305176,0.061035,0.000000
7802543125,0.00241089,0.00703430,-1.00588989,0.427246,0.000000,0.000000
7807573916,0.00273132,0.00691223,-1.00660706,0.305176,0.061035,-0.122070
7812574708,0.00288391,0.00624084,-1.00708008,0.305176,0.000000,0.000000
7817549250,0.00268555,0.00582886,-1.00686646,0.183105,0.061035,0.061035
7822523541,0.00209045,0.00602722,-1.00662231,0.305176,0.061035,-0.183105
7827512041,0.00189209,0.00650024,-1.00694275,0.305176,0.061035,0.000000
7832526625,0.00225830,0.00665283,-1.00709534,0.427246,0.061035,-0.061035
7837558333,0.00224304,0.00625610,-1.00642395,0.488281,0.000000,-0.061035
7842574208,0.00190735,0.00585938,-1.00588989,0.305176,0.061035,-0.061035
7847536375,0.00207520,0.00627136,-1.00633240,0.366211,0.000000,0.000000
7852560416,0.00262451,0.00694275,-1.00680542,0.305176,0.000000,-0.061035
7857527750,0.00286865,0.00695801,-1.00671387,0.488281,0.183105,-0.122070
7862540083,0.00253296,0.00672913,-1.00640869,0.244141,0.061035,-0.061035
7867529250,0.00210571,0.00656128,-1.00625610,0.366211,0.000000,-0.122070
7872531041,0.00198364,0.00659180,-1.00631714,0.366211,0.061035,-0.183105
7877530791,0.00210571,0.00709534,-1.00616455,0.427246,0.061035,-0.183105
7882579958,0.00233459,0.00769043,-1.00617981,0.366211,0.000000,-0.122070
7887555875,0.00242615,0.00776672,-1.00671387,0.183105,-0.061035,-0.061035
7892556708,0.00225830,0.00709534,-1.00711060,0.366211,0.000000,-0.122070
7897529500,0.00199890,0.00622559,-1.00666809,0.305176,0.000000,-0.183105
7902544125,0.00195312,0.00616455,-1.00585938,0.366211,0.183105,-0.061035
7907594625,0.00212097,0.00663757,-1.00593567,0.427246,0.061035,-0.122070
7912568416,0.00209045,0.00688171,-1.00677490,0.305176,0.000000,-0.183105
7917541291,0.00198364,0.00688171,-1.00717163,0.366211,0.061035,0.000000
7922572791,0.00227356,0.00704956,-1.00689697,0.366211,0.061035,-0.061035
7927534666,0.00277710,0.00727844,-1.00621033,0.366211,0.122070,-0.122070
7932555958,0.00318909,0.00737000,-1.00558472,0.305176,0.000000,-0.122070
7937548833,0.00340271,0.00747681,-1.00559998,0.366211,-0.061035,-0.244141
7942585166,0.00329590,0.00759888,-1.00627136,0.305176,0.122070,-0.061035
7947608958,0.00268555,0.00750732,-1.00666809,0.244141,0.122070,-0.122070
7952588583,0.00204468,0.00740051,-1.00646973,0.366211,0.122070,-0.061035
7957592833,0.00190735,0.00767517,-1.00627136,0.244141,0.061035,0.000000
7962553500,0.00205994,0.00799561,-1.00628662,0.366211,0.061035,-0.061035
7967540416,0.00193787,0.00769043,-1.00624084,0.244141,0.000000,-0.061035
7972554458,0.00161743,0.00703430,-1.00604248,0.305176,0.061035,-0.061035
7977573458,0.00172424,0.00674438,-1.00590515,0.305176,0.061035,-0.061035
7982570625,0.00236511,0.00703430,-1.00585938,0.305176,0.000000,-0.061035
7987559583,0.00282288,0.00758362,-1.00602722,0.366211,0.122070,0.000000
7992567833,0.00263977,0.00788879,-1.00663757,0.183105,-0.061035,-0.183105
7997535958,0.00205994,0.00796509,-1.00700378,0.244141,0.122070,-0.061035
8002557208,0.00166321,0.00773621,-1.00680542,0.366211,0.000000,0.000000
8007572750,0.00180054,0.00723267,-1.00668335,0.366211,0.122070,-0.061035
8012603083,0.00225830,0.00682068,-1.00665283,0.427246,0.061035,-0.183105
8017569041,0.00273132,0.00674438,-1.00651550,0.427246,0.061035,-0.122070
8022568375,0.00294495,0.00689697,-1.00642395,0.488281,0.122070,-0.061035
8027555791,0.00268555,0.00715637,-1.00660706,0.183105,0.061035,-0.061035
8032575625,0.00190735,0.00718689,-1.00691223,0.305176,0.061035,-0.122070
8037558333,0.00141907,0.00675964,-1.00712585,0.305176,0.000000,-0.061035
8042587125,0.00170898,0.00633240,-1.00669861,0.427246,0.061035,-0.061035
8047541250,0.00227356,0.00621033,-1.00576782,0.122070,0.061035,-0.122070
8052571166,0.00239563,0.00601196,-1.00518799,0.427246,0.061035,-0.122070
8057555208,0.00213623,0.00559998,-1.00531006,0.366211,0.061035,-0.183105
8062568250,0.00219727,0.00556946,-1.00558472,0.366211,0.061035,-0.061035
8067570375,0.00254822,0.00621033,-1.00581360,0.488281,0.122070,-0.061035
8072587083,0.00250244,0.00689697,-1.00610352,0.366211,0.183105,0.061035
8077575791,0.00210571,0.00706482,-1.00616455,0.366211,0.122070,-0.122070
8082611041,0.00180054,0.00691223,-1.00587463,0.366211,0.000000,-0.061035
8087567333,0.00183105,0.00679016,-1.00570679,0.366211,0.061035,-0.122070
8092580708,0.00234985,0.00689697,-1.00604248,0.305176,0.000000,-0.061035
8097572583,0.00286865,0.00726318,-1.00679016,0.244141,0.061035,0.000000
8102598291,0.00289917,0.00746155,-1.00729370,0.305176,0.122070,0.000000
8107597208,0.00271606,0.00717163,-1.00714111,0.305176,0.000000,-0.061035
8112606833,0.00273132,0.00686646,-1.00654602,0.305176,0.061035,-0.183105
8117588750,0.00260925,0.00703430,-1.00614929,0.427246,0.000000,-0.183105
8122591500,0.00221252,0.00746155,-1.00636292,0.244141,0.000000,-0.122070
8127552625,0.00210571,0.00749207,-1.00677490,0.305176,0.000000,-0.183105
8132581625,0.00227356,0.00704956,-1.00682068,0.366211,-0.061035,-0.061035
8137560250,0.00216675,0.00653076,-1.00639343,0.366211,0.122070,-0.061035
8142595166,0.00173950,0.00613403,-1.00581360,0.305176,0.000000,-0.061035
8147602791,0.00160217,0.00588989,-1.00559998,0.305176,0.000000,-0.244141
8152606125,0.00186157,0.00582886,-1.00556946,0.488281,-0.061035,-0.061035
8157559791,0.00210571,0.00611877,-1.00547791,0.366211,0.122070,-0.061035
8162574833,0.00207520,0.00701904,-1.00544739,0.549316,-0.061035,-0.183105
8167583208,0.00196838,0.00799561,-1.00582886,0.244141,0.122070,-0.122070
8172587708,0.00205994,0.00837708,-1.00642395,0.305176,0.122070,-0.061035
8177582833,0.00225830,0.00805664,-1.00659180,0.305176,0.000000,-0.122070
