timestamp_ns,accel_x,accel_y,accel_z,gyro_x,gyro_y,gyro_z
63211291,0.00283813,0.00798035,-1.00962830,0.366211,0.122070,0.000000
68227458,0.00401306,0.00793457,-1.00733948,0.488281,0.122070,-0.183105
73218666,0.00460815,0.00712585,-1.00395203,0.549316,0.000000,0.000000
78244583,0.00430298,0.00643921,-1.00546265,0.366211,0.183105,-0.122070
83226041,0.00376892,0.00634766,-1.00831604,0.244141,0.061035,-0.122070
88450125,0.00363159,0.00665283,-1.00903320,0.427246,0.061035,-0.183105
93350125,0.00344849,0.00666809,-1.00823975,0.427246,0.183105,-0.183105
99017791,0.00302124,0.00622559,-1.00648499,0.366211,0.061035,-0.122070
103225041,0.00250244,0.00599670,-1.00460815,0.427246,0.000000,-0.183105
108879958,0.00205994,0.00660706,-1.00509644,0.488281,0.000000,-0.244141
122101541,0.00187683,0.00770569,-1.00765991,0.183105,0.061035,-0.061035
122106166,0.00166321,0.00817871,-1.00846863,0.427246,0.000000,-0.061035
128488958,0.00096130,0.00776672,-1.00691223,0.427246,0.061035,-0.305176
128499291,0.00022888,0.00755310,-1.00624084,0.244141,0.122070,0.000000
134008250,0.00018311,0.00808716,-1.00698853,0.305176,0.061035,0.000000
138460041,0.00056458,0.00871277,-1.00726318,0.427246,0.000000,-0.122070
144440708,0.00091553,0.00892639,-1.00738525,0.427246,0.061035,-0.122070
149184333,0.00103760,0.00901794,-1.00825500,0.427246,0.000000,0.000000
153239916,0.00105286,0.00918579,-1.00872803,0.305176,0.061035,0.000000
158263375,0.00122070,0.00929260,-1.00787354,0.305176,0.061035,-0.122070
164451541,0.00129700,0.00932312,-1.00645447,0.244141,0.061035,-0.183105
168326416,0.00117493,0.00952148,-1.00552368,0.244141,-0.061035,-0.183105
173217375,0.00138855,0.00968933,-1.00561523,0.427246,0.061035,0.000000
178290041,0.00204468,0.00933838,-1.00648499,0.244141,0.000000,-0.061035
183220583,0.00280762,0.00877380,-1.00753784,0.305176,0.061035,-0.061035
188232208,0.00320435,0.00830078,-1.00764465,0.366211,-0.061035,0.000000
193232583,0.00296021,0.00778198,-1.00630188,0.366211,0.122070,-0.061035
198351666,0.00263977,0.00721741,-1.00494385,0.427246,0.183105,0.061035
203239375,0.00296021,0.00668335,-1.00502014,0.366211,0.122070,-0.061035
208249375,0.00358582,0.00616455,-1.00621033,0.366211,0.122070,-0.122070
213245291,0.00361633,0.00593567,-1.00718689,0.244141,0.122070,-0.122070
218284000,0.00283813,0.00613403,-1.00714111,0.244141,0.122070,-0.122070
223268916,0.00183105,0.00653076,-1.00651550,0.427246,0.183105,-0.183105
228314958,0.00131226,0.00672913,-1.00592041,0.366211,0.122070,-0.061035
233315041,0.00122070,0.00654602,-1.00556946,0.305176,0.061035,-0.122070
238261208,0.00129700,0.00633240,-1.00570679,0.305176,0.000000,-0.183105
243258958,0.00151062,0.00634766,-1.00633240,0.366211,0.061035,-0.183105
248308125,0.00155640,0.00675964,-1.00698853,0.427246,0.122070,-0.183105
253297208,0.00126648,0.00752258,-1.00724792,0.305176,0.000000,-0.183105
258268125,0.00112915,0.00846863,-1.00729370,0.427246,0.183105,0.000000
263295125,0.00114441,0.00935364,-1.00724792,0.244141,0.122070,0.000000
268289041,0.00137329,0.00976562,-1.00723267,0.244141,0.122070,-0.061035
273244708,0.00210571,0.00970459,-1.00735474,0.366211,0.061035,-0.122070
278268333,0.00262451,0.00978088,-1.00733948,0.427246,0.000000,-0.061035
283252458,0.00228882,0.00981140,-1.00683594,0.305176,0.122070,-0.122070
288269666,0.00158691,0.00927734,-1.00627136,0.244141,-0.061035,-0.122070
293261250,0.00115967,0.00854492,-1.00639343,0.427246,0.122070,0.000000
298268416,0.00128174,0.00830078,-1.00738525,0.183105,0.061035,0.061035
303249333,0.00149536,0.00872803,-1.00802612,0.244141,0.000000,-0.061035
308271583,0.00143433,0.00933838,-1.00767517,0.244141,0.061035,0.000000
313255125,0.00160217,0.00939941,-1.00686646,0.244141,0.061035,-0.122070
318266875,0.00202942,0.00886536,-1.00630188,0.305176,0.122070,0.000000
323260916,0.00205994,0.00834656,-1.00613403,0.244141,0.000000,-0.061035
328286291,0.00169373,0.00814819,-1.00659180,0.183105,0.000000,-0.183105
333294083,0.00155640,0.00791931,-1.00737000,0.244141,0.061035,-0.061035
338305375,0.00177002,0.00737000,-1.00741577,0.305176,0.122070,-0.122070
343293500,0.00193787,0.00708008,-1.00675964,0.366211,0.122070,-0.061035
348304041,0.00177002,0.00741577,-1.00628662,0.549316,0.000000,0.000000
353291166,0.00138855,0.00779724,-1.00617981,0.305176,0.000000,-0.061035
358308083,0.00119019,0.00787354,-1.00616455,0.183105,0.061035,-0.061035
363252500,0.00157166,0.00769043,-1.00617981,0.183105,0.061035,-0.183105
368301208,0.00201416,0.00706482,-1.00604248,0.427246,0.061035,0.000000
373258541,0.00187683,0.00625610,-1.00593567,0.244141,0.061035,0.000000
378387375,0.00157166,0.00601196,-1.00610352,0.366211,0.061035,-0.122070
383312875,0.00170898,0.00624084,-1.00634766,0.427246,0.000000,-0.183105
388305666,0.00204468,0.00672913,-1.00640869,0.305176,0.183105,0.000000
393297125,0.00225830,0.00750732,-1.00642395,0.366211,-0.061035,-0.122070
398285541,0.00219727,0.00802612,-1.00662231,0.488281,0.061035,-0.183105
403249125,0.00167847,0.00798035,-1.00694275,0.366211,0.000000,-0.122070
408326166,0.00122070,0.00781250,-1.00685120,0.305176,0.000000,-0.122070
413300125,0.00125122,0.00778198,-1.00648499,0.244141,0.061035,-0.244141
418319166,0.00132751,0.00805664,-1.00643921,0.244141,0.000000,-0.061035
423296958,0.00148010,0.00871277,-1.00686646,0.488281,0.061035,-0.061035
428326166,0.00170898,0.00946045,-1.00709534,0.183105,0.183105,-0.061035
433281875,0.00189209,0.00950623,-1.00695801,0.183105,0.061035,-0.061035
438288958,0.00210571,0.00888062,-1.00680542,0.305176,0.122070,-0.061035
443329416,0.00239563,0.00869751,-1.00662231,0.244141,-0.061035,-0.122070
448305208,0.00262451,0.00898743,-1.00642395,0.366211,-0.061035,-0.183105
453274625,0.00241089,0.00914001,-1.00634766,0.427246,0.061035,-0.183105
458331083,0.00183105,0.00904846,-1.00637817,0.427246,0.061035,-0.061035
463290875,0.00154114,0.00863647,-1.00657654,0.366211,0.061035,-0.122070
468322041,0.00166321,0.00827026,-1.00677490,0.305176,0.061035,0.061035
473302166,0.00195312,0.00852966,-1.00682068,0.366211,-0.061035,-0.122070
478304875,0.00241089,0.00891113,-1.00668335,0.366211,0.000000,-0.183105
483353375,0.00273132,0.00881958,-1.00668335,0.305176,0.122070,-0.061035
488305125,0.00238037,0.00822449,-1.00704956,0.366211,0.122070,0.000000
493305291,0.00169373,0.00749207,-1.00749207,0.244141,0.061035,0.000000
498320583,0.00146484,0.00729370,-1.00747681,0.366211,0.183105,-0.183105
503293500,0.00189209,0.00750732,-1.00698853,0.366211,0.122070,-0.122070
508359375,0.00225830,0.00750732,-1.00640869,0.366211,0.061035,0.000000
513277875,0.00219727,0.00724792,-1.00610352,0.427246,-0.061035,-0.183105
518306958,0.00199890,0.00682068,-1.00627136,0.366211,0.061035,-0.183105
523294458,0.00190735,0.00654602,-1.00666809,0.305176,0.061035,-0.122070
528302125,0.00183105,0.00666809,-1.00675964,0.366211,0.122070,-0.122070
533285750,0.00164795,0.00698853,-1.00651550,0.366211,0.122070,-0.122070
538300250,0.00164795,0.00711060,-1.00637817,0.366211,0.122070,-0.061035
543313958,0.00180054,0.00709534,-1.00659180,0.305176,0.122070,-0.061035
548324125,0.00172424,0.00741577,-1.00677490,0.183105,0.000000,-0.122070
553292458,0.00157166,0.00799561,-1.00656128,0.427246,0.122070,0.000000
558316958,0.00154114,0.00807190,-1.00601196,0.305176,0.122070,-0.122070
563280666,0.00166321,0.00776672,-1.00579834,0.366211,-0.061035,-0.122070
568298375,0.00198364,0.00799561,-1.00640869,0.427246,0.000000,-0.183105
573283375,0.00222778,0.00859070,-1.00717163,0.305176,0.061035,0.000000
578316000,0.00196838,0.00894165,-1.00738525,0.366211,0.061035,-0.183105
583289750,0.00148010,0.00907898,-1.00709534,0.305176,0.061035,-0.183105
588376791,0.00100708,0.00903320,-1.00683594,0.366211,0.122070,0.061035
593307666,0.00062561,0.00885010,-1.00680542,0.488281,0.183105,-0.061035
598301125,0.00067139,0.00860596,-1.00695801,0.244141,0.061035,-0.122070
603299166,0.00114441,0.00836182,-1.00703430,0.366211,0.122070,-0.122070
608340916,0.00149536,0.00825500,-1.00688171,0.366211,0.122070,0.000000
613320416,0.00158691,0.00820923,-1.00662231,0.366211,0.000000,0.000000
618329208,0.00172424,0.00796509,-1.00656128,0.305176,0.122070,0.000000
623281291,0.00177002,0.00755310,-1.00662231,0.305176,0.061035,-0.061035
628331125,0.00163269,0.00733948,-1.00650024,0.366211,0.183105,-0.122070
633305458,0.00172424,0.00732422,-1.00636292,0.366211,0.000000,-0.061035
638306208,0.00204468,0.00711060,-1.00630188,0.244141,0.061035,-0.061035
643320500,0.00172424,0.00698853,-1.00616455,0.244141,0.061035,-0.122070
648311250,0.00109863,0.00703430,-1.00616455,0.305176,0.000000,-0.183105
653300541,0.00140381,0.00680542,-1.00656128,0.427246,0.244141,-0.122070
658343750,0.00242615,0.00653076,-1.00666809,0.366211,0.183105,0.000000
663314583,0.00294495,0.00679016,-1.00627136,0.427246,0.061035,-0.061035
668340166,0.00268555,0.00723267,-1.00627136,0.305176,0.000000,-0.183105
673286750,0.00254822,0.00743103,-1.00680542,0.305176,-0.061035,-0.244141
678337750,0.00292969,0.00761414,-1.00709534,0.427246,0.122070,-0.122070
683293916,0.00321960,0.00799561,-1.00683594,0.488281,0.000000,0.000000
688316625,0.00271606,0.00825500,-1.00645447,0.305176,0.000000,-0.122070
693317916,0.00195312,0.00808716,-1.00648499,0.366211,0.000000,-0.122070
698322750,0.00169373,0.00788879,-1.00697327,0.366211,0.061035,-0.183105
703305666,0.00154114,0.00801086,-1.00737000,0.305176,0.061035,-0.183105
708308291,0.00096130,0.00819397,-1.00762939,0.305176,0.122070,0.000000
713320291,0.00025940,0.00808716,-1.00796509,0.305176,0.061035,-0.122070
718308250,0.00019836,0.00801086,-1.00781250,0.427246,0.000000,-0.061035
723302708,0.00096130,0.00833130,-1.00666809,0.244141,0.061035,0.000000
728347208,0.00137329,0.00872803,-1.00537109,0.366211,0.061035,-0.061035
733322125,0.00109863,0.00878906,-1.00495911,0.305176,0.000000,-0.061035
738344333,0.00123596,0.00839233,-1.00540161,0.244141,-0.061035,-0.061035
743352666,0.00175476,0.00790405,-1.00617981,0.305176,0.061035,-0.122070
748314083,0.00180054,0.00770569,-1.00662231,0.366211,0.061035,0.061035
753323791,0.00129700,0.00778198,-1.00654602,0.366211,0.061035,0.000000
758324625,0.00080872,0.00801086,-1.00648499,0.366211,0.061035,0.000000
763323833,0.00067139,0.00823975,-1.00683594,0.427246,0.061035,-0.183105
768332000,0.00111389,0.00833130,-1.00706482,0.427246,0.183105,-0.122070
773300833,0.00181580,0.00816345,-1.00659180,0.305176,0.000000,-0.122070
778344166,0.00196838,0.00765991,-1.00595093,0.427246,0.122070,-0.061035
783324833,0.00155640,0.00711060,-1.00575256,0.183105,0.000000,-0.183105
788318791,0.00169373,0.00686646,-1.00582886,0.305176,-0.061035,-0.183105
793314500,0.00245667,0.00697327,-1.00602722,0.366211,0.061035,-0.061035
798314750,0.00283813,0.00730896,-1.00628662,0.488281,0.061035,-0.122070
803310583,0.00305176,0.00779724,-1.00637817,0.488281,0.122070,-0.122070
808328000,0.00335693,0.00816345,-1.00604248,0.427246,-0.061035,-0.122070
813301666,0.00297546,0.00796509,-1.00561523,0.305176,0.061035,-0.061035
818373166,0.00204468,0.00762939,-1.00561523,0.183105,0.061035,-0.183105
823307791,0.00152588,0.00782776,-1.00592041,0.305176,0.000000,-0.183105
828322916,0.00160217,0.00830078,-1.00627136,0.183105,0.000000,-0.183105
833316208,0.00163269,0.00836182,-1.00660706,0.305176,0.061035,0.000000
838360833,0.00148010,0.00816345,-1.00686646,0.366211,-0.061035,-0.122070
843317833,0.00119019,0.00817871,-1.00683594,0.305176,0.061035,0.000000
848341291,0.00085449,0.00827026,-1.00685120,0.305176,0.000000,-0.183105
853331291,0.00094604,0.00831604,-1.00733948,0.305176,0.183105,-0.061035
858366958,0.00120544,0.00831604,-1.00762939,0.305176,0.122070,0.000000
863334375,0.00114441,0.00851440,-1.00718689,0.305176,0.000000,-0.244141
868308583,0.00097656,0.00900269,-1.00680542,0.366211,0.122070,-0.183105
873338250,0.00096130,0.00947571,-1.00679016,0.427246,0.061035,0.000000
878342833,0.00126648,0.00949097,-1.00656128,0.305176,0.061035,-0.122070
883332666,0.00187683,0.00914001,-1.00643921,0.366211,0.122070,-0.061035
888359458,0.00238037,0.00863647,-1.00697327,0.427246,0.122070,-0.061035
893315375,0.00242615,0.00833130,-1.00721741,0.244141,0.122070,-0.061035
898379000,0.00199890,0.00846863,-1.00675964,0.427246,0.061035,0.000000
903339583,0.00154114,0.00872803,-1.00645447,0.427246,0.061035,0.000000
908388291,0.00151062,0.00866699,-1.00659180,0.305176,0.061035,-0.122070
913353625,0.00180054,0.00823975,-1.00657654,0.366211,0.000000,-0.122070
918336875,0.00198364,0.00765991,-1.00634766,0.366211,0.122070,-0.122070
923341916,0.00198364,0.00729370,-1.00648499,0.183105,0.061035,-0.122070
928357416,0.00186157,0.00723267,-1.00677490,0.305176,0.061035,-0.061035
933337500,0.00166321,0.00720215,-1.00672913,0.427246,0.183105,-0.122070
938361208,0.00160217,0.00701904,-1.00663757,0.366211,-0.061035,-0.183105
943318625,0.00151062,0.00704956,-1.00706482,0.427246,0.000000,0.061035
948342791,0.00137329,0.00744629,-1.00764465,0.366211,0.000000,-0.122070
953320541,0.00137329,0.00798035,-1.00764465,0.305176,0.061035,-0.183105
958329791,0.00181580,0.00830078,-1.00720215,0.244141,0.122070,-0.183105
963351875,0.00216675,0.00839233,-1.00683594,0.305176,0.244141,-0.122070
968362958,0.00187683,0.00859070,-1.00650024,0.366211,0.061035,-0.183105
973414750,0.00138855,0.00900269,-1.00619507,0.488281,0.122070,-0.122070
978386583,0.00125122,0.00898743,-1.00636292,0.244141,0.061035,-0.061035
983353291,0.00137329,0.00849915,-1.00672913,0.366211,0.061035,-0.061035
988329583,0.00132751,0.00857544,-1.00674438,0.427246,0.183105,-0.122070
993344666,0.00103760,0.00935364,-1.00646973,0.366211,0.061035,-0.061035
998351375,0.00082397,0.00967407,-1.00630188,0.305176,0.061035,-0.061035
1003732625,0.00070190,0.00904846,-1.00633240,0.305176,0.000000,0.061035
1008359500,0.00082397,0.00840759,-1.00651550,0.244141,0.061035,-0.061035
1013315083,0.00134277,0.00833130,-1.00677490,0.305176,0.122070,-0.061035
1018354708,0.00193787,0.00811768,-1.00695801,0.366211,0.122070,-0.061035
1023353708,0.00210571,0.00765991,-1.00700378,0.366211,0.122070,0.000000
1028347583,0.00193787,0.00758362,-1.00714111,0.366211,0.122070,-0.061035
1033339375,0.00218201,0.00794983,-1.00744629,0.244141,0.061035,-0.061035
1038393750,0.00268555,0.00837708,-1.00769043,0.427246,0.244141,0.061035
1043343583,0.00254822,0.00845337,-1.00738525,0.366211,0.122070,0.061035
1048373416,0.00175476,0.00784302,-1.00657654,0.305176,0.122070,0.061035
1053343583,0.00126648,0.00714111,-1.00593567,0.305176,0.061035,-0.122070
1058345416,0.00163269,0.00715637,-1.00584412,0.244141,0.000000,-0.183105
1063343166,0.00244141,0.00761414,-1.00628662,0.244141,0.061035,0.000000
1068332958,0.00308228,0.00781250,-1.00671387,0.122070,0.122070,-0.061035
1073327041,0.00315857,0.00747681,-1.00666809,0.244141,-0.061035,-0.183105
1078339041,0.00288391,0.00729370,-1.00677490,0.183105,0.000000,-0.122070
1083348333,0.00254822,0.00772095,-1.00724792,0.305176,0.000000,-0.122070
1088364208,0.00242615,0.00801086,-1.00727844,0.366211,0.061035,-0.183105
1093385250,0.00263977,0.00793457,-1.00694275,0.183105,0.122070,-0.061035
1098375958,0.00285339,0.00801086,-1.00665283,0.488281,0.000000,-0.061035
1103331541,0.00253296,0.00808716,-1.00660706,0.366211,0.122070,-0.061035
1108378208,0.00183105,0.00813293,-1.00679016,0.488281,0.122070,-0.122070
1113357083,0.00157166,0.00840759,-1.00689697,0.183105,0.000000,-0.061035
1118379625,0.00204468,0.00872803,-1.00666809,0.366211,0.122070,-0.061035
1123334750,0.00248718,0.00883484,-1.00622559,0.305176,0.000000,-0.061035
1128377291,0.00221252,0.00885010,-1.00622559,0.244141,0.061035,-0.122070
1133370166,0.00170898,0.00903320,-1.00645447,0.244141,0.000000,0.000000
1138344500,0.00178528,0.00921631,-1.00648499,0.244141,0.000000,-0.183105
1143368791,0.00201416,0.00904846,-1.00648499,0.305176,0.061035,-0.122070
1148357875,0.00167847,0.00857544,-1.00631714,0.183105,0.061035,-0.061035
1153363875,0.00123596,0.00819397,-1.00610352,0.183105,0.000000,0.000000
1158415458,0.00119019,0.00787354,-1.00627136,0.366211,0.061035,-0.122070
1163358875,0.00115967,0.00788879,-1.00680542,0.305176,0.061035,-0.122070
1168379750,0.00109863,0.00851440,-1.00714111,0.305176,0.061035,-0.061035
1173340833,0.00149536,0.00932312,-1.00683594,0.244141,0.061035,-0.061035
1178413000,0.00238037,0.00968933,-1.00639343,0.305176,0.122070,-0.122070
1183384875,0.00282288,0.00923157,-1.00628662,0.427246,0.000000,-0.061035
1188351125,0.00228882,0.00846863,-1.00659180,0.488281,0.061035,0.000000
1193350916,0.00149536,0.00805664,-1.00718689,0.305176,0.061035,0.000000
1198347041,0.00140381,0.00787354,-1.00750732,0.427246,-0.061035,-0.122070
1203364375,0.00207520,0.00779724,-1.00735474,0.305176,0.000000,-0.061035
1208358958,0.00289917,0.00778198,-1.00688171,0.305176,0.183105,-0.061035
1213367291,0.00291443,0.00799561,-1.00656128,0.427246,0.061035,0.000000
1218392083,0.00207520,0.00852966,-1.00651550,0.427246,-0.061035,-0.122070
1223351166,0.00146484,0.00885010,-1.00631714,0.366211,0.122070,0.000000
1228385125,0.00177002,0.00871277,-1.00596619,0.244141,0.000000,-0.122070
1233362625,0.00248718,0.00831604,-1.00587463,0.488281,0.000000,-0.061035
1238363875,0.00268555,0.00808716,-1.00628662,0.366211,0.183105,0.000000
1243341916,0.00228882,0.00823975,-1.00663757,0.366211,-0.061035,-0.122070
1248355166,0.00184631,0.00808716,-1.00665283,0.427246,0.061035,-0.061035
1253400583,0.00167847,0.00764465,-1.00665283,0.305176,0.061035,-0.122070
1258359208,0.00175476,0.00772095,-1.00675964,0.305176,0.122070,0.000000
1263417000,0.00167847,0.00827026,-1.00704956,0.427246,0.000000,-0.061035
1268396625,0.00154114,0.00852966,-1.00721741,0.305176,0.122070,0.000000
1273350791,0.00175476,0.00840759,-1.00715637,0.244141,0.183105,-0.061035
1278397041,0.00201416,0.00827026,-1.00692749,0.366211,0.061035,0.000000
1283359083,0.00152588,0.00825500,-1.00653076,0.244141,0.061035,-0.061035
1288368750,0.00088501,0.00828552,-1.00621033,0.366211,0.000000,-0.122070
1293362500,0.00111389,0.00843811,-1.00611877,0.244141,0.122070,-0.183105
1298364416,0.00172424,0.00886536,-1.00610352,0.305176,0.061035,-0.122070
1303369708,0.00201416,0.00909424,-1.00611877,0.427246,0.061035,-0.122070
1308393625,0.00199890,0.00871277,-1.00660706,0.244141,0.000000,0.000000
1313344000,0.00195312,0.00807190,-1.00718689,0.305176,0.061035,-0.122070
1318369916,0.00207520,0.00770569,-1.00730896,0.549316,0.183105,-0.061035
1323347958,0.00231934,0.00756836,-1.00692749,0.366211,0.061035,0.000000
1328393250,0.00236511,0.00741577,-1.00660706,0.427246,0.305176,-0.061035
1333361208,0.00248718,0.00738525,-1.00669861,0.244141,0.122070,-0.122070
1338373750,0.00297546,0.00759888,-1.00718689,0.366211,0.000000,0.000000
1343362583,0.00326538,0.00753784,-1.00788879,0.366211,0.061035,-0.061035
1348393708,0.00291443,0.00694275,-1.00775146,0.427246,0.122070,-0.061035
1353374750,0.00247192,0.00660706,-1.00677490,0.183105,-0.061035,-0.122070
1358381125,0.00225830,0.00712585,-1.00601196,0.183105,0.122070,0.061035
1363350166,0.00186157,0.00776672,-1.00619507,0.305176,0.000000,-0.122070
1368435166,0.00146484,0.00807190,-1.00706482,0.305176,0.061035,-0.183105
1373363375,0.00157166,0.00811768,-1.00753784,0.305176,0.122070,-0.061035
1378363333,0.00189209,0.00782776,-1.00724792,0.427246,0.061035,-0.183105
1383369500,0.00201416,0.00733948,-1.00663757,0.244141,0.061035,-0.061035
1388389458,0.00192261,0.00708008,-1.00637817,0.244141,0.122070,0.000000
1393372666,0.00167847,0.00735474,-1.00643921,0.305176,0.000000,-0.122070
1398398750,0.00160217,0.00788879,-1.00674438,0.244141,-0.061035,0.061035
1403353666,0.00177002,0.00834656,-1.00717163,0.183105,0.061035,0.061035
1408437541,0.00166321,0.00868225,-1.00735474,0.366211,0.061035,-0.183105
1413371958,0.00122070,0.00872803,-1.00698853,0.366211,0.061035,0.000000
1418382291,0.00102234,0.00848389,-1.00631714,0.305176,0.122070,-0.122070
1423366125,0.00137329,0.00833130,-1.00599670,0.244141,0.061035,0.000000
1428377916,0.00187683,0.00849915,-1.00592041,0.305176,0.061035,-0.122070
1433351666,0.00175476,0.00865173,-1.00570679,0.366211,0.122070,0.000000
1438480250,0.00106812,0.00840759,-1.00578308,0.305176,-0.061035,-0.183105
1443412083,0.00077820,0.00825500,-1.00617981,0.244141,0.122070,-0.061035
1448392083,0.00131226,0.00839233,-1.00640869,0.366211,0.122070,-0.061035
1453371416,0.00190735,0.00825500,-1.00627136,0.366211,0.000000,-0.061035
1458377833,0.00199890,0.00788879,-1.00624084,0.305176,0.122070,-0.122070
1463349083,0.00190735,0.00753784,-1.00660706,0.366211,0.061035,-0.061035
1468368125,0.00212097,0.00720215,-1.00698853,0.244141,0.061035,0.000000
1473353208,0.00241089,0.00714111,-1.00709534,0.427246,0.000000,-0.183105
1478362166,0.00263977,0.00740051,-1.00703430,0.305176,0.061035,-0.061035
1483385583,0.00274658,0.00772095,-1.00695801,0.366211,0.061035,-0.061035
1488387958,0.00262451,0.00772095,-1.00671387,0.427246,0.183105,-0.061035
1493370291,0.00241089,0.00715637,-1.00659180,0.427246,0.061035,-0.061035
1498417333,0.00212097,0.00628662,-1.00680542,0.305176,0.061035,0.000000
1503384125,0.00160217,0.00593567,-1.00721741,0.366211,0.183105,-0.122070
1508415000,0.00143433,0.00648499,-1.00721741,0.427246,0.061035,-0.061035
1513351625,0.00213623,0.00737000,-1.00653076,0.305176,0.122070,-0.061035
1518398250,0.00282288,0.00787354,-1.00592041,0.366211,0.000000,-0.122070
1523396625,0.00268555,0.00790405,-1.00607300,0.244141,0.061035,0.061035
1528379541,0.00215149,0.00788879,-1.00679016,0.366211,0.061035,-0.122070
1533388083,0.00187683,0.00827026,-1.00721741,0.244141,0.061035,-0.122070
1538394958,0.00196838,0.00881958,-1.00703430,0.305176,0.061035,-0.061035
1543368208,0.00190735,0.00888062,-1.00654602,0.244141,0.061035,-0.061035
1548401708,0.00175476,0.00880432,-1.00602722,0.366211,0.061035,-0.061035
1553401958,0.00209045,0.00891113,-1.00581360,0.427246,0.061035,0.061035
1558381250,0.00250244,0.00880432,-1.00590515,0.427246,0.122070,-0.122070
1563354500,0.00254822,0.00843811,-1.00622559,0.366211,0.122070,-0.061035
1568400791,0.00230408,0.00822449,-1.00666809,0.488281,0.122070,0.061035
1573456750,0.00201416,0.00817871,-1.00695801,0.427246,0.122070,-0.061035
1578405541,0.00172424,0.00830078,-1.00672913,0.366211,0.122070,-0.183105
1583381458,0.00112915,0.00881958,-1.00657654,0.305176,0.000000,-0.183105
1588399333,0.00077820,0.00921631,-1.00665283,0.488281,0.061035,-0.061035
1593388000,0.00120544,0.00906372,-1.00671387,0.366211,0.122070,-0.122070
1598399916,0.00184631,0.00860596,-1.00669861,0.244141,0.122070,-0.061035
1603401291,0.00205994,0.00817871,-1.00653076,0.427246,0.122070,-0.061035
1608408000,0.00199890,0.00778198,-1.00608826,0.427246,0.183105,-0.122070
1613389208,0.00193787,0.00738525,-1.00564575,0.366211,0.122070,-0.183105
1618402375,0.00210571,0.00735474,-1.00569153,0.427246,0.000000,-0.244141
1623380541,0.00250244,0.00758362,-1.00610352,0.427246,0.061035,-0.061035
1628402166,0.00268555,0.00756836,-1.00639343,0.488281,0.061035,-0.122070
1633382625,0.00233459,0.00733948,-1.00643921,0.610352,0.061035,-0.061035
1638401625,0.00148010,0.00741577,-1.00657654,0.488281,0.000000,-0.061035
1643415958,0.00080872,0.00791931,-1.00708008,0.488281,0.061035,-0.061035
1648428166,0.00086975,0.00830078,-1.00743103,0.366211,0.000000,-0.183105
1653414291,0.00112915,0.00822449,-1.00712585,0.488281,0.061035,-0.061035
1658407666,0.00152588,0.00778198,-1.00648499,0.366211,0.122070,-0.122070
1663380916,0.00215149,0.00743103,-1.00627136,0.427246,0.061035,-0.122070
1668403875,0.00210571,0.00764465,-1.00675964,0.549316,0.061035,0.000000
1673496583,0.00135803,0.00813293,-1.00709534,0.366211,0.061035,-0.183105
1678431000,0.00111389,0.00837708,-1.00666809,0.366211,0.061035,-0.244141
1683410791,0.00173950,0.00839233,-1.00608826,0.488281,0.061035,-0.183105
1688407916,0.00231934,0.00822449,-1.00592041,0.488281,0.000000,-0.122070
1693386625,0.00224304,0.00782776,-1.00561523,0.305176,0.061035,-0.061035
1698409291,0.00181580,0.00770569,-1.00523376,0.427246,0.000000,-0.183105
1703402541,0.00189209,0.00810242,-1.00512695,0.549316,0.061035,-0.183105
1708405000,0.00242615,0.00837708,-1.00544739,0.610352,0.122070,-0.122070
1713400000,0.00271606,0.00804138,-1.00576782,0.427246,0.061035,-0.183105
1718404958,0.00282288,0.00749207,-1.00558472,0.488281,0.183105,-0.183105
1723383291,0.00289917,0.00732422,-1.00575256,0.427246,0.061035,-0.061035
1728402083,0.00274658,0.00770569,-1.00663757,0.183105,0.122070,-0.122070
1733389333,0.00230408,0.00810242,-1.00769043,0.366211,0.122070,-0.122070
1738451333,0.00212097,0.00791931,-1.00854492,0.427246,0.000000,-0.122070
1743424583,0.00236511,0.00720215,-1.00865173,0.427246,0.061035,-0.061035
1748417208,0.00245667,0.00650024,-1.00755310,0.427246,0.183105,-0.061035
1753415750,0.00202942,0.00640869,-1.00622559,0.427246,0.122070,-0.122070
1758421541,0.00164795,0.00691223,-1.00570679,0.610352,0.122070,0.000000
1763406916,0.00173950,0.00737000,-1.00593567,0.488281,0.061035,-0.061035
1768397916,0.00204468,0.00779724,-1.00665283,0.427246,0.122070,-0.061035
1773421833,0.00236511,0.00839233,-1.00770569,0.427246,0.244141,-0.122070
1778420583,0.00241089,0.00865173,-1.00830078,0.427246,0.000000,-0.061035
1783402541,0.00215149,0.00828552,-1.00779724,0.427246,0.183105,0.061035
1788413666,0.00192261,0.00782776,-1.00689697,0.488281,0.061035,-0.122070
1793396625,0.00189209,0.00756836,-1.00645447,0.305176,0.061035,-0.122070
1798423250,0.00193787,0.00738525,-1.00672913,0.366211,0.061035,-0.061035
1803407375,0.00195312,0.00726318,-1.00733948,0.427246,-0.061035,-0.122070
1808413250,0.00195312,0.00712585,-1.00764465,0.427246,0.183105,0.000000
1813413291,0.00209045,0.00694275,-1.00772095,0.488281,0.000000,-0.122070
1818415125,0.00227356,0.00677490,-1.00758362,0.549316,0.000000,0.000000
1823398041,0.00231934,0.00672913,-1.00691223,0.427246,0.000000,-0.061035
1828417458,0.00245667,0.00679016,-1.00605774,0.366211,0.000000,0.000000
1833451375,0.00251770,0.00683594,-1.00561523,0.427246,0.000000,-0.183105
1838437166,0.00233459,0.00689697,-1.00588989,0.427246,0.061035,-0.061035
1843402916,0.00230408,0.00718689,-1.00672913,0.244141,0.122070,-0.061035
1848430666,0.00263977,0.00765991,-1.00732422,0.427246,0.061035,-0.183105
1853446291,0.00311279,0.00785828,-1.00715637,0.488281,0.000000,-0.122070
1858411875,0.00300598,0.00761414,-1.00639343,0.427246,0.122070,-0.122070
1863397375,0.00219727,0.00732422,-1.00552368,0.488281,0.183105,-0.061035
1868435208,0.00152588,0.00733948,-1.00512695,0.427246,0.061035,-0.122070
1873405708,0.00157166,0.00765991,-1.00555420,0.488281,0.183105,-0.061035
1878426208,0.00175476,0.00825500,-1.00666809,0.427246,0.061035,0.000000
1883412208,0.00135803,0.00921631,-1.00762939,0.549316,0.183105,-0.061035
1888418916,0.00051880,0.00996399,-1.00787354,0.488281,0.061035,-0.122070
1893403000,0.00012207,0.00981140,-1.00756836,0.427246,0.061035,-0.061035
1898430875,0.00054932,0.00910950,-1.00671387,0.488281,0.000000,-0.122070
1903428708,0.00115967,0.00869751,-1.00581360,0.549316,0.061035,-0.183105
1908441916,0.00100708,0.00868225,-1.00546265,0.549316,0.000000,0.000000
1913399083,0.00030518,0.00881958,-1.00521851,0.549316,0.061035,-0.061035
1918516208,-0.00009155,0.00903320,-1.00547791,0.671387,0.122070,0.061035
1923465458,0.00007629,0.00901794,-1.00688171,0.549316,0.061035,0.061035
1928493791,0.00077820,0.00845337,-1.00814819,0.427246,0.061035,0.061035
1933445833,0.00163269,0.00749207,-1.00814819,0.427246,0.000000,-0.122070
1938445791,0.00218201,0.00653076,-1.00726318,0.366211,0.122070,-0.122070
1943436000,0.00242615,0.00579834,-1.00621033,0.183105,0.183105,0.000000
1948428958,0.00259399,0.00550842,-1.00541687,0.366211,0.122070,-0.061035
1953430458,0.00297546,0.00555420,-1.00582886,0.061035,-0.061035,-0.122070
1958433458,0.00335693,0.00546265,-1.00776672,0.000000,-0.122070,-0.122070
1963416416,0.00349426,0.00514221,-1.00947571,0.061035,-0.122070,-0.061035
1968436541,0.00344849,0.00476074,-1.00949097,0.061035,0.183105,-0.244141
1973426458,0.00349426,0.00485229,-1.00839233,-0.061035,0.000000,-0.061035
1978421666,0.00366211,0.00546265,-1.00724792,-0.244141,0.000000,-0.122070
1983413166,0.00350952,0.00613403,-1.00659180,-0.305176,0.000000,-0.183105
1988442125,0.00273132,0.00668335,-1.00703430,-0.244141,0.061035,0.061035
1993405833,0.00170898,0.00744629,-1.00848389,-0.183105,0.000000,-0.122070
1998437500,0.00128174,0.00846863,-1.00933838,-0.244141,0.000000,-0.122070
2003406958,0.00134277,0.00941467,-1.00889587,-0.244141,0.061035,0.000000
2008450041,0.00083923,0.00971985,-1.00814819,-0.305176,-0.244141,-0.183105
2013437625,-0.00021362,0.00947571,-1.00740051,-0.183105,0.061035,-0.122070
2018440791,-0.00099182,0.00923157,-1.00552368,-0.122070,0.000000,-0.122070
2023433250,-0.00109863,0.00920105,-1.00410461,0.183105,0.061035,-0.061035
2028428000,-0.00061035,0.00924683,-1.00463867,0.122070,0.000000,0.000000
2033408833,0.00057983,0.00914001,-1.00460815,0.244141,0.122070,0.061035
2038466041,0.00222778,0.00859070,-1.00375366,0.183105,-0.061035,-0.061035
2043550458,0.00325012,0.00793457,-1.00483704,0.183105,0.061035,-0.122070
2048769125,0.00300598,0.00759888,-1.00689697,0.183105,-0.061035,-0.183105
2053541458,0.00215149,0.00711060,-1.00708008,0.183105,-0.061035,-0.122070
2058408250,0.00181580,0.00613403,-1.00610352,0.305176,0.061035,-0.183105
2063389583,0.00236511,0.00521851,-1.00582886,0.244141,0.183105,-0.244141
2068411916,0.00314331,0.00497437,-1.00602722,0.305176,0.122070,-0.122070
2073488583,0.00350952,0.00515747,-1.00624084,0.305176,0.122070,-0.061035
2078476791,0.00343323,0.00526428,-1.00657654,0.061035,0.061035,-0.061035
2083428791,0.00320435,0.00559998,-1.00680542,0.305176,0.000000,-0.183105
2088510416,0.00317383,0.00634766,-1.00660706,0.183105,0.061035,0.000000
2093473500,0.00311279,0.00689697,-1.00625610,0.366211,0.061035,-0.061035
2098457166,0.00260925,0.00708008,-1.00663757,0.549316,0.061035,-0.122070
2103423291,0.00207520,0.00714111,-1.00740051,0.305176,0.122070,-0.061035
2108440041,0.00146484,0.00717163,-1.00682068,0.244141,0.061035,-0.122070
2113439750,0.00048828,0.00756836,-1.00537109,0.305176,0.122070,-0.183105
2118449083,-0.00025940,0.00851440,-1.00532532,0.366211,0.122070,-0.122070
2123420208,-0.00033569,0.00932312,-1.00624084,0.244141,0.061035,-0.061035
2128457833,-0.00015259,0.00935364,-1.00671387,0.366211,0.183105,0.000000
2133440708,0.00003052,0.00897217,-1.00680542,0.305176,0.061035,0.000000
2138450000,0.00028992,0.00898743,-1.00689697,0.305176,0.000000,-0.061035
2143517208,0.00019836,0.00961304,-1.00685120,0.427246,-0.061035,0.000000
2148459208,-0.00021362,0.01005554,-1.00633240,0.366211,-0.061035,-0.122070
2153449250,-0.00013733,0.00962830,-1.00567627,0.366211,0.000000,-0.122070
2158456041,0.00059509,0.00900269,-1.00569153,0.366211,0.061035,-0.122070
2163456291,0.00154114,0.00886536,-1.00622559,0.305176,0.000000,0.000000
2168455666,0.00221252,0.00885010,-1.00685120,0.305176,0.000000,-0.061035
2173427625,0.00253296,0.00856018,-1.00744629,0.488281,0.000000,-0.122070
2178452333,0.00270081,0.00805664,-1.00738525,0.366211,0.122070,-0.061035
2183462833,0.00274658,0.00775146,-1.00637817,0.305176,0.061035,-0.061035
2188484291,0.00280762,0.00773621,-1.00523376,0.488281,0.061035,-0.061035
2193434208,0.00289917,0.00785828,-1.00491333,0.366211,0.061035,-0.122070
2198463250,0.00288391,0.00772095,-1.00559998,0.305176,0.000000,-0.061035
2203431375,0.00267029,0.00708008,-1.00642395,0.549316,0.061035,-0.122070
2208512583,0.00256348,0.00662231,-1.00653076,0.549316,0.061035,-0.244141
2213451375,0.00250244,0.00679016,-1.00642395,0.732422,0.061035,-0.061035
2218451166,0.00204468,0.00737000,-1.00619507,0.488281,-0.061035,-0.061035
2223500583,0.00126648,0.00793457,-1.00526428,0.732422,0.061035,-0.183105
2228489041,0.00048828,0.00790405,-1.00425720,0.793457,0.061035,-0.122070
2233454875,-0.00010681,0.00729370,-1.00479126,0.549316,0.061035,-0.061035
2238470666,-0.00024414,0.00694275,-1.00598145,0.305176,0.061035,-0.061035
2243458833,-0.00025940,0.00726318,-1.00616455,0.427246,0.061035,0.000000
2248498666,-0.00061035,0.00753784,-1.00682068,0.244141,0.122070,-0.122070
2253465375,-0.00090027,0.00729370,-1.00924683,0.427246,-0.061035,0.000000
2258490208,-0.00053406,0.00669861,-1.01052856,0.061035,0.244141,0.061035
2263443333,0.00057983,0.00621033,-1.00898743,0.305176,0.122070,-0.061035
2268489625,0.00157166,0.00608826,-1.00704956,0.244141,0.122070,0.000000
2273448333,0.00202942,0.00592041,-1.00645447,0.305176,0.122070,0.061035
2278464250,0.00247192,0.00541687,-1.00650024,0.305176,0.061035,-0.183105
2283468875,0.00270081,0.00488281,-1.00695801,0.183105,-0.061035,0.000000
2288495708,0.00256348,0.00444031,-1.00796509,0.305176,-0.183105,-0.183105
2293454375,0.00280762,0.00424194,-1.00842285,-0.061035,0.061035,-0.183105
2298444375,0.00369263,0.00469971,-1.00735474,0.244141,0.061035,-0.061035
2303440208,0.00468445,0.00572205,-1.00495911,0.244141,0.122070,0.000000
2308482041,0.00543213,0.00688171,-1.00382996,0.488281,0.305176,-0.061035
2313463583,0.00593567,0.00770569,-1.00509644,0.427246,0.000000,-0.122070
2318471500,0.00614929,0.00796509,-1.00642395,0.427246,0.183105,-0.061035
2323446250,0.00608826,0.00813293,-1.00682068,0.549316,0.061035,-0.122070
2328473833,0.00584412,0.00862122,-1.00697327,0.488281,0.061035,-0.061035
2333462208,0.00534058,0.00917053,-1.00633240,0.549316,0.000000,-0.183105
2338483416,0.00439453,0.00935364,-1.00508118,0.427246,0.061035,-0.183105
2343446000,0.00312805,0.00917053,-1.00488281,0.366211,0.122070,-0.061035
2348461250,0.00186157,0.00889587,-1.00642395,0.488281,0.122070,-0.183105
2353545750,0.00054932,0.00898743,-1.00827026,0.366211,0.122070,-0.122070
2358465291,-0.00090027,0.00956726,-1.00897217,0.366211,0.061035,0.000000
2363392833,-0.00180054,0.01045227,-1.00875854,0.305176,0.122070,0.000000
2368458833,-0.00157166,0.01129150,-1.00816345,0.244141,0.000000,-0.061035
2373472875,-0.00112915,0.01170349,-1.00727844,0.305176,0.122070,0.000000
2378473166,-0.00177002,0.01158142,-1.00653076,0.244141,0.122070,-0.061035
2383461750,-0.00297546,0.01127625,-1.00642395,0.366211,0.000000,0.000000
2388507500,-0.00358582,0.01098633,-1.00680542,0.427246,0.061035,0.000000
2393475083,-0.00346375,0.01058960,-1.00698853,0.488281,0.122070,0.000000
2398478625,-0.00282288,0.01023865,-1.00680542,0.366211,-0.061035,0.061035
2403481625,-0.00193787,0.00988770,-1.00645447,0.305176,0.000000,0.000000
2408490000,-0.00119019,0.00900269,-1.00631714,0.549316,0.061035,0.183105
2413460375,-0.00036621,0.00781250,-1.00643921,0.244141,0.000000,-0.061035
2418476125,0.00094604,0.00714111,-1.00646973,0.183105,0.061035,-0.122070
2423482458,0.00247192,0.00689697,-1.00653076,0.427246,0.061035,-0.061035
2428490708,0.00367737,0.00659180,-1.00666809,0.366211,0.000000,-0.061035
2433485375,0.00439453,0.00624084,-1.00659180,0.305176,0.061035,0.000000
2438478000,0.00485229,0.00579834,-1.00621033,0.427246,0.000000,-0.122070
2443499291,0.00566101,0.00521851,-1.00578308,0.244141,0.061035,-0.122070
2448488166,0.00680542,0.00460815,-1.00535583,0.305176,0.061035,-0.183105
2453458208,0.00762939,0.00370789,-1.00532532,0.183105,0.061035,-0.183105
2458530833,0.00790405,0.00263977,-1.00559998,0.244141,0.061035,-0.122070
2463462958,0.00784302,0.00247192,-1.00570679,0.244141,-0.061035,-0.305176
2468491833,0.00758362,0.00363159,-1.00567627,0.366211,0.122070,-0.061035
2473455416,0.00680542,0.00503540,-1.00592041,0.244141,-0.061035,-0.122070
2478492791,0.00534058,0.00575256,-1.00668335,0.305176,-0.061035,-0.183105
2483472000,0.00363159,0.00613403,-1.00737000,0.488281,0.061035,-0.061035
2488485875,0.00218201,0.00668335,-1.00720215,0.366211,0.061035,0.000000
2493455666,0.00093079,0.00756836,-1.00668335,0.427246,0.061035,-0.183105
2498495375,-0.00051880,0.00888062,-1.00683594,0.244141,-0.061035,-0.122070
2503475291,-0.00177002,0.01023865,-1.00749207,0.366211,0.061035,-0.122070
2508489583,-0.00236511,0.01109314,-1.00790405,0.427246,0.000000,-0.061035
2513513250,-0.00242615,0.01161194,-1.00773621,0.427246,0.122070,0.000000
2518493291,-0.00205994,0.01202393,-1.00714111,0.366211,0.000000,-0.061035
2523490708,-0.00166321,0.01214600,-1.00654602,0.244141,0.000000,-0.122070
2528497083,-0.00169373,0.01185608,-1.00625610,0.427246,0.061035,0.061035
2533471583,-0.00184631,0.01139832,-1.00640869,0.610352,0.061035,0.061035
2538515541,-0.00169373,0.01094055,-1.00679016,0.488281,0.000000,0.000000
2543480291,-0.00128174,0.01042175,-1.00698853,0.122070,0.183105,-0.061035
2548497208,-0.00077820,0.00947571,-1.00665283,0.183105,0.061035,-0.061035
2553505875,-0.00013733,0.00816345,-1.00636292,0.305176,0.061035,0.061035
2558521041,0.00056458,0.00741577,-1.00689697,0.305176,0.061035,0.122070
2563512166,0.00103760,0.00747681,-1.00756836,0.366211,0.122070,0.061035
2568503541,0.00160217,0.00758362,-1.00735474,0.366211,0.061035,0.183105
2573510500,0.00286865,0.00732422,-1.00622559,0.366211,0.061035,1.464844
2578490291,0.00437927,0.00614929,-1.00489807,0.549316,-0.305176,1.647949
2583491250,0.00404358,-0.00074768,-1.00424194,0.244141,0.122070,0.610352
2588506625,-0.00042725,-0.01914978,-1.00538635,0.793457,0.183105,0.122070
2593486041,-0.00193787,-0.02609253,-1.00997925,0.061035,0.122070,0.122070
2598496791,0.00567627,0.00395203,-1.01071167,0.427246,0.244141,0.183105
2603493416,0.01260376,0.03799438,-1.00352478,0.366211,0.000000,0.488281
2608533083,0.01072693,0.03421021,-0.99923706,0.305176,0.061035,0.610352
2613489000,0.00485229,0.00782776,-1.00375366,0.488281,-0.122070,0.549316
2618507208,0.00112915,-0.00697327,-1.00970459,0.305176,-0.122070,1.464844
2623513000,-0.00111389,-0.00270081,-1.01078796,0.427246,0.122070,2.136230
2628512458,-0.00765991,0.01235962,-1.00906372,0.183105,0.122070,2.441406
2633492208,-0.01800537,0.02711487,-1.00741577,0.427246,0.061035,2.624512
2638470791,-0.02081299,0.03378296,-1.00691223,0.488281,-0.122070,2.685547
2643519291,-0.01130676,0.03361511,-1.00637817,0.244141,0.122070,2.624512
2648477666,0.00061035,0.02964783,-1.00491333,0.427246,0.061035,2.624512
2653499416,0.00495911,0.02255249,-1.00505066,0.488281,0.000000,2.380371
2658504541,0.00283813,0.01466370,-1.00775146,0.427246,0.122070,2.136230
2663492916,0.00019836,0.00886536,-1.00840759,0.427246,0.000000,2.136230
2668507166,-0.00256348,0.00408936,-1.00625610,0.427246,0.061035,2.014160
2673505875,-0.00688171,-0.00170898,-1.00540161,0.427246,0.061035,2.075195
2678541125,-0.00753784,-0.00559998,-1.00637817,0.183105,0.061035,2.075195
2683501583,-0.00231934,-0.00361633,-1.00660706,0.549316,0.122070,2.258301
2688505208,0.00241089,0.00193787,-1.00614929,0.305176,0.000000,2.319336
2693486708,0.00201416,0.00631714,-1.00576782,0.305176,0.061035,2.502441
2698489458,-0.00112915,0.00935364,-1.00546265,0.183105,0.000000,2.502441
2703519625,-0.00297546,0.01237488,-1.00561523,0.366211,0.000000,2.624512
2708519958,-0.00259399,0.01445007,-1.00651550,0.366211,0.122070,2.685547
2713479083,-0.00132751,0.01432800,-1.00747681,0.366211,0.000000,2.685547
2718546875,-0.00018311,0.01271057,-1.00808716,0.305176,0.122070,2.624512
2723474333,0.00048828,0.01116943,-1.00794983,0.305176,0.000000,2.624512
2728494166,0.00100708,0.00985718,-1.00698853,0.305176,0.000000,2.380371
2733518041,0.00238037,0.00827026,-1.00614929,0.244141,0.000000,2.380371
2738524916,0.00451660,0.00671387,-1.00576782,0.244141,0.061035,2.136230
2743485500,0.00613403,0.00601196,-1.00552368,0.183105,-0.061035,1.892090
2748518375,0.00682068,0.00685120,-1.00572205,0.366211,0.122070,1.647949
2753491083,0.00802612,0.00880432,-1.00703430,0.305176,0.061035,1.403809
2758534500,0.01112366,0.01000977,-1.00869751,0.427246,0.122070,1.037598
2763512125,0.01478577,0.00914001,-1.00833130,0.366211,0.061035,0.793457
2768518958,0.01701355,0.00688171,-1.00555420,0.244141,0.000000,0.488281
2773485208,0.01748657,0.00425720,-1.00317383,0.366211,0.000000,0.244141
2778518125,0.01618958,0.00152588,-1.00349426,0.305176,0.000000,0.244141
2783484916,0.01298523,-0.00003052,-1.00559998,0.305176,0.061035,0.061035
2788502333,0.00878906,0.00077820,-1.00732422,0.244141,0.122070,-0.061035
2793514875,0.00537109,0.00302124,-1.00770569,0.427246,-0.061035,-0.061035
2798535791,0.00378418,0.00497437,-1.00735474,0.305176,0.122070,0.000000
2803515833,0.00328064,0.00630188,-1.00686646,0.183105,0.122070,0.000000
2808533166,0.00267029,0.00706482,-1.00611877,0.549316,0.244141,-0.061035
2813500333,0.00205994,0.00674438,-1.00540161,0.366211,0.000000,0.000000
2818515125,0.00178528,0.00538635,-1.00540161,0.305176,0.122070,-0.061035
2823509583,0.00126648,0.00363159,-1.00624084,0.183105,0.122070,0.000000
2828507791,0.00047302,0.00195312,-1.00711060,0.244141,0.061035,-0.061035
2833519500,0.00041199,0.00111389,-1.00726318,0.122070,0.000000,0.000000
2838508041,0.00123596,0.00109863,-1.00657654,0.244141,-0.061035,-0.122070
2843508000,0.00183105,0.00080872,-1.00587463,0.305176,0.000000,-0.183105
2848510250,0.00209045,0.00033569,-1.00622559,0.244141,-0.061035,-0.122070
2853517416,0.00242615,0.00051880,-1.00727844,0.427246,0.183105,-0.061035
2858525333,0.00270081,0.00126648,-1.00762939,0.305176,0.061035,-0.122070
2863509333,0.00292969,0.00215149,-1.00669861,0.244141,-0.061035,-0.122070
2868527166,0.00337219,0.00286865,-1.00581360,0.305176,-0.061035,-0.061035
2873543916,0.00390625,0.00343323,-1.00595093,0.427246,0.122070,-0.122070
2878538250,0.00427246,0.00427246,-1.00653076,0.183105,0.183105,-0.122070
2883511000,0.00404358,0.00538635,-1.00692749,0.427246,0.061035,-0.122070
2888516083,0.00332642,0.00602722,-1.00712585,0.366211,0.000000,-0.122070
2893495500,0.00274658,0.00611877,-1.00727844,0.305176,0.000000,-0.122070
2898507958,0.00218201,0.00621033,-1.00721741,0.366211,-0.061035,-0.122070
2903501500,0.00120544,0.00675964,-1.00732422,0.244141,-0.061035,-0.061035
2908543166,0.00000000,0.00813293,-1.00772095,0.244141,0.000000,-0.122070
2913512958,-0.00093079,0.00993347,-1.00804138,0.366211,0.061035,-0.061035
2918503750,-0.00151062,0.01145935,-1.00827026,0.305176,0.061035,-0.183105
2923525125,-0.00172424,0.01240540,-1.00781250,0.305176,0.000000,-0.061035
2928523000,-0.00126648,0.01289368,-1.00672913,0.183105,0.000000,-0.183105
2933533333,-0.00033569,0.01347351,-1.00601196,0.305176,0.122070,-0.183105
2938561666,0.00036621,0.01473999,-1.00602722,0.183105,0.061035,-0.183105
2943546166,0.00065613,0.01672363,-1.00631714,0.305176,0.061035,-0.244141
2948555625,0.00106812,0.01873779,-1.00642395,0.244141,0.122070,-0.427246
2953524500,0.00181580,0.01911926,-1.00584412,0.244141,0.061035,-0.427246
2958552000,0.00193787,0.01725769,-1.00495911,0.122070,0.000000,-0.488281
2963508541,0.00105286,0.01536560,-1.00488281,0.183105,0.183105,-0.671387
2968517833,0.00070190,0.01446533,-1.00500488,0.183105,-0.061035,-0.671387
2973525916,0.00134277,0.01338196,-1.00550842,0.183105,0.000000,-0.488281
2978552833,0.00181580,0.01197815,-1.00617981,0.183105,0.000000,-0.549316
2983525958,0.00186157,0.01065063,-1.00582886,-0.061035,0.061035,-0.488281
2988508500,0.00183105,0.00953674,-1.00559998,0.000000,0.061035,-0.305176
2993510625,0.00196838,0.00862122,-1.00573730,0.183105,0.061035,-0.366211
2998534833,0.00228882,0.00726318,-1.00621033,0.122070,0.122070,-0.427246
3003502125,0.00238037,0.00498962,-1.00769043,0.366211,0.244141,-0.244141
3008539458,0.00222778,0.00318909,-1.00837708,0.305176,0.061035,-0.305176
3013499291,0.00234985,0.00335693,-1.00770569,0.366211,0.183105,-0.183105
3018529458,0.00231934,0.00396729,-1.00727844,0.244141,0.122070,-0.122070
3023519541,0.00141907,0.00289917,-1.00729370,0.183105,0.122070,-0.061035
3028583250,0.00033569,0.00085449,-1.00666809,0.305176,0.061035,-0.061035
3033509583,0.00033569,-0.00021362,-1.00616455,0.244141,0.122070,0.000000
3038528083,0.00138855,0.00018311,-1.00697327,0.244141,0.000000,-0.183105
3043526916,0.00222778,0.00131226,-1.00779724,0.305176,0.122070,-0.183105
3048523750,0.00230408,0.00253296,-1.00747681,0.427246,0.122070,-0.122070
3053526208,0.00228882,0.00379944,-1.00689697,0.305176,0.122070,-0.061035
3058530333,0.00262451,0.00502014,-1.00672913,0.305176,-0.122070,-0.122070
3063518125,0.00302124,0.00585938,-1.00689697,0.366211,0.061035,-0.244141
3068524416,0.00331116,0.00643921,-1.00727844,0.366211,0.061035,0.000000
3073531041,0.00343323,0.00740051,-1.00761414,0.427246,0.061035,-0.061035
3078554375,0.00343323,0.00839233,-1.00741577,0.366211,0.122070,-0.183105
3083513333,0.00326538,0.00874329,-1.00698853,0.305176,0.000000,-0.122070
3088546583,0.00292969,0.00891113,-1.00666809,0.366211,0.000000,-0.244141
3093529416,0.00242615,0.00907898,-1.00643921,0.427246,0.000000,-0.061035
3098535250,0.00198364,0.00904846,-1.00653076,0.366211,-0.061035,0.000000
3103511416,0.00180054,0.00926208,-1.00692749,0.305176,0.000000,-0.061035
3108525750,0.00152588,0.00999451,-1.00695801,0.366211,0.000000,-0.061035
3113518166,0.00094604,0.01063538,-1.00656128,0.305176,0.000000,-0.061035
3118540541,0.00047302,0.01065063,-1.00630188,0.366211,0.061035,-0.183105
3123520625,0.00024414,0.01036072,-1.00628662,0.305176,0.122070,0.000000
3128543583,0.00021362,0.01037598,-1.00634766,0.366211,0.000000,-0.122070
3133536666,0.00035095,0.01083374,-1.00613403,0.366211,0.000000,-0.061035
3138530958,0.00050354,0.01112366,-1.00578308,0.366211,0.000000,-0.122070
3143544208,0.00065613,0.01083374,-1.00592041,0.305176,0.122070,0.000000
3148548208,0.00085449,0.01033020,-1.00660706,0.305176,0.061035,0.061035
3153521708,0.00080872,0.00991821,-1.00703430,0.305176,0.061035,0.061035
3158548958,0.00050354,0.00918579,-1.00685120,0.244141,-0.061035,-0.122070
3163510333,0.00045776,0.00802612,-1.00646973,0.366211,0.000000,-0.061035
3168560541,0.00076294,0.00712585,-1.00627136,0.244141,0.183105,-0.061035
3173519416,0.00114441,0.00694275,-1.00616455,0.305176,0.183105,-0.061035
3178573750,0.00155640,0.00677490,-1.00614929,0.122070,0.000000,-0.244141
3183612416,0.00198364,0.00633240,-1.00628662,0.366211,0.122070,0.000000
3188576625,0.00247192,0.00622559,-1.00637817,0.427246,0.061035,-0.122070
3193555791,0.00283813,0.00656128,-1.00627136,0.061035,0.061035,0.061035
3198569666,0.00270081,0.00671387,-1.00617981,0.244141,0.061035,-0.183105
3203577583,0.00219727,0.00646973,-1.00628662,0.366211,0.061035,0.000000
3208546416,0.00189209,0.00613403,-1.00648499,0.366211,0.061035,-0.122070
3213560083,0.00201416,0.00617981,-1.00648499,0.305176,0.000000,-0.061035
3218566125,0.00231934,0.00680542,-1.00608826,0.244141,0.122070,-0.061035
3223519583,0.00247192,0.00755310,-1.00566101,0.366211,0.061035,-0.061035
3228528666,0.00244141,0.00781250,-1.00581360,0.366211,0.061035,-0.122070
3233518375,0.00213623,0.00767517,-1.00662231,0.427246,0.183105,0.000000
3238537125,0.00169373,0.00791931,-1.00749207,0.305176,0.000000,0.000000
3243520708,0.00152588,0.00851440,-1.00785828,0.244141,0.000000,-0.122070
3248534208,0.00141907,0.00886536,-1.00752258,0.366211,0.122070,0.000000
3253535291,0.00114441,0.00898743,-1.00668335,0.305176,0.244141,-0.061035
3258586416,0.00109863,0.00901794,-1.00605774,0.244141,0.000000,-0.122070
3263530291,0.00114441,0.00885010,-1.00633240,0.427246,0.000000,-0.122070
3268575333,0.00106812,0.00842285,-1.00726318,0.366211,0.000000,-0.122070
3273528583,0.00119019,0.00791931,-1.00791931,0.427246,0.122070,-0.061035
3278792083,0.00193787,0.00761414,-1.00775146,0.488281,0.000000,-0.061035
3283525041,0.00277710,0.00721741,-1.00691223,0.488281,0.122070,-0.122070
3288645750,0.00312805,0.00665283,-1.00619507,0.488281,0.061035,-0.183105
3293549083,0.00326538,0.00619507,-1.00582886,0.610352,0.061035,-0.061035
3298546916,0.00347900,0.00588989,-1.00534058,0.610352,0.122070,-0.122070
3303551666,0.00384521,0.00563049,-1.00541687,0.488281,0.122070,-0.061035
3308565625,0.00411987,0.00555420,-1.00601196,0.244141,0.000000,-0.183105
3313575708,0.00364685,0.00599670,-1.00653076,0.305176,0.061035,-0.061035
3318561916,0.00260925,0.00663757,-1.00737000,0.244141,0.122070,-0.122070
3323585541,0.00215149,0.00706482,-1.00842285,0.366211,-0.061035,-0.122070
3328548041,0.00230408,0.00730896,-1.00885010,0.183105,0.061035,-0.244141
3333539500,0.00183105,0.00765991,-1.00820923,0.305176,0.122070,-0.061035
3338590333,0.00067139,0.00836182,-1.00680542,0.305176,0.122070,0.000000
3343566958,-0.00021362,0.00923157,-1.00563049,0.305176,0.000000,-0.061035
3348602958,-0.00079346,0.00999451,-1.00552368,0.305176,0.000000,-0.122070
3353587708,-0.00128174,0.01039124,-1.00645447,0.305176,0.122070,-0.061035
3358595541,-0.00138855,0.01060486,-1.00714111,0.488281,0.000000,-0.122070
3363575125,-0.00079346,0.01060486,-1.00672913,0.427246,0.000000,-0.061035
3368557333,0.00001526,0.01013184,-1.00569153,0.366211,0.122070,-0.122070
3373554375,0.00027466,0.00942993,-1.00503540,0.366211,0.122070,0.000000
3378597666,0.00009155,0.00917053,-1.00555420,0.427246,0.122070,-0.122070
3383568125,-0.00003052,0.00978088,-1.00685120,0.488281,0.122070,0.000000
3388598166,-0.00010681,0.01029968,-1.00767517,0.305176,-0.061035,0.000000
3393538458,-0.00001526,0.00970459,-1.00785828,0.427246,0.122070,0.000000
3398581416,0.00027466,0.00856018,-1.00765991,0.366211,0.000000,-0.061035
3403555666,0.00065613,0.00775146,-1.00700378,0.183105,0.122070,-0.122070
3408589291,0.00122070,0.00750732,-1.00622559,0.000000,0.000000,0.061035
3413572083,0.00192261,0.00772095,-1.00622559,0.244141,0.061035,-0.183105
3418592750,0.00268555,0.00781250,-1.00700378,0.122070,0.000000,-0.061035
3423572833,0.00354004,0.00715637,-1.00772095,0.305176,0.000000,-0.122070
3428592083,0.00440979,0.00622559,-1.00779724,0.305176,0.061035,-0.061035
3433577583,0.00526428,0.00561523,-1.00738525,0.427246,0.061035,0.000000
3438564500,0.00573730,0.00549316,-1.00704956,0.366211,0.061035,-0.122070
3443644458,0.00566101,0.00550842,-1.00686646,0.366211,0.122070,-0.061035
3448598458,0.00558472,0.00488281,-1.00662231,0.488281,0.061035,-0.122070
3453574666,0.00559998,0.00395203,-1.00645447,0.549316,0.061035,-0.183105
3458603291,0.00511169,0.00381470,-1.00621033,0.549316,0.244141,-0.122070
3463562250,0.00399780,0.00440979,-1.00607300,0.488281,0.366211,-0.122070
3468574583,0.00303650,0.00489807,-1.00619507,0.549316,0.061035,-0.183105
3473547500,0.00265503,0.00508118,-1.00616455,0.488281,0.061035,-0.244141
3478592875,0.00242615,0.00537109,-1.00578308,0.549316,0.122070,-0.061035
3483579833,0.00170898,0.00588989,-1.00532532,0.549316,0.122070,0.000000
3488619333,0.00057983,0.00653076,-1.00538635,0.732422,0.061035,-0.183105
3493538125,-0.00025940,0.00747681,-1.00572205,0.549316,0.122070,-0.183105
3498592375,-0.00085449,0.00865173,-1.00576782,0.854492,0.061035,-0.061035
3503536541,-0.00140381,0.00949097,-1.00585938,0.732422,0.122070,-0.244141
3508581333,-0.00167847,0.01020813,-1.00619507,0.488281,0.061035,-0.061035
3513577875,-0.00161743,0.01091003,-1.00627136,0.427246,0.061035,-0.061035
3518597875,-0.00109863,0.01138306,-1.00604248,0.610352,0.061035,-0.183105
3523591458,-0.00004578,0.01162720,-1.00604248,0.549316,0.122070,-0.061035
3528601041,0.00103760,0.01177979,-1.00646973,0.488281,0.061035,-0.122070
3533589291,0.00157166,0.01197815,-1.00669861,0.427246,0.183105,0.000000
3538607416,0.00166321,0.01194763,-1.00628662,0.488281,0.183105,-0.061035
3543584666,0.00180054,0.01126099,-1.00622559,0.549316,0.122070,-0.122070
3548635375,0.00207520,0.01011658,-1.00672913,0.427246,0.061035,-0.061035
3553582916,0.00230408,0.00904846,-1.00674438,0.427246,-0.183105,-0.122070
3558586541,0.00233459,0.00836182,-1.00657654,0.488281,0.061035,-0.061035
3563591541,0.00251770,0.00816345,-1.00688171,0.488281,0.000000,-0.122070
3568616750,0.00283813,0.00807190,-1.00701904,0.366211,0.122070,-0.183105
3573603583,0.00299072,0.00770569,-1.00648499,0.305176,0.061035,0.000000
3578599083,0.00308228,0.00692749,-1.00590515,0.610352,0.183105,-0.061035
3583560500,0.00315857,0.00599670,-1.00578308,0.488281,0.000000,-0.061035
3588621166,0.00305176,0.00505066,-1.00604248,0.305176,0.061035,-0.183105
3593892416,0.00282288,0.00424194,-1.00634766,0.549316,0.061035,-0.122070
3598601541,0.00257874,0.00389099,-1.00650024,0.427246,0.000000,-0.183105
3603583958,0.00254822,0.00411987,-1.00637817,0.549316,0.122070,-0.061035
3608615541,0.00268555,0.00465393,-1.00617981,0.366211,0.000000,-0.122070
3613577083,0.00262451,0.00498962,-1.00637817,0.488281,0.061035,-0.122070
3618605166,0.00244141,0.00523376,-1.00688171,0.610352,0.122070,-0.061035
3623602166,0.00225830,0.00573730,-1.00729370,0.427246,0.000000,-0.183105
3628577583,0.00202942,0.00604248,-1.00735474,0.610352,0.061035,0.000000
3633576166,0.00187683,0.00596619,-1.00706482,0.427246,0.000000,0.061035
3638615083,0.00158691,0.00587463,-1.00648499,0.549316,0.122070,-0.122070
3643594625,0.00134277,0.00616455,-1.00599670,0.610352,0.000000,-0.183105
3648576958,0.00164795,0.00686646,-1.00630188,0.366211,0.183105,-0.061035
3653581583,0.00192261,0.00730896,-1.00704956,0.549316,0.000000,-0.061035
3658626208,0.00163269,0.00718689,-1.00737000,0.549316,0.000000,-0.122070
3663604458,0.00105286,0.00715637,-1.00712585,0.427246,0.000000,-0.183105
3668628750,0.00077820,0.00752258,-1.00704956,0.549316,0.061035,-0.061035
3673597416,0.00125122,0.00785828,-1.00756836,0.488281,0.061035,-0.061035
3678580166,0.00201416,0.00804138,-1.00790405,0.488281,0.061035,-0.183105
3683609875,0.00207520,0.00794983,-1.00712585,0.549316,0.000000,-0.183105
3688599375,0.00138855,0.00755310,-1.00619507,0.488281,0.000000,-0.061035
3693586541,0.00082397,0.00727844,-1.00605774,0.610352,0.122070,0.061035
3698622500,0.00094604,0.00737000,-1.00639343,0.610352,0.061035,0.000000
3703683458,0.00123596,0.00790405,-1.00663757,0.610352,-0.183105,-0.122070
3708615875,0.00100708,0.00837708,-1.00654602,0.488281,-0.061035,-0.183105
3713581583,0.00056458,0.00804138,-1.00659180,0.305176,-0.061035,0.000000
3718627208,0.00048828,0.00732422,-1.00718689,0.427246,-0.061035,-0.183105
3723579291,0.00082397,0.00733948,-1.00753784,0.427246,0.000000,0.000000
3728622750,0.00125122,0.00796509,-1.00701904,0.366211,0.122070,-0.061035
3733567000,0.00152588,0.00828552,-1.00634766,0.366211,0.061035,-0.122070
3738577916,0.00157166,0.00805664,-1.00619507,0.488281,0.122070,-0.122070
3743575041,0.00152588,0.00778198,-1.00619507,0.488281,0.061035,-0.122070
3748577416,0.00173950,0.00762939,-1.00582886,0.610352,0.061035,-0.061035
3753572375,0.00218201,0.00730896,-1.00556946,0.427246,0.061035,-0.061035
3758639708,0.00234985,0.00698853,-1.00628662,0.488281,0.000000,-0.061035
3763607458,0.00253296,0.00724792,-1.00743103,0.488281,0.000000,-0.061035
3768622500,0.00265503,0.00778198,-1.00747681,0.305176,0.000000,-0.122070
3773614833,0.00205994,0.00740051,-1.00669861,0.305176,0.122070,-0.122070
3778619750,0.00102234,0.00634766,-1.00614929,0.305176,0.000000,0.061035
3783578416,0.00057983,0.00584412,-1.00604248,0.305176,0.000000,-0.061035
3788598083,0.00108337,0.00607300,-1.00662231,0.244141,0.000000,0.000000
3793594291,0.00172424,0.00624084,-1.00756836,0.305176,0.000000,-0.122070
3798617958,0.00172424,0.00587463,-1.00764465,0.366211,0.122070,0.000000
3803573666,0.00108337,0.00540161,-1.00717163,0.366211,0.061035,-0.061035
3808610000,0.00047302,0.00526428,-1.00700378,0.244141,0.061035,-0.122070
3813591916,0.00088501,0.00531006,-1.00682068,0.427246,0.183105,-0.122070
3818605625,0.00189209,0.00524902,-1.00636292,0.427246,0.061035,-0.183105
3823596375,0.00218201,0.00488281,-1.00631714,0.427246,0.000000,-0.183105
3828597750,0.00199890,0.00495911,-1.00680542,0.549316,0.061035,-0.122070
3833600333,0.00242615,0.00604248,-1.00729370,0.549316,0.000000,-0.061035
3838608416,0.00299072,0.00718689,-1.00762939,0.549316,0.122070,0.061035
3843627125,0.00270081,0.00738525,-1.00801086,0.427246,0.122070,-0.061035
3848597166,0.00212097,0.00688171,-1.00819397,0.366211,0.000000,-0.122070
3853605791,0.00207520,0.00637817,-1.00769043,0.488281,0.061035,-0.122070
3858610916,0.00231934,0.00633240,-1.00691223,0.488281,0.061035,-0.122070
3863606958,0.00224304,0.00662231,-1.00679016,0.244141,-0.122070,-0.122070
3868624666,0.00189209,0.00675964,-1.00715637,0.427246,0.122070,-0.122070
3873624291,0.00198364,0.00654602,-1.00720215,0.427246,0.061035,-0.061035
3878622208,0.00230408,0.00631714,-1.00694275,0.366211,0.122070,-0.061035
3883606208,0.00209045,0.00613403,-1.00668335,0.488281,0.061035,0.000000
3888636166,0.00149536,0.00593567,-1.00633240,0.305176,0.061035,0.000000
3893625000,0.00132751,0.00581360,-1.00605774,0.427246,0.061035,-0.061035
3898604458,0.00155640,0.00584412,-1.00579834,0.305176,-0.061035,-0.122070
3903624791,0.00172424,0.00616455,-1.00549316,0.488281,0.000000,-0.122070
3908616833,0.00201416,0.00677490,-1.00538635,0.427246,0.122070,-0.122070
3913650583,0.00238037,0.00701904,-1.00566101,0.427246,-0.061035,0.000000
3918602833,0.00216675,0.00665283,-1.00627136,0.305176,0.122070,-0.061035
3923640250,0.00172424,0.00633240,-1.00665283,0.366211,0.122070,-0.122070
3928641458,0.00173950,0.00650024,-1.00668335,0.244141,0.061035,0.000000
3933617000,0.00209045,0.00692749,-1.00685120,0.244141,0.061035,0.000000
3938649291,0.00201416,0.00718689,-1.00744629,0.244141,0.183105,-0.122070
3943634500,0.00154114,0.00741577,-1.00794983,0.305176,0.183105,0.000000
3948600833,0.00149536,0.00770569,-1.00733948,0.305176,0.000000,0.000000
3953620125,0.00181580,0.00790405,-1.00608826,0.305176,0.061035,0.061035
3958640208,0.00190735,0.00807190,-1.00576782,0.305176,0.122070,-0.122070
3963618625,0.00166321,0.00798035,-1.00624084,0.244141,0.122070,-0.061035
3968625416,0.00149536,0.00761414,-1.00631714,0.183105,0.061035,-0.122070
3973606541,0.00166321,0.00746155,-1.00616455,0.488281,0.122070,-0.122070
3978643916,0.00186157,0.00721741,-1.00608826,0.244141,0.122070,-0.061035
3983622875,0.00183105,0.00665283,-1.00596619,0.244141,0.000000,-0.061035
3988656333,0.00196838,0.00619507,-1.00605774,0.366211,0.183105,-0.122070
3993637958,0.00241089,0.00605774,-1.00633240,0.305176,0.000000,-0.122070
3998623875,0.00267029,0.00617981,-1.00642395,0.366211,0.061035,-0.183105
4003631041,0.00247192,0.00614929,-1.00622559,0.366211,0.061035,0.000000
4008639541,0.00204468,0.00593567,-1.00613403,0.427246,0.061035,0.061035
4013632041,0.00172424,0.00581360,-1.00646973,0.427246,0.244141,-0.061035
4018646666,0.00212097,0.00581360,-1.00703430,0.366211,0.122070,-0.122070
4023617958,0.00325012,0.00575256,-1.00730896,0.427246,0.122070,-0.061035
4028634666,0.00416565,0.00556946,-1.00714111,0.427246,0.122070,-0.061035
4033636333,0.00424194,0.00538635,-1.00697327,0.488281,0.183105,0.000000
4038662333,0.00392151,0.00529480,-1.00675964,0.366211,0.183105,-0.122070
4043635416,0.00352478,0.00529480,-1.00642395,0.305176,0.122070,-0.183105
4048655125,0.00291443,0.00535583,-1.00601196,0.366211,0.061035,-0.122070
4053600041,0.00221252,0.00543213,-1.00566101,0.366211,0.122070,-0.122070
4058604916,0.00187683,0.00579834,-1.00578308,0.366211,0.061035,-0.061035
4063589208,0.00193787,0.00646973,-1.00621033,0.366211,0.183105,-0.183105
4068672500,0.00212097,0.00711060,-1.00653076,0.366211,-0.061035,-0.183105
4073606666,0.00207520,0.00747681,-1.00674438,0.366211,-0.061035,-0.122070
4078622375,0.00183105,0.00770569,-1.00685120,0.427246,0.000000,-0.061035
4083618416,0.00138855,0.00781250,-1.00668335,0.488281,-0.061035,-0.061035
4088626916,0.00090027,0.00776672,-1.00622559,0.366211,0.061035,-0.122070
4093640666,0.00056458,0.00753784,-1.00599670,0.305176,0.061035,-0.122070
4098652291,0.00054932,0.00741577,-1.00619507,0.488281,0.183105,0.122070
4103629958,0.00091553,0.00753784,-1.00653076,0.366211,0.122070,-0.122070
4108643958,0.00100708,0.00753784,-1.00677490,0.488281,0.122070,0.000000
4113631125,0.00068665,0.00746155,-1.00674438,0.305176,0.000000,-0.183105
4118665208,0.00044250,0.00788879,-1.00643921,0.305176,0.061035,-0.061035
4123647625,0.00051880,0.00875854,-1.00604248,0.427246,0.061035,-0.061035
4128625000,0.00079346,0.00907898,-1.00599670,0.244141,0.061035,-0.061035
4133625416,0.00105286,0.00843811,-1.00614929,0.366211,0.061035,0.000000
4138664000,0.00140381,0.00737000,-1.00621033,0.427246,0.183105,-0.183105
4143624583,0.00163269,0.00672913,-1.00671387,0.244141,0.061035,-0.061035
4148652916,0.00138855,0.00663757,-1.00767517,0.366211,0.183105,0.000000
4153746833,0.00125122,0.00674438,-1.00791931,0.427246,0.122070,0.000000
4158652125,0.00169373,0.00682068,-1.00718689,0.366211,0.061035,0.061035
4163620083,0.00238037,0.00674438,-1.00645447,0.244141,0.183105,-0.122070
4168651333,0.00270081,0.00650024,-1.00617981,0.427246,0.000000,-0.305176
4173667916,0.00253296,0.00631714,-1.00608826,0.366211,0.122070,0.000000
4178638708,0.00215149,0.00631714,-1.00604248,0.427246,0.061035,-0.122070
4183631833,0.00202942,0.00653076,-1.00619507,0.366211,0.000000,-0.122070
4188643625,0.00236511,0.00677490,-1.00665283,0.366211,0.000000,-0.122070
4193609041,0.00282288,0.00686646,-1.00717163,0.305176,0.061035,-0.122070
4198648375,0.00303650,0.00675964,-1.00721741,0.427246,0.122070,0.000000
4203632041,0.00312805,0.00650024,-1.00654602,0.244141,0.000000,0.061035
4208649083,0.00294495,0.00640869,-1.00566101,0.366211,0.000000,-0.122070
4213645125,0.00231934,0.00662231,-1.00556946,0.305176,0.000000,-0.061035
4218680375,0.00198364,0.00672913,-1.00639343,0.366211,0.122070,-0.122070
4223648791,0.00209045,0.00654602,-1.00689697,0.366211,0.183105,-0.061035
4228669000,0.00193787,0.00634766,-1.00686646,0.427246,0.183105,-0.061035
4233655916,0.00181580,0.00643921,-1.00724792,0.366211,0.000000,-0.122070
4238665000,0.00225830,0.00679016,-1.00782776,0.305176,0.061035,-0.244141
4243641083,0.00256348,0.00712585,-1.00785828,0.427246,0.122070,-0.122070
4248651291,0.00213623,0.00723267,-1.00744629,0.183105,0.061035,-0.183105
4253640500,0.00149536,0.00727844,-1.00711060,0.366211,0.183105,0.000000
4258633958,0.00128174,0.00732422,-1.00668335,0.305176,0.000000,-0.122070
4263664791,0.00138855,0.00758362,-1.00616455,0.488281,0.000000,0.061035
4268644041,0.00148010,0.00819397,-1.00604248,0.427246,0.000000,-0.061035
4273623333,0.00141907,0.00839233,-1.00637817,0.305176,0.061035,-0.183105
4278698375,0.00122070,0.00769043,-1.00669861,0.366211,0.061035,-0.061035
4283662333,0.00117493,0.00706482,-1.00665283,0.427246,0.061035,-0.183105
4288682541,0.00138855,0.00704956,-1.00680542,0.183105,0.061035,-0.122070
4293638375,0.00173950,0.00711060,-1.00717163,0.244141,0.000000,-0.061035
4298669083,0.00225830,0.00679016,-1.00714111,0.366211,0.000000,-0.061035
4303678833,0.00263977,0.00643921,-1.00686646,0.183105,0.061035,0.000000
4308668916,0.00251770,0.00651550,-1.00654602,0.305176,0.061035,-0.061035
4313624083,0.00202942,0.00682068,-1.00613403,0.244141,0.244141,0.000000
4318667416,0.00157166,0.00704956,-1.00582886,0.183105,0.061035,-0.061035
4323653916,0.00155640,0.00701904,-1.00563049,0.366211,0.122070,-0.122070
4328696041,0.00198364,0.00704956,-1.00558472,0.366211,0.122070,-0.061035
4333652000,0.00221252,0.00723267,-1.00578308,0.366211,0.000000,-0.122070
4338654500,0.00190735,0.00741577,-1.00616455,0.305176,0.061035,-0.061035
4343622333,0.00177002,0.00746155,-1.00672913,0.122070,0.000000,0.000000
4348655541,0.00219727,0.00704956,-1.00695801,0.244141,0.122070,-0.122070
4353656916,0.00256348,0.00665283,-1.00656128,0.122070,0.061035,-0.122070
4358652000,0.00239563,0.00666809,-1.00604248,0.305176,0.061035,-0.061035
4363651875,0.00221252,0.00680542,-1.00611877,0.244141,0.000000,-0.183105
4368656625,0.00251770,0.00675964,-1.00653076,0.427246,0.061035,0.000000
4373650708,0.00289917,0.00656128,-1.00643921,0.244141,0.122070,-0.122070
4378655000,0.00300598,0.00669861,-1.00631714,0.427246,0.122070,-0.061035
4383687416,0.00291443,0.00721741,-1.00683594,0.488281,0.000000,-0.122070
4388655208,0.00267029,0.00727844,-1.00753784,0.244141,0.000000,-0.244141
4393648750,0.00218201,0.00657654,-1.00743103,0.244141,0.061035,-0.061035
4398692625,0.00170898,0.00588989,-1.00651550,0.305176,0.061035,0.061035
4403627833,0.00195312,0.00569153,-1.00570679,0.244141,0.061035,-0.244141
4408678958,0.00277710,0.00569153,-1.00561523,0.244141,0.000000,-0.122070
4413663458,0.00308228,0.00576782,-1.00637817,0.305176,0.000000,-0.122070
4418695958,0.00260925,0.00614929,-1.00717163,0.427246,0.000000,-0.061035
4423641041,0.00201416,0.00662231,-1.00740051,0.244141,-0.122070,-0.183105
4428664125,0.00183105,0.00689697,-1.00740051,0.305176,0.122070,-0.244141
4433652708,0.00189209,0.00711060,-1.00746155,0.427246,0.000000,-0.122070
4438657333,0.00195312,0.00744629,-1.00761414,0.183105,0.000000,-0.061035
4443657541,0.00195312,0.00761414,-1.00743103,0.427246,0.061035,0.000000
4448650458,0.00184631,0.00733948,-1.00712585,0.244141,0.061035,-0.183105
4453683875,0.00161743,0.00691223,-1.00727844,0.244141,0.061035,-0.122070
4458664333,0.00143433,0.00680542,-1.00740051,0.427246,0.061035,-0.061035
4463637958,0.00141907,0.00704956,-1.00683594,0.366211,-0.122070,-0.122070
4468653166,0.00144958,0.00730896,-1.00590515,0.244141,-0.061035,-0.122070
4473646208,0.00144958,0.00747681,-1.00552368,0.366211,0.122070,-0.122070
4478714000,0.00132751,0.00779724,-1.00582886,0.427246,-0.061035,-0.061035
4483727291,0.00126648,0.00794983,-1.00633240,0.244141,-0.061035,-0.061035
4488671125,0.00167847,0.00769043,-1.00671387,0.549316,0.061035,0.000000
4493665833,0.00225830,0.00740051,-1.00697327,0.244141,0.000000,-0.122070
4498671250,0.00251770,0.00737000,-1.00720215,0.305176,-0.061035,-0.061035
4503664875,0.00241089,0.00737000,-1.00715637,0.305176,0.122070,-0.122070
4508671958,0.00210571,0.00723267,-1.00701904,0.244141,0.244141,-0.183105
4513663291,0.00192261,0.00694275,-1.00706482,0.427246,0.061035,0.061035
4518668625,0.00196838,0.00651550,-1.00691223,0.305176,0.061035,-0.122070
4523675458,0.00196838,0.00617981,-1.00654602,0.366211,0.122070,-0.183105
4528913041,0.00172424,0.00631714,-1.00650024,0.366211,-0.061035,-0.122070
4533644958,0.00169373,0.00683594,-1.00674438,0.366211,0.061035,0.000000
4538686958,0.00212097,0.00720215,-1.00686646,0.244141,0.000000,-0.183105
4543677041,0.00254822,0.00689697,-1.00662231,0.427246,0.061035,-0.183105
4548689541,0.00241089,0.00605774,-1.00611877,0.305176,0.061035,-0.122070
4553678291,0.00169373,0.00563049,-1.00563049,0.366211,0.061035,-0.122070
4558680416,0.00126648,0.00596619,-1.00552368,0.305176,0.183105,-0.183105
4563674083,0.00187683,0.00637817,-1.00582886,0.488281,0.122070,-0.061035
4568635416,0.00286865,0.00665283,-1.00640869,0.427246,0.000000,-0.061035
4573662666,0.00288391,0.00692749,-1.00715637,0.183105,0.061035,-0.061035
4578747875,0.00195312,0.00682068,-1.00793457,0.366211,0.061035,-0.061035
4583668250,0.00125122,0.00622559,-1.00801086,0.427246,-0.122070,-0.122070
4588741000,0.00123596,0.00559998,-1.00708008,0.244141,0.061035,-0.061035
4593675041,0.00143433,0.00534058,-1.00593567,0.244141,0.122070,-0.122070
4598675458,0.00155640,0.00564575,-1.00572205,0.244141,0.122070,-0.061035
4603671583,0.00172424,0.00637817,-1.00642395,0.305176,0.061035,-0.061035
4608706458,0.00189209,0.00685120,-1.00704956,0.244141,0.183105,-0.122070
4613684458,0.00207520,0.00672913,-1.00691223,0.488281,0.061035,-0.122070
4618691708,0.00242615,0.00646973,-1.00653076,0.366211,0.061035,-0.061035
4623681958,0.00248718,0.00654602,-1.00663757,0.366211,0.061035,0.061035
4628732750,0.00205994,0.00691223,-1.00701904,0.244141,0.000000,-0.122070
4633668958,0.00180054,0.00720215,-1.00657654,0.305176,0.183105,-0.061035
4638710083,0.00187683,0.00720215,-1.00572205,0.427246,0.061035,0.000000
4643703416,0.00215149,0.00747681,-1.00587463,0.244141,0.061035,-0.183105
4648681083,0.00239563,0.00805664,-1.00637817,0.244141,0.061035,-0.183105
4653688875,0.00236511,0.00837708,-1.00630188,0.366211,0.122070,-0.122070
4658715750,0.00189209,0.00833130,-1.00598145,0.427246,0.061035,-0.122070
4663679583,0.00094604,0.00801086,-1.00564575,0.488281,0.061035,-0.183105
4668685375,0.00024414,0.00741577,-1.00566101,0.244141,0.000000,-0.122070
4673684625,0.00036621,0.00675964,-1.00627136,0.122070,0.061035,-0.122070
4678706416,0.00102234,0.00643921,-1.00717163,0.366211,0.061035,0.061035
4683701375,0.00169373,0.00677490,-1.00755310,0.366211,0.000000,-0.122070
4688715375,0.00184631,0.00740051,-1.00718689,0.183105,0.061035,0.000000
4693684916,0.00143433,0.00759888,-1.00662231,0.244141,0.122070,-0.061035
4698705416,0.00105286,0.00737000,-1.00662231,0.305176,0.122070,0.000000
4703680708,0.00114441,0.00701904,-1.00701904,0.427246,0.122070,-0.061035
4708711500,0.00140381,0.00689697,-1.00688171,0.366211,0.000000,-0.061035
4713683000,0.00151062,0.00703430,-1.00607300,0.305176,0.061035,-0.183105
4718706125,0.00149536,0.00685120,-1.00578308,0.305176,0.122070,0.000000
4723664875,0.00160217,0.00624084,-1.00648499,0.366211,0.122070,-0.061035
4728708041,0.00198364,0.00579834,-1.00698853,0.427246,0.122070,0.000000
4733688333,0.00244141,0.00573730,-1.00653076,0.366211,0.061035,-0.183105
4738699500,0.00256348,0.00585938,-1.00596619,0.427246,0.061035,0.061035
4743723583,0.00225830,0.00605774,-1.00611877,0.305176,0.061035,-0.183105
4748703000,0.00202942,0.00624084,-1.00650024,0.366211,0.183105,0.000000
4753705666,0.00219727,0.00621033,-1.00624084,0.305176,0.122070,0.000000
4758697416,0.00238037,0.00634766,-1.00582886,0.244141,0.183105,-0.122070
4763677666,0.00219727,0.00665283,-1.00598145,0.305176,0.000000,-0.183105
4768673750,0.00183105,0.00656128,-1.00645447,0.305176,0.122070,-0.122070
4773677125,0.00178528,0.00601196,-1.00718689,0.427246,0.061035,-0.122070
4778706250,0.00198364,0.00582886,-1.00788879,0.305176,0.061035,-0.122070
4783704750,0.00204468,0.00617981,-1.00787354,0.366211,0.061035,-0.183105
4788690208,0.00193787,0.00675964,-1.00724792,0.366211,0.061035,-0.183105
4793778291,0.00172424,0.00727844,-1.00669861,0.305176,0.122070,0.000000
4798730375,0.00149536,0.00730896,-1.00628662,0.305176,0.061035,-0.061035
4803684500,0.00141907,0.00717163,-1.00596619,0.366211,0.000000,-0.061035
4808716541,0.00143433,0.00740051,-1.00602722,0.366211,0.061035,-0.183105
4813705416,0.00155640,0.00767517,-1.00634766,0.366211,0.000000,-0.122070
4818718166,0.00178528,0.00750732,-1.00672913,0.488281,-0.061035,0.000000
4823710625,0.00186157,0.00703430,-1.00692749,0.366211,0.061035,-0.061035
4828721458,0.00166321,0.00665283,-1.00682068,0.183105,0.061035,-0.183105
4833693041,0.00154114,0.00636292,-1.00650024,0.183105,0.000000,-0.122070
4838694916,0.00164795,0.00643921,-1.00624084,0.427246,0.122070,-0.122070
4843689291,0.00167847,0.00706482,-1.00616455,0.244141,0.061035,-0.122070
4848742958,0.00163269,0.00759888,-1.00639343,0.366211,0.061035,-0.061035
4853687166,0.00138855,0.00750732,-1.00709534,0.366211,0.061035,-0.061035
4858719000,0.00126648,0.00689697,-1.00770569,0.427246,0.061035,0.000000
4863717375,0.00198364,0.00660706,-1.00791931,0.366211,0.061035,-0.061035
4868729000,0.00320435,0.00706482,-1.00794983,0.305176,0.183105,-0.122070
4873687958,0.00386047,0.00769043,-1.00769043,0.366211,0.122070,-0.122070
4878723041,0.00338745,0.00776672,-1.00741577,0.061035,0.061035,-0.122070
4883704541,0.00219727,0.00717163,-1.00746155,0.305176,0.122070,0.061035
4888719750,0.00128174,0.00648499,-1.00785828,0.305176,0.122070,0.000000
4893719750,0.00123596,0.00622559,-1.00808716,0.244141,0.000000,-0.061035
4898770291,0.00169373,0.00633240,-1.00761414,0.427246,0.122070,-0.061035
4903695250,0.00192261,0.00669861,-1.00685120,0.183105,0.122070,-0.061035
4908725083,0.00212097,0.00714111,-1.00622559,0.183105,0.122070,-0.122070
4913726333,0.00273132,0.00723267,-1.00599670,0.305176,0.122070,-0.183105
4918725083,0.00315857,0.00697327,-1.00607300,0.366211,0.000000,-0.122070
4923676541,0.00274658,0.00677490,-1.00595093,0.488281,0.000000,-0.061035
4928720500,0.00205994,0.00660706,-1.00611877,0.366211,-0.122070,0.061035
4933690166,0.00167847,0.00625610,-1.00704956,0.366211,-0.122070,0.000000
4938735208,0.00152588,0.00614929,-1.00756836,0.366211,0.000000,0.061035
4943707166,0.00163269,0.00663757,-1.00672913,0.305176,0.122070,0.000000
4948724750,0.00187683,0.00727844,-1.00581360,0.366211,0.061035,0.000000
4953745416,0.00201416,0.00703430,-1.00605774,0.305176,0.122070,-0.122070
4958695958,0.00227356,0.00605774,-1.00675964,0.305176,0.000000,-0.122070
4963712625,0.00282288,0.00578308,-1.00714111,0.427246,0.000000,-0.061035
4968736500,0.00312805,0.00666809,-1.00729370,0.244141,0.061035,-0.183105
4973702583,0.00294495,0.00764465,-1.00721741,0.244141,0.000000,-0.122070
4978724208,0.00248718,0.00787354,-1.00697327,0.366211,0.183105,-0.122070
4983719208,0.00161743,0.00744629,-1.00666809,0.305176,0.061035,-0.183105
4988733166,0.00099182,0.00680542,-1.00621033,0.366211,0.061035,-0.061035
4993701500,0.00129700,0.00639343,-1.00628662,0.366211,0.000000,-0.122070
4998723458,0.00196838,0.00645447,-1.00724792,0.366211,0.000000,-0.061035
5003760916,0.00215149,0.00675964,-1.00799561,0.366211,0.122070,-0.061035
5008752500,0.00172424,0.00698853,-1.00741577,0.366211,0.122070,-0.122070
5013734416,0.00144958,0.00694275,-1.00616455,0.427246,0.000000,-0.122070
5018722708,0.00157166,0.00665283,-1.00538635,0.244141,0.000000,-0.183105
5023788500,0.00148010,0.00639343,-1.00559998,0.366211,0.061035,-0.122070
5028733958,0.00112915,0.00648499,-1.00651550,0.244141,0.061035,-0.061035
5033717625,0.00109863,0.00671387,-1.00720215,0.366211,0.061035,-0.061035
5038748125,0.00149536,0.00669861,-1.00694275,0.305176,0.000000,-0.061035
5043703291,0.00152588,0.00666809,-1.00619507,0.244141,0.061035,0.061035
5048708291,0.00100708,0.00698853,-1.00587463,0.305176,0.000000,-0.061035
5053697791,0.00074768,0.00738525,-1.00608826,0.305176,0.061035,-0.122070
5058729000,0.00131226,0.00756836,-1.00622559,0.305176,0.061035,-0.122070
5063714541,0.00207520,0.00744629,-1.00616455,0.244141,0.061035,0.000000
5068729541,0.00198364,0.00730896,-1.00677490,0.427246,0.122070,0.000000
5073704583,0.00126648,0.00726318,-1.00787354,0.061035,0.000000,0.000000
5078748833,0.00112915,0.00712585,-1.00788879,0.305176,-0.061035,-0.061035
5083718583,0.00181580,0.00675964,-1.00692749,0.366211,0.061035,-0.061035
5088757750,0.00234985,0.00657654,-1.00625610,0.305176,0.061035,-0.061035
5093735333,0.00236511,0.00679016,-1.00621033,0.488281,0.061035,-0.183105
5098728916,0.00248718,0.00679016,-1.00634766,0.488281,0.122070,-0.183105
5103702375,0.00276184,0.00636292,-1.00630188,0.305176,0.122070,-0.183105
5108794833,0.00262451,0.00602722,-1.00617981,0.366211,0.122070,-0.061035
5113718708,0.00213623,0.00637817,-1.00659180,0.427246,0.061035,-0.122070
5118729916,0.00163269,0.00701904,-1.00749207,0.244141,0.061035,-0.061035
5123702166,0.00120544,0.00715637,-1.00785828,0.366211,0.183105,-0.305176
5128740916,0.00114441,0.00689697,-1.00735474,0.183105,0.000000,-0.122070
5133743000,0.00143433,0.00657654,-1.00682068,0.427246,0.122070,0.061035
5138723875,0.00175476,0.00634766,-1.00651550,0.366211,0.061035,0.000000
5143713750,0.00196838,0.00611877,-1.00633240,0.427246,0.122070,-0.122070
5148751125,0.00221252,0.00573730,-1.00633240,0.305176,0.183105,-0.061035
5153717791,0.00224304,0.00549316,-1.00651550,0.122070,0.000000,-0.183105
5158745708,0.00204468,0.00575256,-1.00668335,0.488281,0.183105,-0.122070
5163722875,0.00190735,0.00622559,-1.00704956,0.427246,0.061035,-0.122070
5168736458,0.00181580,0.00642395,-1.00746155,0.427246,0.000000,-0.183105
5173732250,0.00161743,0.00643921,-1.00740051,0.244141,0.061035,0.000000
5178741458,0.00149536,0.00659180,-1.00686646,0.244141,0.061035,0.122070
5183746125,0.00164795,0.00677490,-1.00640869,0.366211,0.000000,0.122070
5188751625,0.00157166,0.00677490,-1.00650024,0.366211,0.061035,-0.122070
5193719875,0.00117493,0.00688171,-1.00717163,0.427246,0.061035,0.000000
5198753416,0.00088501,0.00715637,-1.00769043,0.366211,0.061035,-0.061035
5203699375,0.00070190,0.00715637,-1.00740051,0.305176,0.061035,-0.061035
5208752375,0.00059509,0.00672913,-1.00675964,0.244141,0.061035,-0.122070
5213729208,0.00097656,0.00657654,-1.00685120,0.366211,0.061035,0.000000
5218769875,0.00190735,0.00706482,-1.00743103,0.244141,0.061035,-0.061035
5223736916,0.00285339,0.00750732,-1.00764465,0.305176,0.000000,-0.122070
5228744500,0.00312805,0.00747681,-1.00764465,0.488281,-0.061035,-0.061035
5233741416,0.00276184,0.00729370,-1.00752258,0.427246,0.122070,-0.061035
5238748500,0.00239563,0.00697327,-1.00714111,0.427246,-0.061035,-0.122070
5243760958,0.00222778,0.00654602,-1.00668335,0.305176,-0.061035,-0.122070
5248752916,0.00180054,0.00637817,-1.00605774,0.366211,0.061035,-0.061035
5253742125,0.00128174,0.00654602,-1.00570679,0.427246,0.244141,-0.061035
5258746916,0.00126648,0.00656128,-1.00610352,0.244141,0.122070,-0.122070
5263790791,0.00183105,0.00645447,-1.00653076,0.183105,0.000000,-0.122070
5268760666,0.00250244,0.00653076,-1.00637817,0.305176,0.122070,-0.061035
5273717458,0.00265503,0.00680542,-1.00625610,0.305176,0.183105,0.000000
5278742333,0.00227356,0.00706482,-1.00674438,0.366211,-0.061035,0.000000
5283742208,0.00192261,0.00688171,-1.00723267,0.366211,0.000000,-0.122070
5288774833,0.00186157,0.00640869,-1.00689697,0.244141,0.122070,-0.061035
5293737500,0.00198364,0.00599670,-1.00582886,0.244141,0.061035,0.000000
5298766125,0.00212097,0.00596619,-1.00531006,0.427246,0.122070,0.000000
5303740666,0.00209045,0.00648499,-1.00588989,0.366211,0.061035,-0.061035
5308758291,0.00184631,0.00685120,-1.00662231,0.427246,0.000000,-0.061035
5313763375,0.00170898,0.00665283,-1.00648499,0.244141,0.122070,-0.244141
5318750500,0.00196838,0.00653076,-1.00585938,0.244141,0.000000,-0.122070
5323717375,0.00205994,0.00689697,-1.00602722,0.183105,-0.061035,-0.183105
5328742250,0.00157166,0.00708008,-1.00706482,0.366211,0.000000,-0.061035
5333753000,0.00131226,0.00668335,-1.00759888,0.305176,0.122070,-0.122070
5338769125,0.00195312,0.00636292,-1.00715637,0.366211,0.000000,-0.061035
5343738208,0.00238037,0.00651550,-1.00651550,0.427246,0.122070,0.000000
5348768916,0.00186157,0.00685120,-1.00643921,0.244141,0.061035,0.061035
5353723416,0.00138855,0.00691223,-1.00712585,0.366211,0.122070,-0.122070
5358963041,0.00177002,0.00659180,-1.00781250,0.488281,-0.061035,-0.061035
5363738333,0.00222778,0.00640869,-1.00782776,0.305176,0.122070,-0.183105
5368807625,0.00216675,0.00663757,-1.00765991,0.488281,0.000000,-0.183105
5373731958,0.00193787,0.00688171,-1.00782776,0.305176,0.183105,-0.061035
5378741583,0.00169373,0.00675964,-1.00753784,0.183105,0.061035,-0.061035
5383724083,0.00161743,0.00653076,-1.00657654,0.427246,0.061035,0.000000
5388768416,0.00190735,0.00674438,-1.00611877,0.427246,-0.122070,-0.061035
5393755083,0.00181580,0.00711060,-1.00633240,0.366211,0.000000,-0.061035
5398787500,0.00090027,0.00706482,-1.00625610,0.366211,0.061035,0.000000
5403738625,0.00035095,0.00688171,-1.00578308,0.244141,0.122070,-0.061035
5408764333,0.00080872,0.00697327,-1.00579834,0.244141,0.061035,-0.122070
5413746333,0.00175476,0.00715637,-1.00657654,0.366211,0.061035,-0.122070
5418803791,0.00222778,0.00712585,-1.00762939,0.427246,0.183105,0.000000
5423753875,0.00183105,0.00698853,-1.00823975,0.366211,0.061035,-0.061035
5428755083,0.00126648,0.00708008,-1.00781250,0.183105,0.000000,-0.061035
5433756291,0.00138855,0.00746155,-1.00659180,0.305176,0.183105,-0.122070
5438748083,0.00180054,0.00750732,-1.00563049,0.366211,0.122070,-0.061035
5443779541,0.00184631,0.00698853,-1.00572205,0.305176,0.122070,-0.122070
5448788791,0.00170898,0.00663757,-1.00637817,0.488281,0.122070,-0.061035
5453740750,0.00178528,0.00677490,-1.00645447,0.244141,0.061035,-0.122070
5458800666,0.00189209,0.00695801,-1.00616455,0.244141,-0.061035,-0.122070
5463737666,0.00181580,0.00695801,-1.00619507,0.305176,0.122070,-0.244141
5468776041,0.00189209,0.00672913,-1.00651550,0.305176,0.122070,-0.122070
5473772083,0.00224304,0.00659180,-1.00621033,0.244141,0.122070,0.000000
5478764583,0.00259399,0.00668335,-1.00550842,0.305176,0.122070,-0.061035
5483759250,0.00273132,0.00665283,-1.00575256,0.366211,0.122070,-0.061035
5488769083,0.00257874,0.00662231,-1.00657654,0.427246,0.061035,-0.183105
5493781791,0.00247192,0.00691223,-1.00672913,0.244141,0.000000,-0.061035
5498788666,0.00262451,0.00695801,-1.00617981,0.305176,0.183105,-0.061035
5503754333,0.00253296,0.00657654,-1.00585938,0.366211,0.061035,-0.122070
5508760000,0.00210571,0.00637817,-1.00633240,0.366211,0.122070,-0.122070
5513766333,0.00196838,0.00656128,-1.00672913,0.305176,0.000000,-0.061035
5518783916,0.00209045,0.00662231,-1.00634766,0.244141,0.061035,-0.061035
5523754833,0.00189209,0.00643921,-1.00596619,0.427246,0.061035,-0.061035
5528753083,0.00158691,0.00630188,-1.00643921,0.305176,0.061035,-0.122070
5533751666,0.00163269,0.00624084,-1.00706482,0.244141,0.061035,-0.183105
5538778500,0.00175476,0.00607300,-1.00708008,0.305176,0.061035,0.000000
5543786666,0.00173950,0.00596619,-1.00662231,0.366211,0.122070,-0.122070
5548786333,0.00205994,0.00616455,-1.00624084,0.427246,0.244141,0.000000
5553796875,0.00251770,0.00662231,-1.00637817,0.366211,0.061035,-0.122070
5558782791,0.00248718,0.00698853,-1.00654602,0.244141,0.061035,-0.061035
5563768166,0.00204468,0.00683594,-1.00639343,0.366211,0.061035,0.000000
5568750500,0.00175476,0.00672913,-1.00595093,0.427246,0.183105,0.000000
5573831916,0.00177002,0.00697327,-1.00559998,0.427246,-0.061035,-0.183105
5578780125,0.00163269,0.00701904,-1.00584412,0.366211,0.122070,-0.061035
5583779208,0.00122070,0.00688171,-1.00630188,0.488281,0.061035,0.000000
5588775958,0.00100708,0.00679016,-1.00645447,0.427246,0.183105,-0.183105
5593761458,0.00123596,0.00680542,-1.00621033,0.488281,0.061035,-0.061035
5598761166,0.00160217,0.00688171,-1.00564575,0.488281,0.122070,-0.061035
5603783208,0.00183105,0.00708008,-1.00547791,0.427246,0.061035,-0.183105
5608775416,0.00163269,0.00721741,-1.00598145,0.366211,0.122070,-0.061035
5613788666,0.00131226,0.00718689,-1.00651550,0.183105,0.061035,-0.061035
5618807125,0.00169373,0.00735474,-1.00662231,0.183105,0.000000,0.000000
5623796958,0.00271606,0.00764465,-1.00674438,0.244141,0.122070,0.000000
5628766875,0.00312805,0.00750732,-1.00724792,0.427246,0.061035,-0.122070
5633776666,0.00250244,0.00692749,-1.00767517,0.488281,0.061035,-0.122070
5638764541,0.00187683,0.00642395,-1.00749207,0.427246,0.183105,0.000000
5643794291,0.00192261,0.00625610,-1.00685120,0.305176,0.061035,-0.061035
5648763375,0.00222778,0.00630188,-1.00636292,0.183105,0.061035,-0.183105
5653762875,0.00209045,0.00648499,-1.00625610,0.427246,0.000000,-0.122070
5658803291,0.00164795,0.00666809,-1.00633240,0.305176,0.000000,-0.061035
5663743625,0.00157166,0.00665283,-1.00642395,0.366211,0.061035,-0.122070
5668803708,0.00163269,0.00663757,-1.00672913,0.305176,0.000000,-0.122070
5673762166,0.00140381,0.00675964,-1.00717163,0.183105,0.061035,-0.183105
5678767166,0.00138855,0.00685120,-1.00729370,0.244141,0.061035,-0.122070
5683767333,0.00164795,0.00689697,-1.00738525,0.244141,-0.122070,-0.122070
5688807416,0.00167847,0.00708008,-1.00764465,0.305176,0.061035,-0.183105
5693782083,0.00173950,0.00712585,-1.00765991,0.366211,0.000000,-0.061035
5698792083,0.00202942,0.00682068,-1.00732422,0.305176,0.061035,-0.061035
5703754208,0.00207520,0.00660706,-1.00677490,0.366211,0.061035,-0.122070
5708817916,0.00178528,0.00650024,-1.00627136,0.366211,0.000000,-0.061035
5713789416,0.00134277,0.00621033,-1.00645447,0.366211,0.061035,-0.122070
5718809708,0.00117493,0.00608826,-1.00724792,0.427246,0.061035,-0.244141
5723805416,0.00144958,0.00657654,-1.00767517,0.366211,0.061035,-0.122070
5728818041,0.00202942,0.00720215,-1.00730896,0.305176,0.000000,-0.183105
5733773750,0.00262451,0.00743103,-1.00686646,0.366211,0.000000,0.061035
5738792875,0.00285339,0.00727844,-1.00682068,0.366211,0.061035,-0.122070
5743758000,0.00256348,0.00697327,-1.00721741,0.427246,0.000000,-0.122070
5748806416,0.00210571,0.00682068,-1.00749207,0.366211,0.000000,0.000000
5753779416,0.00187683,0.00695801,-1.00703430,0.427246,0.061035,-0.183105
5758793750,0.00189209,0.00695801,-1.00642395,0.244141,0.000000,-0.122070
5763773666,0.00190735,0.00663757,-1.00650024,0.305176,0.000000,-0.061035
5768814416,0.00169373,0.00659180,-1.00692749,0.244141,-0.061035,-0.122070
5773776708,0.00138855,0.00700378,-1.00669861,0.183105,0.061035,0.000000
5778777166,0.00137329,0.00720215,-1.00617981,0.366211,0.122070,0.000000
5783781083,0.00163269,0.00717163,-1.00628662,0.305176,0.061035,-0.122070
5788795916,0.00193787,0.00672913,-1.00672913,0.488281,0.122070,-0.122070
5793746125,0.00213623,0.00559998,-1.00675964,0.305176,0.183105,-0.122070
5798794375,0.00186157,0.00491333,-1.00653076,0.305176,0.061035,-0.122070
5803778208,0.00094604,0.00561523,-1.00656128,0.366211,0.000000,0.061035
5808815000,0.00016785,0.00657654,-1.00665283,0.366211,-0.061035,0.061035
5813765291,0.00048828,0.00654602,-1.00631714,0.427246,0.061035,-0.061035
5818781500,0.00144958,0.00608826,-1.00590515,0.366211,0.000000,-0.244141
5823761625,0.00210571,0.00630188,-1.00590515,0.366211,0.122070,0.000000
5828772208,0.00234985,0.00694275,-1.00646973,0.244141,0.061035,0.000000
5833812041,0.00225830,0.00711060,-1.00714111,0.427246,0.000000,0.000000
5838777916,0.00196838,0.00672913,-1.00724792,0.244141,0.122070,-0.061035
5843795375,0.00154114,0.00637817,-1.00666809,0.244141,0.122070,-0.183105
5848784500,0.00105286,0.00648499,-1.00599670,0.244141,0.061035,-0.183105
5853888541,0.00083923,0.00697327,-1.00578308,0.244141,0.000000,-0.122070
5858796291,0.00111389,0.00750732,-1.00602722,0.427246,0.000000,-0.183105
5863800166,0.00143433,0.00772095,-1.00662231,0.549316,0.122070,0.000000
5868805541,0.00152588,0.00740051,-1.00706482,0.366211,0.061035,-0.122070
5873820291,0.00146484,0.00695801,-1.00724792,0.244141,0.061035,-0.122070
5878810125,0.00138855,0.00694275,-1.00732422,0.244141,0.061035,-0.183105
5883866333,0.00143433,0.00711060,-1.00732422,0.305176,0.061035,-0.183105
5888825041,0.00180054,0.00703430,-1.00700378,0.305176,0.061035,-0.061035
5893783041,0.00256348,0.00692749,-1.00628662,0.366211,0.061035,0.000000
5898791625,0.00276184,0.00695801,-1.00578308,0.305176,0.000000,0.000000
5903780250,0.00187683,0.00675964,-1.00592041,0.305176,-0.122070,-0.183105
5908825750,0.00108337,0.00628662,-1.00648499,0.305176,-0.061035,-0.122070
5913882500,0.00112915,0.00631714,-1.00675964,0.305176,0.061035,-0.122070
5918802375,0.00155640,0.00703430,-1.00671387,0.305176,0.122070,-0.061035
5923783875,0.00199890,0.00727844,-1.00706482,0.427246,0.122070,0.000000
5928832333,0.00215149,0.00657654,-1.00749207,0.244141,0.061035,-0.061035
5933775250,0.00193787,0.00604248,-1.00723267,0.305176,0.183105,-0.122070
5938821416,0.00155640,0.00639343,-1.00642395,0.427246,0.000000,-0.183105
5943819708,0.00140381,0.00704956,-1.00595093,0.305176,0.122070,-0.061035
5948880875,0.00155640,0.00724792,-1.00631714,0.488281,0.183105,-0.061035
5953844291,0.00160217,0.00700378,-1.00671387,0.366211,0.061035,-0.244141
5958860416,0.00140381,0.00679016,-1.00631714,0.366211,0.061035,-0.122070
5963813541,0.00111389,0.00679016,-1.00561523,0.427246,0.000000,0.000000
5968790583,0.00108337,0.00701904,-1.00558472,0.244141,0.061035,-0.061035
5973883208,0.00131226,0.00741577,-1.00622559,0.366211,0.000000,-0.122070
5978811333,0.00148010,0.00726318,-1.00656128,0.427246,0.122070,-0.183105
5983869375,0.00148010,0.00642395,-1.00651550,0.305176,-0.122070,0.000000
5988808875,0.00137329,0.00590515,-1.00675964,0.305176,0.000000,0.000000
5993826666,0.00160217,0.00628662,-1.00698853,0.366211,0.122070,-0.061035
5998828916,0.00221252,0.00704956,-1.00675964,0.305176,0.183105,-0.061035
6003837625,0.00230408,0.00741577,-1.00669861,0.305176,0.122070,-0.122070
6008838791,0.00178528,0.00717163,-1.00654602,0.366211,0.061035,-0.061035
6013794916,0.00138855,0.00685120,-1.00607300,0.427246,0.061035,0.061035
6018810458,0.00144958,0.00689697,-1.00616455,0.427246,0.061035,0.061035
6023828625,0.00177002,0.00717163,-1.00683594,0.366211,0.061035,-0.061035
6028820166,0.00192261,0.00715637,-1.00704956,0.305176,0.000000,-0.183105
6033840500,0.00164795,0.00669861,-1.00614929,0.305176,-0.061035,-0.122070
6038861083,0.00132751,0.00631714,-1.00537109,0.366211,0.000000,-0.122070
6043805333,0.00164795,0.00637817,-1.00605774,0.244141,0.000000,0.000000
6048838791,0.00231934,0.00692749,-1.00733948,0.305176,0.122070,0.000000
6053884000,0.00239563,0.00755310,-1.00759888,0.427246,-0.061035,-0.183105
6058842625,0.00183105,0.00758362,-1.00671387,0.427246,0.061035,-0.122070
6063784375,0.00141907,0.00703430,-1.00601196,0.366211,0.122070,0.000000
6068796750,0.00152588,0.00651550,-1.00607300,0.244141,0.122070,0.000000
6073853666,0.00193787,0.00645447,-1.00636292,0.427246,0.061035,0.000000
6078819791,0.00224304,0.00651550,-1.00662231,0.183105,0.000000,-0.183105
6083825083,0.00233459,0.00666809,-1.00711060,0.183105,0.061035,-0.061035
6088836208,0.00205994,0.00715637,-1.00737000,0.488281,0.122070,-0.061035
6093839166,0.00172424,0.00770569,-1.00708008,0.366211,0.122070,-0.061035
6098810458,0.00180054,0.00784302,-1.00656128,0.244141,0.061035,-0.183105
6103844916,0.00221252,0.00749207,-1.00614929,0.244141,0.000000,-0.183105
6108820125,0.00263977,0.00698853,-1.00607300,0.488281,0.183105,-0.122070
6113798416,0.00260925,0.00674438,-1.00631714,0.427246,0.061035,0.061035
6118804791,0.00221252,0.00669861,-1.00669861,0.427246,0.061035,-0.061035
6123814250,0.00199890,0.00643921,-1.00703430,0.244141,-0.061035,-0.122070
6128802625,0.00201416,0.00584412,-1.00672913,0.366211,0.061035,-0.122070
6133864291,0.00184631,0.00549316,-1.00573730,0.366211,0.122070,-0.061035
6138898791,0.00175476,0.00564575,-1.00515747,0.366211,0.000000,0.061035
6143933083,0.00189209,0.00605774,-1.00549316,0.305176,0.000000,-0.061035
6148840875,0.00199890,0.00663757,-1.00627136,0.305176,0.122070,0.000000
6153882750,0.00180054,0.00712585,-1.00674438,0.244141,0.061035,-0.061035
6158830083,0.00140381,0.00714111,-1.00663757,0.244141,-0.061035,-0.122070
6163822291,0.00126648,0.00697327,-1.00636292,0.366211,-0.061035,0.061035
6168821666,0.00151062,0.00698853,-1.00645447,0.305176,0.061035,-0.061035
6173853333,0.00166321,0.00685120,-1.00688171,0.244141,-0.061035,-0.122070
6178883333,0.00184631,0.00677490,-1.00682068,0.366211,0.183105,0.061035
6183845625,0.00205994,0.00708008,-1.00640869,0.305176,0.000000,0.000000
6188859750,0.00184631,0.00737000,-1.00657654,0.244141,0.061035,0.000000
6193971500,0.00146484,0.00740051,-1.00695801,0.183105,0.061035,-0.183105
6198814291,0.00117493,0.00732422,-1.00666809,0.366211,0.061035,-0.122070
6203919791,0.00097656,0.00729370,-1.00621033,0.427246,0.061035,-0.061035
6208832333,0.00125122,0.00735474,-1.00645447,0.244141,0.000000,-0.183105
6213819458,0.00210571,0.00753784,-1.00721741,0.305176,0.000000,-0.122070
6218853166,0.00260925,0.00749207,-1.00746155,0.427246,0.183105,-0.122070
6223833125,0.00244141,0.00703430,-1.00665283,0.427246,0.061035,-0.061035
6228806666,0.00231934,0.00654602,-1.00584412,0.366211,-0.061035,-0.061035
6233836791,0.00254822,0.00637817,-1.00616455,0.244141,0.061035,-0.122070
6238841833,0.00271606,0.00627136,-1.00712585,0.305176,-0.122070,-0.122070
6243827583,0.00242615,0.00584412,-1.00756836,0.244141,0.061035,-0.122070
6248854666,0.00221252,0.00561523,-1.00727844,0.305176,0.061035,-0.122070
6253807750,0.00248718,0.00611877,-1.00698853,0.366211,0.122070,0.000000
6258845666,0.00276184,0.00668335,-1.00686646,0.488281,0.183105,-0.061035
6263814166,0.00253296,0.00650024,-1.00662231,0.488281,0.000000,-0.061035
6268857208,0.00218201,0.00585938,-1.00637817,0.366211,0.122070,-0.122070
6273832000,0.00204468,0.00576782,-1.00625610,0.183105,0.000000,-0.305176
6278830916,0.00198364,0.00633240,-1.00617981,0.366211,0.061035,-0.183105
6283829291,0.00192261,0.00701904,-1.00614929,0.366211,0.061035,-0.122070
6288844125,0.00178528,0.00721741,-1.00631714,0.488281,0.122070,0.000000
6293819083,0.00164795,0.00724792,-1.00654602,0.305176,0.183105,0.000000
6298881333,0.00173950,0.00759888,-1.00650024,0.244141,0.061035,0.061035
6303825916,0.00178528,0.00782776,-1.00619507,0.305176,0.061035,-0.061035
6308843958,0.00160217,0.00746155,-1.00604248,0.366211,0.122070,-0.061035
6313833375,0.00144958,0.00692749,-1.00642395,0.366211,0.122070,-0.061035
6318842750,0.00146484,0.00666809,-1.00686646,0.244141,0.122070,-0.183105
6323818000,0.00154114,0.00653076,-1.00695801,0.244141,0.122070,-0.122070
6328825208,0.00167847,0.00660706,-1.00682068,0.244141,0.061035,-0.061035
6333847833,0.00183105,0.00691223,-1.00656128,0.366211,0.122070,-0.061035
6338872708,0.00172424,0.00700378,-1.00633240,0.427246,0.061035,0.000000
6343855416,0.00163269,0.00697327,-1.00608826,0.366211,0.000000,-0.061035
6348853500,0.00180054,0.00700378,-1.00587463,0.366211,0.244141,0.000000
6353821333,0.00195312,0.00671387,-1.00564575,0.305176,0.000000,-0.061035
6358870416,0.00198364,0.00604248,-1.00550842,0.244141,0.122070,-0.061035
6363839916,0.00195312,0.00563049,-1.00579834,0.305176,0.122070,0.000000
6368856041,0.00195312,0.00590515,-1.00660706,0.427246,0.061035,-0.122070
6373870583,0.00196838,0.00657654,-1.00773621,0.305176,-0.061035,-0.122070
6378872500,0.00172424,0.00714111,-1.00836182,0.366211,0.122070,0.000000
6383840458,0.00138855,0.00711060,-1.00785828,0.488281,0.183105,0.122070
6388877291,0.00134277,0.00657654,-1.00671387,0.366211,0.061035,-0.061035
6393828500,0.00154114,0.00622559,-1.00576782,0.244141,0.061035,-0.061035
6398870583,0.00201416,0.00636292,-1.00550842,0.366211,0.000000,0.061035
6403815458,0.00248718,0.00671387,-1.00573730,0.305176,0.061035,0.000000
6408860791,0.00277710,0.00688171,-1.00601196,0.427246,0.061035,-0.183105
6413855416,0.00277710,0.00680542,-1.00630188,0.427246,0.061035,0.000000
6418848750,0.00248718,0.00656128,-1.00674438,0.305176,0.000000,0.000000
6423857000,0.00183105,0.00633240,-1.00721741,0.366211,0.122070,-0.122070
6428855458,0.00115967,0.00628662,-1.00746155,0.488281,0.122070,0.000000
6433856833,0.00103760,0.00624084,-1.00741577,0.183105,0.061035,-0.183105
6438838166,0.00119019,0.00619507,-1.00701904,0.305176,0.000000,-0.122070
6443880500,0.00141907,0.00634766,-1.00643921,0.305176,0.061035,-0.122070
6448865875,0.00170898,0.00645447,-1.00614929,0.305176,0.122070,-0.122070
6453892791,0.00170898,0.00666809,-1.00590515,0.305176,0.061035,-0.061035
6458860833,0.00152588,0.00717163,-1.00585938,0.305176,0.122070,-0.061035
6463844083,0.00155640,0.00733948,-1.00663757,0.366211,0.000000,-0.122070
6468864916,0.00175476,0.00669861,-1.00759888,0.305176,0.061035,0.000000
6473839083,0.00167847,0.00578308,-1.00775146,0.244141,0.000000,0.000000
6478859416,0.00164795,0.00564575,-1.00744629,0.305176,0.061035,0.000000
6483841041,0.00201416,0.00639343,-1.00724792,0.366211,0.000000,0.000000
6488858791,0.00221252,0.00706482,-1.00691223,0.427246,0.183105,-0.061035
6493826291,0.00198364,0.00691223,-1.00622559,0.305176,0.061035,-0.122070
6498874125,0.00187683,0.00634766,-1.00563049,0.305176,0.122070,-0.061035
6503832041,0.00207520,0.00592041,-1.00553894,0.366211,0.000000,0.000000
6508889666,0.00196838,0.00595093,-1.00610352,0.122070,0.000000,-0.061035
6513843458,0.00143433,0.00639343,-1.00689697,0.305176,0.183105,-0.061035
6518879916,0.00134277,0.00674438,-1.00717163,0.244141,0.122070,-0.122070
6523845833,0.00186157,0.00666809,-1.00665283,0.305176,0.122070,-0.061035
6528873083,0.00238037,0.00666809,-1.00599670,0.183105,0.000000,-0.122070
6533855666,0.00257874,0.00691223,-1.00595093,0.122070,0.000000,-0.122070
6538883125,0.00267029,0.00685120,-1.00631714,0.122070,-0.061035,-0.122070
6543874083,0.00242615,0.00669861,-1.00677490,0.488281,0.183105,-0.061035
6548903583,0.00170898,0.00695801,-1.00718689,0.366211,0.061035,-0.122070
6553858875,0.00132751,0.00729370,-1.00733948,0.305176,0.000000,-0.122070
6558931791,0.00193787,0.00732422,-1.00732422,0.427246,0.061035,-0.061035
6563866875,0.00262451,0.00712585,-1.00718689,0.183105,0.000000,-0.122070
6568857083,0.00238037,0.00709534,-1.00683594,0.427246,0.122070,-0.244141
6573837625,0.00149536,0.00724792,-1.00656128,0.305176,0.000000,-0.183105
6578842958,0.00100708,0.00733948,-1.00650024,0.427246,0.122070,-0.061035
6583860333,0.00161743,0.00740051,-1.00640869,0.244141,0.122070,-0.122070
6588866625,0.00250244,0.00732422,-1.00653076,0.427246,0.000000,-0.122070
6593847083,0.00256348,0.00686646,-1.00659180,0.427246,0.061035,-0.183105
6598856666,0.00224304,0.00639343,-1.00625610,0.427246,0.061035,-0.183105
6603847375,0.00224304,0.00682068,-1.00588989,0.244141,0.000000,-0.122070
6608871791,0.00241089,0.00782776,-1.00613403,0.366211,0.061035,-0.122070
6613874416,0.00244141,0.00827026,-1.00668335,0.183105,0.244141,0.061035
6618874083,0.00234985,0.00793457,-1.00660706,0.305176,0.061035,-0.122070
6623855166,0.00202942,0.00727844,-1.00636292,0.488281,0.000000,-0.061035
6628863291,0.00132751,0.00654602,-1.00665283,0.427246,0.122070,-0.061035
6633838500,0.00102234,0.00588989,-1.00724792,0.305176,0.183105,0.000000
6638860375,0.00163269,0.00549316,-1.00755310,0.244141,0.061035,-0.061035
6643856291,0.00250244,0.00555420,-1.00718689,0.244141,0.061035,-0.122070
6648863208,0.00280762,0.00579834,-1.00657654,0.427246,0.061035,-0.183105
6653864791,0.00257874,0.00592041,-1.00628662,0.366211,0.000000,-0.122070
6658883625,0.00219727,0.00610352,-1.00645447,0.183105,0.061035,0.000000
6663886291,0.00173950,0.00659180,-1.00686646,0.305176,0.061035,-0.061035
6668891291,0.00143433,0.00726318,-1.00703430,0.244141,0.183105,-0.183105
6673904375,0.00140381,0.00726318,-1.00671387,0.427246,0.122070,-0.122070
6678869583,0.00163269,0.00631714,-1.00622559,0.427246,0.000000,0.000000
6683879416,0.00212097,0.00552368,-1.00595093,0.366211,0.122070,-0.061035
6688900000,0.00242615,0.00576782,-1.00639343,0.427246,0.000000,-0.061035
6693862375,0.00228882,0.00669861,-1.00721741,0.366211,0.000000,-0.183105
6698896875,0.00199890,0.00726318,-1.00740051,0.366211,0.061035,-0.122070
6703840708,0.00209045,0.00698853,-1.00698853,0.305176,0.061035,-0.061035
6708874750,0.00216675,0.00645447,-1.00654602,0.183105,0.122070,-0.122070
6713872458,0.00189209,0.00633240,-1.00605774,0.427246,0.122070,-0.061035
6718899666,0.00134277,0.00666809,-1.00561523,0.183105,0.000000,-0.122070
6723860625,0.00096130,0.00712585,-1.00563049,0.366211,0.061035,0.000000
6728893208,0.00088501,0.00749207,-1.00613403,0.244141,0.122070,-0.122070
6733867291,0.00094604,0.00775146,-1.00697327,0.488281,0.061035,-0.122070
6738890750,0.00097656,0.00782776,-1.00759888,0.244141,0.061035,-0.061035
6743902000,0.00103760,0.00765991,-1.00755310,0.488281,0.122070,-0.061035
6748897333,0.00137329,0.00727844,-1.00692749,0.366211,-0.122070,-0.122070
6753859500,0.00183105,0.00706482,-1.00617981,0.366211,0.000000,-0.122070
6758870416,0.00207520,0.00732422,-1.00593567,0.427246,0.122070,0.000000
6763867625,0.00227356,0.00753784,-1.00619507,0.427246,0.061035,-0.061035
6768869750,0.00247192,0.00726318,-1.00660706,0.305176,0.122070,-0.122070
6773881625,0.00241089,0.00703430,-1.00700378,0.488281,0.122070,-0.122070
6778887708,0.00204468,0.00715637,-1.00700378,0.305176,0.000000,0.000000
6783857500,0.00169373,0.00718689,-1.00689697,0.305176,0.122070,-0.061035
6788885833,0.00190735,0.00695801,-1.00723267,0.244141,0.061035,-0.061035
6793851458,0.00256348,0.00669861,-1.00740051,0.244141,0.122070,0.000000
6798880541,0.00294495,0.00645447,-1.00711060,0.427246,0.122070,-0.244141
6803861791,0.00277710,0.00631714,-1.00674438,0.305176,0.061035,0.061035
6808886208,0.00221252,0.00631714,-1.00646973,0.244141,0.061035,-0.122070
6813909500,0.00166321,0.00653076,-1.00639343,0.366211,0.000000,0.000000
6818941916,0.00154114,0.00697327,-1.00646973,0.305176,0.122070,-0.183105
6823880208,0.00160217,0.00718689,-1.00633240,0.366211,0.061035,-0.122070
6828900083,0.00183105,0.00700378,-1.00625610,0.122070,-0.061035,-0.061035
6833870708,0.00193787,0.00680542,-1.00691223,0.366211,0.061035,-0.061035
6838891541,0.00170898,0.00677490,-1.00773621,0.305176,0.061035,-0.183105
6843878083,0.00154114,0.00686646,-1.00735474,0.244141,-0.061035,-0.244141
6848923791,0.00172424,0.00712585,-1.00588989,0.305176,-0.061035,-0.122070
6853885500,0.00193787,0.00743103,-1.00509644,0.183105,0.061035,0.061035
6858899708,0.00199890,0.00738525,-1.00550842,0.183105,0.061035,-0.122070
6863887333,0.00195312,0.00700378,-1.00621033,0.366211,0.000000,-0.183105
6868899291,0.00202942,0.00675964,-1.00648499,0.366211,0.122070,-0.122070
6873876166,0.00225830,0.00665283,-1.00646973,0.488281,0.061035,-0.061035
6878908416,0.00244141,0.00663757,-1.00656128,0.305176,0.061035,-0.122070
6883903000,0.00248718,0.00669861,-1.00677490,0.366211,0.061035,-0.061035
6888895958,0.00253296,0.00657654,-1.00691223,0.305176,0.122070,-0.183105
6893882083,0.00247192,0.00646973,-1.00714111,0.488281,0.122070,-0.122070
6898911583,0.00205994,0.00662231,-1.00729370,0.305176,0.122070,0.061035
6903867791,0.00146484,0.00682068,-1.00692749,0.305176,0.061035,-0.061035
6908894791,0.00109863,0.00688171,-1.00657654,0.305176,0.122070,-0.122070
6913877458,0.00119019,0.00697327,-1.00671387,0.427246,-0.061035,-0.061035
6918904291,0.00160217,0.00711060,-1.00711060,0.427246,0.183105,0.000000
6923873833,0.00186157,0.00701904,-1.00733948,0.427246,0.061035,0.000000
6928873625,0.00187683,0.00683594,-1.00697327,0.305176,0.061035,-0.122070
6933892291,0.00207520,0.00666809,-1.00628662,0.244141,0.061035,-0.122070
6938891500,0.00212097,0.00628662,-1.00621033,0.122070,0.122070,-0.061035
6943886916,0.00160217,0.00598145,-1.00643921,0.305176,0.061035,-0.183105
6948902791,0.00115967,0.00607300,-1.00639343,0.305176,0.061035,0.000000
6953868750,0.00125122,0.00613403,-1.00630188,0.366211,0.061035,-0.061035
6958894875,0.00164795,0.00614929,-1.00631714,0.305176,0.000000,-0.183105
6963875708,0.00224304,0.00616455,-1.00636292,0.305176,0.061035,-0.183105
6968882875,0.00279236,0.00614929,-1.00636292,0.366211,0.122070,-0.183105
6974006708,0.00299072,0.00648499,-1.00642395,0.366211,-0.061035,-0.061035
6978897250,0.00282288,0.00715637,-1.00663757,0.366211,0.061035,-0.061035
6983885958,0.00247192,0.00749207,-1.00672913,0.244141,0.061035,-0.061035
6988883666,0.00209045,0.00704956,-1.00640869,0.427246,0.000000,0.061035
6993899291,0.00183105,0.00665283,-1.00613403,0.366211,0.061035,-0.061035
6998908458,0.00158691,0.00724792,-1.00621033,0.366211,0.122070,-0.061035
7003878791,0.00111389,0.00828552,-1.00637817,0.427246,0.122070,-0.122070
7008893458,0.00077820,0.00837708,-1.00650024,0.488281,0.122070,-0.061035
7013865166,0.00086975,0.00752258,-1.00669861,0.366211,0.061035,0.061035
7018892833,0.00131226,0.00715637,-1.00677490,0.305176,-0.061035,-0.183105
7023891333,0.00180054,0.00749207,-1.00651550,0.366211,0.061035,0.000000
7028897250,0.00201416,0.00758362,-1.00596619,0.305176,0.122070,0.000000
7033875250,0.00199890,0.00704956,-1.00553894,0.305176,-0.061035,-0.122070
7038891291,0.00190735,0.00662231,-1.00587463,0.427246,0.061035,-0.122070
7043886500,0.00157166,0.00683594,-1.00674438,0.305176,-0.061035,-0.061035
7048913625,0.00083923,0.00717163,-1.00703430,0.305176,0.061035,-0.122070
7053948666,0.00059509,0.00723267,-1.00633240,0.305176,0.183105,0.000000
7058888125,0.00146484,0.00685120,-1.00581360,0.244141,0.122070,-0.122070
7063887708,0.00251770,0.00619507,-1.00654602,0.305176,0.000000,-0.061035
7068893125,0.00263977,0.00584412,-1.00770569,0.244141,0.122070,-0.122070
7073852500,0.00236511,0.00613403,-1.00770569,0.183105,0.061035,0.000000
7078949208,0.00231934,0.00688171,-1.00653076,0.427246,0.000000,-0.122070
7083920375,0.00241089,0.00753784,-1.00550842,0.427246,0.061035,-0.122070
7088896333,0.00238037,0.00753784,-1.00552368,0.305176,0.061035,-0.183105
7093890166,0.00245667,0.00706482,-1.00628662,0.488281,0.122070,-0.061035
7098921708,0.00259399,0.00675964,-1.00701904,0.427246,-0.061035,-0.061035
7103899791,0.00238037,0.00669861,-1.00720215,0.427246,0.061035,-0.122070
7108924291,0.00210571,0.00654602,-1.00671387,0.427246,0.061035,-0.122070
7113895166,0.00219727,0.00637817,-1.00642395,0.183105,0.000000,-0.244141
7118906875,0.00241089,0.00643921,-1.00700378,0.244141,0.061035,-0.061035
7123886125,0.00238037,0.00665283,-1.00749207,0.305176,0.061035,-0.122070
7129090666,0.00218201,0.00665283,-1.00723267,0.488281,0.122070,0.000000
7133882583,0.00227356,0.00646973,-1.00669861,0.366211,0.061035,0.000000
7138896583,0.00248718,0.00590515,-1.00605774,0.427246,0.061035,-0.061035
7143933958,0.00218201,0.00543213,-1.00567627,0.366211,0.061035,-0.122070
7148916458,0.00167847,0.00576782,-1.00605774,0.244141,0.000000,-0.122070
7153915791,0.00175476,0.00651550,-1.00657654,0.427246,0.061035,-0.061035
7158905375,0.00222778,0.00691223,-1.00668335,0.244141,0.061035,-0.183105
7163922000,0.00224304,0.00691223,-1.00682068,0.305176,0.000000,-0.122070
7168909125,0.00151062,0.00669861,-1.00714111,0.366211,0.061035,0.000000
7173924583,0.00085449,0.00663757,-1.00723267,0.305176,0.061035,-0.122070
7178916458,0.00112915,0.00701904,-1.00695801,0.427246,0.183105,-0.183105
7183900416,0.00198364,0.00711060,-1.00646973,0.366211,0.000000,-0.061035
7188921500,0.00276184,0.00663757,-1.00610352,0.427246,0.061035,-0.183105
7193908583,0.00291443,0.00656128,-1.00637817,0.305176,0.000000,-0.122070
7198911541,0.00219727,0.00682068,-1.00701904,0.366211,0.061035,-0.122070
7203887166,0.00149536,0.00653076,-1.00723267,0.366211,0.122070,-0.061035
7208919500,0.00195312,0.00599670,-1.00688171,0.305176,0.061035,-0.122070
7213899416,0.00282288,0.00596619,-1.00633240,0.244141,0.122070,-0.061035
7218937708,0.00271606,0.00654602,-1.00628662,0.183105,0.061035,-0.183105
7223891041,0.00175476,0.00733948,-1.00675964,0.244141,0.061035,-0.061035
7228918750,0.00105286,0.00759888,-1.00683594,0.244141,0.061035,-0.122070
7233965583,0.00128174,0.00720215,-1.00651550,0.305176,0.061035,-0.122070
7238916500,0.00183105,0.00680542,-1.00663757,0.244141,0.122070,-0.122070
7243901333,0.00202942,0.00686646,-1.00697327,0.244141,0.061035,-0.183105
7248926958,0.00180054,0.00712585,-1.00718689,0.244141,-0.061035,-0.183105
7253930500,0.00151062,0.00711060,-1.00747681,0.366211,0.000000,-0.183105
7258925625,0.00154114,0.00701904,-1.00746155,0.366211,-0.061035,-0.122070
7263887875,0.00178528,0.00706482,-1.00688171,0.183105,0.000000,0.061035
7268911625,0.00178528,0.00694275,-1.00639343,0.366211,0.122070,-0.061035
7273898000,0.00152588,0.00657654,-1.00674438,0.244141,0.000000,-0.061035
7278926166,0.00115967,0.00636292,-1.00776672,0.305176,0.122070,-0.122070
7283921208,0.00085449,0.00654602,-1.00820923,0.244141,0.061035,0.000000
7288942625,0.00117493,0.00691223,-1.00733948,0.244141,-0.061035,-0.122070
7293916375,0.00199890,0.00733948,-1.00607300,0.305176,0.061035,-0.183105
7298930666,0.00247192,0.00737000,-1.00567627,0.305176,-0.122070,-0.244141
7303916916,0.00222778,0.00720215,-1.00611877,0.427246,0.061035,-0.061035
7308945125,0.00187683,0.00758362,-1.00672913,0.122070,0.061035,-0.061035
7313923250,0.00198364,0.00793457,-1.00708008,0.244141,0.061035,-0.122070
7318931833,0.00215149,0.00732422,-1.00688171,0.305176,0.122070,-0.122070
7323912000,0.00205994,0.00660706,-1.00637817,0.305176,-0.061035,-0.122070
7328915625,0.00193787,0.00672913,-1.00619507,0.305176,0.061035,-0.061035
7333902916,0.00199890,0.00706482,-1.00636292,0.244141,0.122070,0.000000
7338974333,0.00222778,0.00718689,-1.00679016,0.427246,-0.061035,-0.061035
7343903333,0.00233459,0.00726318,-1.00721741,0.366211,0.061035,-0.061035
7348934916,0.00228882,0.00730896,-1.00723267,0.427246,0.061035,-0.122070
7353928375,0.00207520,0.00732422,-1.00718689,0.305176,0.061035,-0.061035
7358938416,0.00163269,0.00730896,-1.00747681,0.427246,0.122070,-0.061035
7363936416,0.00100708,0.00724792,-1.00762939,0.366211,0.000000,-0.183105
7368947250,0.00054932,0.00698853,-1.00746155,0.488281,0.061035,-0.122070
7373926791,0.00059509,0.00657654,-1.00720215,0.305176,0.000000,-0.305176
7378949416,0.00088501,0.00621033,-1.00680542,0.427246,0.061035,0.000000
7383925666,0.00111389,0.00595093,-1.00651550,0.244141,0.061035,0.000000
7388916875,0.00138855,0.00592041,-1.00639343,0.366211,0.061035,-0.061035
7393923625,0.00177002,0.00628662,-1.00631714,0.305176,0.000000,-0.122070
7398921750,0.00207520,0.00672913,-1.00669861,0.366211,0.061035,-0.183105
7403910291,0.00201416,0.00691223,-1.00704956,0.244141,-0.061035,-0.122070
7408922291,0.00155640,0.00698853,-1.00685120,0.244141,0.000000,-0.061035
7413928833,0.00112915,0.00701904,-1.00674438,0.305176,0.000000,-0.061035
7418918000,0.00128174,0.00712585,-1.00683594,0.366211,0.122070,-0.183105
7423922166,0.00177002,0.00737000,-1.00639343,0.427246,0.122070,0.000000
7428940708,0.00193787,0.00726318,-1.00572205,0.183105,0.000000,-0.183105
7433932708,0.00158691,0.00669861,-1.00592041,0.366211,0.183105,-0.061035
7438924958,0.00111389,0.00637817,-1.00677490,0.427246,0.183105,-0.122070
7443990958,0.00091553,0.00634766,-1.00711060,0.427246,0.061035,0.000000
7448948875,0.00108337,0.00640869,-1.00675964,0.366211,0.000000,-0.061035
7453922083,0.00152588,0.00674438,-1.00659180,0.305176,0.000000,-0.061035
7458951875,0.00173950,0.00724792,-1.00691223,0.305176,0.122070,-0.061035
7463932000,0.00167847,0.00747681,-1.00718689,0.366211,0.061035,-0.122070
7468952541,0.00177002,0.00723267,-1.00726318,0.305176,0.061035,0.000000
7473920625,0.00189209,0.00686646,-1.00704956,0.244141,-0.061035,-0.061035
7478954083,0.00166321,0.00674438,-1.00677490,0.305176,0.061035,-0.061035
7483941000,0.00099182,0.00679016,-1.00695801,0.427246,0.122070,-0.061035
7488946875,0.00053406,0.00691223,-1.00750732,0.183105,0.122070,-0.183105
7493924875,0.00082397,0.00692749,-1.00770569,0.305176,-0.061035,-0.122070
7498941625,0.00157166,0.00648499,-1.00727844,0.305176,0.122070,0.061035
7503939750,0.00199890,0.00605774,-1.00662231,0.366211,0.000000,0.000000
7508941000,0.00184631,0.00611877,-1.00614929,0.305176,0.000000,-0.061035
7513958333,0.00161743,0.00633240,-1.00588989,0.305176,0.061035,-0.183105
7518948208,0.00172424,0.00657654,-1.00575256,0.305176,0.183105,-0.122070
7523945375,0.00192261,0.00692749,-1.00569153,0.366211,0.000000,0.000000
7528957541,0.00199890,0.00689697,-1.00608826,0.305176,0.061035,0.061035
7533959250,0.00210571,0.00656128,-1.00640869,0.366211,0.183105,-0.061035
7538961458,0.00245667,0.00669861,-1.00621033,0.183105,0.122070,-0.122070
7543946541,0.00250244,0.00694275,-1.00621033,0.305176,0.122070,-0.122070
7548975541,0.00215149,0.00660706,-1.00642395,0.366211,0.000000,0.000000
7553951625,0.00189209,0.00605774,-1.00636292,0.366211,0.000000,0.061035
7558944291,0.00187683,0.00613403,-1.00608826,0.366211,0.000000,-0.122070
7563934708,0.00181580,0.00653076,-1.00590515,0.366211,0.122070,-0.122070
7568940166,0.00128174,0.00643921,-1.00604248,0.488281,-0.061035,-0.061035
7573923125,0.00061035,0.00605774,-1.00651550,0.305176,0.061035,-0.061035
7578932625,0.00100708,0.00617981,-1.00688171,0.183105,-0.061035,0.000000
7583913958,0.00231934,0.00685120,-1.00694275,0.366211,0.000000,-0.122070
7588975333,0.00277710,0.00723267,-1.00691223,0.183105,0.061035,-0.061035
7593947500,0.00210571,0.00683594,-1.00709534,0.305176,0.061035,-0.061035
7598968291,0.00166321,0.00614929,-1.00737000,0.366211,0.000000,-0.122070
7603917833,0.00187683,0.00598145,-1.00769043,0.305176,0.061035,0.061035
7608960458,0.00265503,0.00659180,-1.00794983,0.488281,0.244141,-0.122070
7613945166,0.00343323,0.00703430,-1.00755310,0.305176,0.122070,-0.244141
7618948000,0.00320435,0.00665283,-1.00645447,0.488281,0.183105,0.000000
7623944791,0.00216675,0.00607300,-1.00585938,0.427246,0.061035,0.000000
7628943291,0.00143433,0.00610352,-1.00607300,0.244141,0.061035,-0.183105
7633971000,0.00144958,0.00657654,-1.00636292,0.305176,0.122070,-0.061035
7638957500,0.00193787,0.00688171,-1.00628662,0.305176,0.000000,-0.183105
7643952750,0.00228882,0.00689697,-1.00605774,0.366211,0.000000,-0.244141
7648965250,0.00219727,0.00682068,-1.00610352,0.427246,0.061035,-0.183105
7653969625,0.00210571,0.00675964,-1.00637817,0.549316,0.000000,-0.122070
7658950500,0.00218201,0.00660706,-1.00668335,0.366211,0.061035,-0.061035
7663934250,0.00209045,0.00671387,-1.00674438,0.366211,0.183105,0.000000
7668972625,0.00183105,0.00708008,-1.00627136,0.427246,0.000000,-0.061035
7673938666,0.00187683,0.00720215,-1.00561523,0.244141,0.061035,-0.061035
7678945041,0.00212097,0.00698853,-1.00550842,0.427246,0.061035,-0.244141
7683944000,0.00184631,0.00688171,-1.00616455,0.305176,0.061035,0.000000
7688979791,0.00141907,0.00709534,-1.00680542,0.244141,0.000000,-0.061035
7693943000,0.00154114,0.00732422,-1.00679016,0.305176,0.000000,-0.061035
7698966458,0.00166321,0.00730896,-1.00646973,0.244141,0.061035,-0.061035
7703988083,0.00135803,0.00709534,-1.00636292,0.427246,0.061035,0.061035
7708973833,0.00125122,0.00718689,-1.00657654,0.305176,0.122070,-0.061035
7713946708,0.00155640,0.00787354,-1.00689697,0.305176,0.000000,-0.061035
7718960375,0.00230408,0.00811768,-1.00724792,0.305176,0.061035,0.000000
7723938291,0.00320435,0.00729370,-1.00735474,0.305176,0.000000,-0.122070
7728963875,0.00341797,0.00656128,-1.00692749,0.549316,0.061035,-0.061035
7733975041,0.00289917,0.00679016,-1.00657654,0.183105,0.000000,0.000000
7738958875,0.00241089,0.00726318,-1.00677490,0.305176,0.000000,-0.122070
7743937458,0.00218201,0.00741577,-1.00688171,0.305176,0.061035,-0.122070
7748975416,0.00201416,0.00729370,-1.00651550,0.427246,0.061035,-0.183105
7753954166,0.00190735,0.00712585,-1.00608826,0.183105,0.061035,-0.244141
7758986875,0.00178528,0.00715637,-1.00619507,0.427246,0.122070,-0.122070
7763970000,0.00166321,0.00723267,-1.00704956,0.366211,0.061035,-0.122070
7768959250,0.00189209,0.00708008,-1.00765991,0.305176,0.183105,-0.122070
7773940125,0.00228882,0.00685120,-1.00700378,0.244141,0.061035,-0.122070
7779007041,0.00227356,0.00677490,-1.00588989,0.244141,0.000000,-0.061035
7783946916,0.00189209,0.00677490,-1.00578308,0.305176,0.061035,-0.183105
7788978083,0.00170898,0.00675964,-1.00648499,0.427246,0.122070,0.000000
7793970125,0.00160217,0.00679016,-1.00695801,0.366211,0.061035,-0.061035
7798978625,0.00117493,0.00669861,-1.00694275,0.305176,0.000000,-0.061035
7803940583,0.00097656,0.00637817,-1.00663757,0.366211,0.061035,-0.122070
7809009291,0.00123596,0.00639343,-1.00624084,0.427246,0.061035,0.000000
7813959750,0.00167847,0.00698853,-1.00610352,0.244141,0.122070,-0.061035
7818951291,0.00218201,0.00733948,-1.00637817,0.183105,0.122070,-0.061035
7823965958,0.00225830,0.00709534,-1.00675964,0.244141,0.061035,-0.122070
7828997041,0.00155640,0.00682068,-1.00688171,0.366211,-0.061035,-0.061035
7833978250,0.00059509,0.00672913,-1.00662231,0.427246,0.000000,0.000000
7838980500,0.00019836,0.00671387,-1.00610352,0.366211,-0.061035,-0.183105
7843998833,0.00086975,0.00695801,-1.00605774,0.366211,0.000000,-0.122070
7848984250,0.00192261,0.00770569,-1.00672913,0.122070,0.000000,-0.244141
7853965750,0.00231934,0.00820923,-1.00743103,0.244141,0.000000,-0.183105
7859027833,0.00224304,0.00759888,-1.00781250,0.244141,-0.061035,-0.122070
7863961875,0.00222778,0.00659180,-1.00788879,0.244141,-0.061035,-0.061035
7869409958,0.00202942,0.00616455,-1.00782776,0.244141,0.183105,-0.061035
7874489750,0.00132751,0.00622559,-1.00761414,0.366211,-0.061035,-0.183105
7879123666,0.00071716,0.00631714,-1.00703430,0.244141,0.000000,-0.061035
7884094583,0.00090027,0.00619507,-1.00648499,0.305176,0.000000,-0.122070
7889083083,0.00164795,0.00624084,-1.00645447,0.366211,0.061035,-0.061035
7894180666,0.00221252,0.00656128,-1.00662231,0.366211,0.183105,-0.183105
7899057125,0.00221252,0.00660706,-1.00627136,0.305176,0.122070,-0.122070
7904006208,0.00195312,0.00640869,-1.00585938,0.366211,0.000000,-0.183105
7909072291,0.00169373,0.00624084,-1.00601196,0.305176,0.000000,0.061035
7913981541,0.00160217,0.00607300,-1.00630188,0.305176,0.122070,-0.061035
7918986666,0.00193787,0.00605774,-1.00646973,0.244141,0.061035,-0.061035
7923973500,0.00221252,0.00624084,-1.00657654,0.427246,0.061035,-0.061035
7928987000,0.00178528,0.00639343,-1.00663757,0.244141,0.061035,-0.061035
7933980208,0.00115967,0.00660706,-1.00685120,0.366211,-0.122070,-0.122070
7938994458,0.00115967,0.00677490,-1.00718689,0.488281,0.061035,0.000000
7943966875,0.00164795,0.00668335,-1.00730896,0.366211,0.000000,-0.122070
7948972333,0.00207520,0.00663757,-1.00697327,0.366211,0.061035,0.000000
7953962458,0.00228882,0.00680542,-1.00648499,0.244141,0.000000,-0.061035
7959321750,0.00216675,0.00709534,-1.00634766,0.366211,0.061035,-0.183105
7963969166,0.00178528,0.00717163,-1.00679016,0.244141,0.000000,-0.122070
7969001041,0.00146484,0.00697327,-1.00743103,0.366211,0.122070,-0.061035
7973952375,0.00141907,0.00688171,-1.00750732,0.366211,0.183105,0.000000
7978991833,0.00169373,0.00694275,-1.00712585,0.305176,0.061035,-0.061035
7983954458,0.00227356,0.00668335,-1.00718689,0.305176,0.122070,-0.122070
7988979500,0.00253296,0.00614929,-1.00752258,0.488281,0.122070,-0.122070
7994000958,0.00209045,0.00593567,-1.00737000,0.305176,0.000000,-0.122070
7999019250,0.00169373,0.00627136,-1.00683594,0.427246,0.061035,-0.061035
8003995166,0.00173950,0.00688171,-1.00665283,0.488281,0.061035,0.000000
8009025250,0.00160217,0.00726318,-1.00720215,0.366211,0.122070,0.000000
8013978666,0.00122070,0.00708008,-1.00761414,0.244141,0.000000,-0.061035
8018995416,0.00125122,0.00659180,-1.00703430,0.488281,0.183105,-0.061035
8023993625,0.00167847,0.00619507,-1.00607300,0.305176,0.122070,0.000000
8028991625,0.00180054,0.00614929,-1.00556946,0.305176,-0.061035,-0.061035
8034010500,0.00161743,0.00636292,-1.00569153,0.183105,0.061035,-0.122070
8038996166,0.00146484,0.00668335,-1.00624084,0.366211,-0.122070,-0.061035
8044004333,0.00134277,0.00686646,-1.00668335,0.366211,0.122070,-0.122070
8049017541,0.00131226,0.00700378,-1.00657654,0.305176,0.061035,-0.122070
8053967000,0.00125122,0.00714111,-1.00613403,0.366211,0.122070,-0.061035
8058973958,0.00123596,0.00692749,-1.00584412,0.366211,0.000000,-0.122070
8064037208,0.00137329,0.00657654,-1.00595093,0.305176,0.000000,0.061035
8069004291,0.00155640,0.00659180,-1.00650024,0.427246,0.122070,-0.122070
8073972875,0.00164795,0.00675964,-1.00711060,0.366211,0.061035,-0.061035
8078994125,0.00167847,0.00663757,-1.00717163,0.305176,0.122070,-0.122070
8084001750,0.00158691,0.00621033,-1.00674438,0.488281,0.061035,-0.122070
8088999833,0.00146484,0.00595093,-1.00636292,0.366211,-0.061035,-0.061035
8094026375,0.00143433,0.00610352,-1.00619507,0.183105,0.122070,-0.061035
8099006916,0.00143433,0.00653076,-1.00627136,0.305176,0.061035,-0.061035
8103972125,0.00138855,0.00698853,-1.00654602,0.366211,0.122070,0.000000
8108978000,0.00151062,0.00700378,-1.00659180,0.427246,0.122070,-0.183105
8113996166,0.00198364,0.00659180,-1.00628662,0.305176,0.061035,-0.122070
8119017291,0.00227356,0.00654602,-1.00604248,0.305176,0.000000,-0.244141
8123979750,0.00213623,0.00714111,-1.00636292,0.305176,0.000000,-0.122070
8129022041,0.00193787,0.00779724,-1.00691223,0.427246,0.000000,-0.122070
8134006958,0.00184631,0.00759888,-1.00689697,0.305176,0.000000,-0.061035
8138995166,0.00169373,0.00660706,-1.00668335,0.305176,0.183105,-0.122070
8144012791,0.00161743,0.00575256,-1.00672913,0.305176,0.122070,-0.061035
8149035958,0.00144958,0.00563049,-1.00674438,0.305176,0.061035,0.000000
8154012791,0.00131226,0.00608826,-1.00639343,0.305176,0.000000,-0.122070
8159029291,0.00157166,0.00662231,-1.00619507,0.305176,0.061035,-0.061035
8163987208,0.00192261,0.00679016,-1.00646973,0.244141,0.122070,0.000000
8169026500,0.00201416,0.00657654,-1.00654602,0.366211,0.122070,-0.061035
8174018750,0.00186157,0.00643921,-1.00613403,0.366211,0.061035,-0.183105
8179005125,0.00149536,0.00645447,-1.00588989,0.305176,0.061035,-0.061035
8183996208,0.00114441,0.00672913,-1.00621033,0.122070,0.122070,-0.183105
