timestamp_ns,accel_x,accel_y,accel_z,gyro_x,gyro_y,gyro_z
58774083,0.00111389,0.01171875,-1.00529480,0.183105,0.122070,0.000000
67031416,0.00367737,0.01127625,-1.00617981,0.122070,0.061035,-0.061035
69056375,0.00540161,0.01130676,-1.00607300,0.183105,0.000000,0.000000
73762916,0.00595093,0.01095581,-1.00508118,0.244141,0.000000,0.000000
79025625,0.00556946,0.00988770,-1.00508118,0.244141,0.061035,0.000000
83819708,0.00500488,0.00868225,-1.00529480,0.305176,0.000000,-0.122070
90923458,0.00485229,0.00801086,-1.00488281,0.305176,0.244141,-0.244141
95347458,0.00514221,0.00752258,-1.00573730,0.305176,0.000000,-0.244141
101231625,0.00537109,0.00680542,-1.00743103,0.244141,0.061035,0.000000
104357041,0.00526428,0.00596619,-1.00691223,0.244141,-0.122070,-0.061035
113901333,0.00483704,0.00537109,-1.00459290,0.183105,0.061035,-0.061035
113925250,0.00444031,0.00512695,-1.00396729,0.305176,0.122070,-0.061035
119396458,0.00416565,0.00489807,-1.00538635,0.366211,0.000000,-0.122070
124355500,0.00384521,0.00497437,-1.00651550,0.183105,0.000000,-0.183105
129614333,0.00328064,0.00517273,-1.00657654,0.305176,0.000000,-0.061035
133908208,0.00250244,0.00489807,-1.00640869,0.244141,-0.061035,-0.122070
139068166,0.00169373,0.00466919,-1.00671387,0.183105,-0.061035,-0.122070
143784833,0.00122070,0.00534058,-1.00642395,0.244141,0.061035,-0.061035
148789791,0.00125122,0.00665283,-1.00549316,0.000000,0.000000,-0.122070
153777125,0.00126648,0.00791931,-1.00582886,0.488281,0.122070,-0.061035
158777791,0.00090027,0.00871277,-1.00697327,0.122070,-0.061035,-0.122070
163761958,0.00036621,0.00891113,-1.00711060,0.366211,0.122070,-0.122070
168777916,-0.00001526,0.00883484,-1.00679016,0.305176,0.000000,-0.244141
173768333,-0.00012207,0.00877380,-1.00701904,0.366211,0.000000,-0.061035
178774708,0.00015259,0.00891113,-1.00730896,0.305176,0.122070,0.000000
183778791,0.00065613,0.00933838,-1.00677490,0.244141,0.000000,-0.061035
188787000,0.00120544,0.01022339,-1.00611877,0.305176,0.061035,-0.061035
193788666,0.00164795,0.01097107,-1.00608826,0.366211,0.061035,-0.061035
198807083,0.00187683,0.01078796,-1.00617981,0.305176,0.061035,0.122070
203795166,0.00178528,0.01007080,-1.00602722,0.366211,0.000000,-0.061035
208807333,0.00163269,0.00952148,-1.00585938,0.305176,-0.061035,-0.061035
213780666,0.00190735,0.00926208,-1.00582886,0.305176,0.122070,-0.061035
218793333,0.00256348,0.00904846,-1.00578308,0.305176,0.061035,-0.061035
223791000,0.00309753,0.00840759,-1.00558472,0.488281,-0.061035,-0.122070
228828166,0.00296021,0.00767517,-1.00552368,0.305176,-0.061035,-0.061035
233789333,0.00239563,0.00741577,-1.00547791,0.183105,0.000000,-0.122070
238820541,0.00228882,0.00723267,-1.00524902,0.305176,-0.061035,-0.061035
243822708,0.00263977,0.00686646,-1.00523376,0.305176,0.061035,-0.061035
248821000,0.00259399,0.00668335,-1.00593567,0.244141,0.061035,-0.061035
253757458,0.00239563,0.00698853,-1.00653076,0.305176,0.183105,-0.122070
258847833,0.00276184,0.00752258,-1.00607300,0.244141,0.061035,-0.122070
263796791,0.00321960,0.00784302,-1.00534058,0.305176,0.000000,0.000000
268820666,0.00332642,0.00785828,-1.00564575,0.244141,0.122070,-0.122070
273818791,0.00311279,0.00765991,-1.00645447,0.305176,-0.122070,0.000000
278809375,0.00305176,0.00746155,-1.00668335,0.244141,-0.061035,-0.122070
283812708,0.00323486,0.00762939,-1.00669861,0.427246,0.061035,-0.122070
288805041,0.00320435,0.00813293,-1.00695801,0.366211,0.000000,-0.183105
293831208,0.00276184,0.00856018,-1.00692749,0.244141,0.000000,-0.183105
298816666,0.00215149,0.00856018,-1.00636292,0.305176,0.183105,-0.122070
303828958,0.00175476,0.00833130,-1.00595093,0.366211,0.061035,-0.183105
308803791,0.00140381,0.00810242,-1.00608826,0.244141,0.061035,-0.122070
313814833,0.00061035,0.00784302,-1.00631714,0.305176,-0.061035,-0.061035
318810708,0.00003052,0.00762939,-1.00637817,0.427246,0.122070,-0.183105
323803416,0.00061035,0.00773621,-1.00650024,0.366211,0.061035,-0.061035
328843333,0.00193787,0.00813293,-1.00648499,0.488281,0.061035,-0.183105
333806625,0.00265503,0.00848389,-1.00601196,0.427246,0.122070,0.000000
338830541,0.00242615,0.00866699,-1.00581360,0.305176,0.122070,-0.244141
343803750,0.00238037,0.00843811,-1.00628662,0.427246,0.061035,0.061035
348826708,0.00306702,0.00798035,-1.00680542,0.427246,0.183105,-0.061035
353825500,0.00331116,0.00811768,-1.00714111,0.305176,0.000000,-0.061035
358933708,0.00251770,0.00878906,-1.00732422,0.366211,0.122070,-0.122070
363881000,0.00187683,0.00881958,-1.00686646,0.427246,0.183105,-0.122070
368821750,0.00234985,0.00834656,-1.00605774,0.366211,0.183105,0.000000
373821208,0.00341797,0.00808716,-1.00532532,0.305176,0.000000,-0.122070
378835125,0.00393677,0.00796509,-1.00463867,0.183105,0.061035,-0.061035
383879083,0.00343323,0.00791931,-1.00468445,0.366211,0.061035,-0.061035
388867458,0.00268555,0.00799561,-1.00624084,0.427246,0.000000,-0.061035
393822875,0.00274658,0.00775146,-1.00872803,0.244141,0.122070,-0.122070
398839500,0.00340271,0.00697327,-1.00914001,0.183105,-0.244141,-0.122070
403838125,0.00344849,0.00613403,-1.00675964,0.122070,-0.061035,-0.061035
408845416,0.00262451,0.00579834,-1.00541687,0.427246,0.122070,-0.122070
413830333,0.00192261,0.00621033,-1.00668335,0.549316,0.061035,-0.183105
418860791,0.00173950,0.00694275,-1.00700378,0.305176,0.000000,-0.244141
423872875,0.00166321,0.00718689,-1.00520325,0.244141,-0.122070,-0.061035
428846916,0.00169373,0.00700378,-1.00415039,0.427246,-0.061035,-0.061035
433846958,0.00187683,0.00698853,-1.00517273,0.305176,0.122070,-0.183105
438853125,0.00213623,0.00721741,-1.00679016,0.305176,0.061035,-0.244141
443841166,0.00253296,0.00744629,-1.00746155,0.427246,0.122070,-0.122070
448807916,0.00270081,0.00765991,-1.00721741,0.366211,0.061035,-0.183105
453834791,0.00244141,0.00808716,-1.00698853,0.305176,0.061035,-0.244141
458878791,0.00186157,0.00849915,-1.00672913,0.305176,0.122070,-0.122070
463854166,0.00120544,0.00842285,-1.00598145,0.366211,0.000000,-0.061035
468866083,0.00079346,0.00834656,-1.00537109,0.305176,0.183105,-0.061035
473833541,0.00094604,0.00878906,-1.00529480,0.183105,0.000000,0.122070
478851958,0.00137329,0.00933838,-1.00575256,0.244141,-0.061035,-0.122070
483838708,0.00167847,0.00944519,-1.00688171,0.244141,0.000000,-0.061035
488892333,0.00193787,0.00930786,-1.00805664,0.427246,-0.061035,-0.122070
493869166,0.00225830,0.00923157,-1.00782776,0.305176,0.000000,-0.183105
498878958,0.00263977,0.00924683,-1.00619507,0.366211,0.000000,-0.183105
503848375,0.00291443,0.00926208,-1.00469971,0.488281,-0.061035,0.000000
508854958,0.00297546,0.00923157,-1.00447083,0.488281,-0.122070,-0.122070
513849416,0.00283813,0.00889587,-1.00547791,0.305176,0.061035,-0.122070
518860083,0.00259399,0.00808716,-1.00685120,0.427246,0.061035,0.000000
523920291,0.00250244,0.00740051,-1.00738525,0.427246,0.122070,-0.183105
528893500,0.00259399,0.00730896,-1.00679016,0.366211,0.061035,-0.061035
533834291,0.00234985,0.00730896,-1.00592041,0.427246,0.122070,-0.061035
538852208,0.00189209,0.00686646,-1.00575256,0.610352,0.061035,-0.122070
543854083,0.00210571,0.00643921,-1.00627136,0.427246,-0.061035,-0.122070
548851166,0.00297546,0.00614929,-1.00651550,0.610352,0.061035,-0.061035
553831625,0.00344849,0.00556946,-1.00634766,0.549316,0.000000,-0.122070
558859000,0.00271606,0.00511169,-1.00642395,0.610352,0.122070,-0.122070
563880583,0.00175476,0.00534058,-1.00645447,0.549316,0.061035,-0.183105
568854125,0.00181580,0.00601196,-1.00643921,0.549316,0.122070,0.000000
573846791,0.00253296,0.00671387,-1.00697327,0.305176,0.061035,-0.122070
578854458,0.00263977,0.00738525,-1.00733948,0.488281,0.061035,-0.183105
583841000,0.00209045,0.00790405,-1.00694275,0.366211,0.000000,0.000000
588862458,0.00177002,0.00828552,-1.00665283,0.366211,-0.061035,-0.061035
593899458,0.00158691,0.00878906,-1.00656128,0.427246,0.000000,-0.122070
598895791,0.00096130,0.00952148,-1.00624084,0.305176,-0.061035,-0.122070
603863125,0.00027466,0.01008606,-1.00643921,0.427246,0.000000,-0.122070
608864916,0.00019836,0.01007080,-1.00708008,0.488281,-0.061035,-0.122070
613852000,0.00042725,0.00988770,-1.00694275,0.366211,0.000000,-0.061035
618860125,0.00041199,0.01017761,-1.00607300,0.488281,0.061035,-0.061035
623882708,0.00045776,0.01072693,-1.00550842,0.244141,0.061035,0.000000
628907541,0.00109863,0.01072693,-1.00582886,0.366211,0.122070,-0.183105
633874750,0.00210571,0.01025391,-1.00637817,0.549316,-0.061035,-0.122070
638875791,0.00292969,0.00965881,-1.00619507,0.366211,0.122070,-0.061035
643863125,0.00357056,0.00900269,-1.00570679,0.366211,0.000000,-0.122070
648867583,0.00382996,0.00836182,-1.00588989,0.427246,0.061035,-0.061035
653897416,0.00326538,0.00772095,-1.00624084,0.671387,0.000000,0.000000
658911166,0.00257874,0.00686646,-1.00625610,0.732422,0.061035,-0.061035
663869291,0.00291443,0.00607300,-1.00617981,1.037598,0.061035,-0.122070
668880791,0.00364685,0.00592041,-1.00471497,1.220703,0.000000,-0.244141
673854875,0.00358582,0.00625610,-1.00225830,1.220703,0.122070,-0.244141
678885916,0.00285339,0.00682068,-1.00149536,1.220703,0.244141,-0.122070
683881583,0.00234985,0.00746155,-1.00225830,0.610352,0.183105,-0.061035
688910791,0.00233459,0.00796509,-1.00238037,0.366211,-0.061035,-0.122070
693873000,0.00259399,0.00791931,-1.00364685,0.305176,0.000000,-0.183105
698908333,0.00300598,0.00767517,-1.00994873,0.427246,0.061035,0.000000
703900666,0.00305176,0.00830078,-1.01768494,0.610352,0.000000,0.000000
708865458,0.00221252,0.00961304,-1.01843262,0.793457,-0.305176,-0.122070
713857166,0.00083923,0.01045227,-1.01101685,0.488281,0.183105,-0.061035
718899166,-0.00018311,0.01014709,-1.00126648,0.244141,0.183105,-0.061035
723890416,-0.00059509,0.00915527,-0.99569702,0.427246,0.061035,0.000000
728909291,-0.00086975,0.00836182,-0.99914551,0.488281,0.000000,0.000000
733863041,-0.00125122,0.00825500,-1.01011658,0.427246,0.000000,0.000000
738883583,-0.00091553,0.00833130,-1.01777649,0.244141,0.061035,-0.183105
743869958,-0.00009155,0.00782776,-1.01460266,0.244141,0.061035,0.061035
748887125,0.00000000,0.00706482,-1.00720215,0.549316,-0.061035,-0.061035
753877041,0.00009155,0.00683594,-1.00360107,0.366211,0.122070,-0.061035
758901958,0.00149536,0.00709534,-1.00302124,0.427246,0.061035,0.000000
763866833,0.00361633,0.00706482,-1.00325012,0.671387,0.122070,0.000000
768936583,0.00514221,0.00631714,-1.00486755,0.549316,0.061035,-0.061035
773935666,0.00546265,0.00556946,-1.00727844,0.305176,0.000000,-0.122070
778906666,0.00508118,0.00546265,-1.00799561,0.427246,0.061035,0.000000
783964000,0.00482178,0.00552368,-1.00651550,0.610352,0.000000,-0.183105
788924750,0.00492859,0.00540161,-1.00498962,0.427246,0.000000,-0.183105
793900166,0.00538635,0.00500488,-1.00450134,0.488281,0.183105,-0.061035
798908416,0.00566101,0.00425720,-1.00509644,0.793457,0.244141,-0.061035
803903291,0.00509644,0.00389099,-1.00616455,0.610352,0.183105,-0.061035
808896583,0.00404358,0.00471497,-1.00637817,0.732422,0.183105,-0.061035
813889916,0.00337219,0.00608826,-1.00534058,0.549316,0.061035,-0.244141
818882583,0.00326538,0.00659180,-1.00407410,0.488281,0.183105,0.061035
823906708,0.00331116,0.00608826,-1.00422668,0.427246,0.061035,-0.183105
828924000,0.00302124,0.00569153,-1.00660706,0.488281,0.061035,-0.305176
833915208,0.00222778,0.00572205,-1.01010132,0.244141,0.000000,-0.122070
838906958,0.00131226,0.00584412,-1.01103210,0.183105,0.061035,0.061035
843892958,0.00073242,0.00587463,-1.00842285,0.244141,0.061035,0.000000
848892958,0.00077820,0.00595093,-1.00772095,0.427246,0.122070,-0.122070
853913416,0.00125122,0.00624084,-1.01065063,0.427246,0.061035,-0.122070
858894333,0.00151062,0.00683594,-1.01148987,0.549316,0.000000,0.061035
863894375,0.00114441,0.00781250,-1.00796509,0.305176,0.183105,-0.183105
868913000,0.00083923,0.00883484,-1.00402832,0.488281,0.122070,-0.061035
873917625,0.00120544,0.00938416,-1.00280762,0.488281,0.061035,-0.122070
878911833,0.00205994,0.00970459,-1.00396729,0.549316,0.122070,-0.122070
883910541,0.00273132,0.01020813,-1.00564575,0.366211,0.000000,-0.183105
888922791,0.00265503,0.01037598,-1.00683594,0.427246,0.061035,-0.061035
893901041,0.00236511,0.00976562,-1.00704956,0.427246,0.061035,0.000000
898940416,0.00294495,0.00878906,-1.00645447,0.366211,0.000000,-0.183105
903907291,0.00389099,0.00791931,-1.00588989,0.427246,-0.061035,-0.183105
908910458,0.00408936,0.00708008,-1.00575256,0.305176,0.000000,-0.122070
913926041,0.00398254,0.00653076,-1.00587463,0.305176,0.122070,-0.061035
918905666,0.00404358,0.00633240,-1.00611877,0.366211,0.000000,-0.122070
923920541,0.00354004,0.00613403,-1.00648499,0.427246,0.000000,-0.061035
928903875,0.00218201,0.00614929,-1.00646973,0.488281,0.000000,-0.183105
933910666,0.00106812,0.00625610,-1.00575256,0.305176,0.061035,-0.122070
939001291,0.00085449,0.00569153,-1.00524902,0.427246,0.061035,-0.305176
943909916,0.00100708,0.00482178,-1.00572205,0.427246,0.061035,-0.122070
948951916,0.00129700,0.00473022,-1.00703430,0.366211,0.122070,-0.061035
953912833,0.00166321,0.00559998,-1.00816345,0.244141,0.000000,-0.122070
958972833,0.00154114,0.00674438,-1.00823975,0.305176,0.061035,-0.183105
963928041,0.00100708,0.00761414,-1.00781250,0.488281,0.061035,-0.061035
968941750,0.00103760,0.00801086,-1.00753784,0.366211,0.000000,-0.183105
973906125,0.00146484,0.00804138,-1.00706482,0.488281,0.061035,-0.061035
978920916,0.00166321,0.00813293,-1.00648499,0.305176,-0.061035,-0.122070
983904500,0.00166321,0.00843811,-1.00611877,0.244141,-0.061035,-0.061035
988953083,0.00161743,0.00865173,-1.00598145,0.427246,0.061035,-0.061035
993929291,0.00186157,0.00851440,-1.00622559,0.244141,0.000000,0.061035
998898916,0.00228882,0.00843811,-1.00680542,0.427246,0.061035,-0.061035
1003969833,0.00251770,0.00862122,-1.00735474,0.244141,0.122070,-0.122070
1008925666,0.00265503,0.00865173,-1.00765991,0.366211,0.183105,0.000000
1013903541,0.00306702,0.00805664,-1.00738525,0.183105,0.061035,-0.061035
1018914125,0.00375366,0.00700378,-1.00651550,0.183105,0.000000,-0.122070
1023920250,0.00437927,0.00636292,-1.00585938,0.427246,0.061035,0.000000
1028950791,0.00437927,0.00640869,-1.00585938,0.427246,0.122070,-0.061035
1033942541,0.00379944,0.00645447,-1.00645447,0.366211,0.244141,0.000000
1038930708,0.00331116,0.00624084,-1.00685120,0.366211,0.061035,-0.122070
1043950791,0.00325012,0.00628662,-1.00627136,0.305176,0.122070,-0.122070
1048930833,0.00340271,0.00680542,-1.00529480,0.305176,0.000000,-0.061035
1053925750,0.00355530,0.00692749,-1.00502014,0.244141,0.000000,-0.122070
1058942625,0.00361633,0.00633240,-1.00564575,0.305176,0.000000,-0.244141
1063942125,0.00355530,0.00581360,-1.00643921,0.427246,0.061035,0.061035
1068930625,0.00352478,0.00581360,-1.00682068,0.366211,0.061035,-0.122070
1073918708,0.00370789,0.00593567,-1.00650024,0.488281,0.061035,-0.122070
1078933416,0.00389099,0.00592041,-1.00598145,0.366211,0.061035,-0.122070
1083898958,0.00381470,0.00590515,-1.00613403,0.366211,0.000000,-0.061035
1088966666,0.00323486,0.00624084,-1.00653076,0.366211,0.122070,-0.061035
1093953375,0.00227356,0.00669861,-1.00666809,0.427246,0.000000,-0.122070
1098968541,0.00146484,0.00694275,-1.00668335,0.427246,0.061035,-0.122070
1103921458,0.00096130,0.00697327,-1.00616455,0.305176,0.061035,-0.061035
1108931208,0.00059509,0.00671387,-1.00540161,0.366211,-0.061035,0.061035
1113920666,0.00042725,0.00642395,-1.00556946,0.366211,0.000000,0.000000
1118940500,0.00044250,0.00656128,-1.00672913,0.244141,0.000000,-0.122070
1123964583,0.00047302,0.00701904,-1.00758362,0.366211,0.000000,-0.183105
1128974791,0.00048828,0.00726318,-1.00733948,0.244141,0.000000,0.000000
1133953750,0.00048828,0.00747681,-1.00656128,0.427246,0.122070,-0.122070
1138929208,0.00050354,0.00750732,-1.00585938,0.366211,-0.061035,-0.122070
1143931541,0.00077820,0.00727844,-1.00553894,0.366211,-0.061035,-0.122070
1148932291,0.00140381,0.00733948,-1.00590515,0.427246,0.061035,-0.122070
1153925333,0.00195312,0.00770569,-1.00637817,0.305176,-0.061035,0.061035
1158987666,0.00215149,0.00805664,-1.00579834,0.488281,0.061035,-0.061035
1163936416,0.00234985,0.00827026,-1.00444031,0.488281,0.061035,-0.061035
1168933375,0.00277710,0.00822449,-1.00415039,0.427246,-0.122070,-0.061035
1173943416,0.00321960,0.00776672,-1.00561523,0.244141,0.122070,-0.183105
1178956708,0.00343323,0.00694275,-1.00753784,0.244141,0.122070,-0.122070
1183933458,0.00331116,0.00631714,-1.00833130,0.305176,0.061035,0.000000
1188978666,0.00312805,0.00650024,-1.00804138,0.366211,-0.061035,0.000000
1193959750,0.00320435,0.00692749,-1.00733948,0.366211,0.000000,-0.061035
1198973666,0.00340271,0.00688171,-1.00639343,0.305176,0.122070,0.000000
1203944583,0.00358582,0.00633240,-1.00540161,0.305176,0.061035,-0.061035
1208950166,0.00370789,0.00573730,-1.00512695,0.488281,0.061035,-0.061035
1213936875,0.00343323,0.00559998,-1.00588989,0.183105,0.000000,-0.244141
1218938916,0.00277710,0.00561523,-1.00675964,0.427246,-0.061035,-0.122070
1223953583,0.00201416,0.00531006,-1.00700378,0.366211,0.122070,0.000000
1228987791,0.00175476,0.00508118,-1.00680542,0.305176,0.061035,-0.061035
1233930750,0.00234985,0.00529480,-1.00663757,0.183105,-0.061035,-0.122070
1238959625,0.00306702,0.00521851,-1.00657654,0.366211,0.000000,-0.061035
1243949875,0.00289917,0.00469971,-1.00630188,0.305176,0.061035,-0.122070
1248999416,0.00231934,0.00474548,-1.00621033,0.305176,0.122070,-0.061035
1253971375,0.00207520,0.00555420,-1.00642395,0.244141,0.061035,-0.122070
1258954083,0.00187683,0.00636292,-1.00650024,0.305176,0.000000,-0.122070
1263963416,0.00190735,0.00659180,-1.00633240,0.305176,-0.061035,-0.122070
1268954291,0.00271606,0.00636292,-1.00637817,0.244141,0.000000,-0.244141
1273939041,0.00369263,0.00631714,-1.00671387,0.366211,-0.122070,-0.061035
1278954166,0.00404358,0.00677490,-1.00712585,0.366211,-0.061035,-0.061035
1283928708,0.00378418,0.00721741,-1.00730896,0.488281,0.000000,0.000000
1288988791,0.00338745,0.00718689,-1.00650024,0.122070,-0.061035,-0.122070
1293936375,0.00302124,0.00723267,-1.00486755,0.122070,0.000000,-0.122070
1298997041,0.00254822,0.00787354,-1.00433350,0.366211,-0.061035,-0.122070
1303999166,0.00207520,0.00842285,-1.00520325,0.183105,-0.061035,-0.061035
1308961125,0.00184631,0.00843811,-1.00607300,-0.183105,0.000000,-0.122070
1313961416,0.00160217,0.00816345,-1.00645447,-0.244141,0.000000,0.000000
1318959500,0.00119019,0.00787354,-1.00689697,-0.244141,-0.061035,-0.061035
1323997541,0.00106812,0.00784302,-1.00846863,-0.366211,-0.061035,-0.061035
1329002125,0.00126648,0.00811768,-1.01039124,-0.488281,0.000000,-0.183105
1333959333,0.00154114,0.00807190,-1.01083374,-0.854492,-0.122070,-0.122070
1338971958,0.00210571,0.00729370,-1.01025391,-0.732422,0.000000,-0.061035
1343945000,0.00291443,0.00660706,-1.00975037,-0.671387,0.000000,-0.122070
1348957291,0.00331116,0.00694275,-1.01010132,-0.305176,-0.061035,-0.122070
1353970125,0.00308228,0.00790405,-1.01043701,0.061035,0.061035,0.000000
1358956791,0.00263977,0.00833130,-1.00811768,0.244141,0.000000,-0.244141
1363991916,0.00230408,0.00793457,-1.00308228,0.244141,0.061035,-0.061035
1368983291,0.00224304,0.00718689,-0.99690247,0.183105,0.000000,0.000000
1373954791,0.00224304,0.00660706,-0.99449158,0.244141,0.122070,-0.061035
1378982333,0.00218201,0.00631714,-1.00006104,0.183105,0.061035,-0.061035
1383954333,0.00241089,0.00610352,-1.00814819,0.366211,0.000000,-0.061035
1389003291,0.00234985,0.00610352,-1.01142883,0.183105,-0.061035,-0.061035
1394013000,0.00141907,0.00671387,-1.00987244,0.305176,0.061035,0.000000
1398996458,0.00036621,0.00755310,-1.00663757,0.305176,0.061035,0.000000
1404060666,0.00001526,0.00784302,-1.00437927,0.427246,0.183105,-0.183105
1408981875,0.00025940,0.00738525,-1.00488281,0.366211,0.122070,-0.061035
1413973458,0.00077820,0.00692749,-1.00688171,0.427246,-0.122070,-0.122070
1418979666,0.00122070,0.00721741,-1.00788879,0.427246,0.061035,-0.061035
1424001083,0.00120544,0.00836182,-1.00767517,0.305176,0.061035,-0.061035
1429019208,0.00094604,0.00970459,-1.00691223,0.427246,0.000000,-0.061035
1433961708,0.00099182,0.01025391,-1.00599670,0.427246,0.122070,0.000000
1438979625,0.00184631,0.00990295,-1.00573730,0.427246,0.061035,-0.122070
1443980791,0.00297546,0.00967407,-1.00608826,0.427246,0.000000,0.000000
1448924833,0.00355530,0.01031494,-1.00630188,0.366211,0.183105,0.061035
1453959250,0.00367737,0.01109314,-1.00633240,0.366211,0.061035,-0.061035
1459016208,0.00373840,0.01115417,-1.00648499,0.305176,0.061035,0.000000
1464007041,0.00363159,0.01043701,-1.00665283,0.305176,0.183105,-0.061035
1468991041,0.00328064,0.00952148,-1.00660706,0.305176,0.061035,-0.122070
1473976333,0.00277710,0.00880432,-1.00648499,0.427246,0.000000,-0.122070
1478980208,0.00238037,0.00794983,-1.00622559,0.366211,0.183105,-0.122070
1483968375,0.00210571,0.00694275,-1.00592041,0.305176,0.122070,-0.183105
1488992666,0.00209045,0.00621033,-1.00559998,0.366211,0.000000,0.000000
1493956791,0.00244141,0.00579834,-1.00532532,0.366211,-0.122070,-0.183105
1498966458,0.00286865,0.00527954,-1.00576782,0.488281,0.061035,-0.122070
1503966208,0.00282288,0.00456238,-1.00633240,0.183105,-0.061035,-0.183105
1509005291,0.00209045,0.00439453,-1.00624084,0.305176,0.000000,-0.244141
1513964333,0.00119019,0.00479126,-1.00587463,0.305176,0.122070,-0.061035
1519000333,0.00064087,0.00527954,-1.00573730,0.305176,0.000000,-0.183105
1523987166,0.00044250,0.00566101,-1.00602722,0.244141,0.183105,-0.183105
1528992333,0.00048828,0.00604248,-1.00636292,0.183105,0.183105,-0.183105
1533965916,0.00079346,0.00642395,-1.00662231,0.305176,0.122070,-0.122070
1538990166,0.00120544,0.00683594,-1.00691223,0.366211,0.000000,-0.122070
1543980375,0.00148010,0.00738525,-1.00668335,0.305176,0.000000,-0.061035
1548998625,0.00180054,0.00784302,-1.00596619,0.366211,0.061035,-0.122070
1553975833,0.00242615,0.00817871,-1.00553894,0.183105,0.061035,-0.061035
1559009125,0.00349426,0.00856018,-1.00599670,0.244141,0.122070,-0.061035
1563993958,0.00436401,0.00900269,-1.00672913,0.305176,0.000000,0.000000
1569006083,0.00421143,0.00918579,-1.00662231,0.183105,-0.061035,-0.061035
1573991458,0.00337219,0.00920105,-1.00605774,0.305176,0.061035,-0.122070
1579001666,0.00257874,0.00935364,-1.00592041,0.366211,0.061035,-0.061035
1583968916,0.00224304,0.00929260,-1.00619507,0.488281,0.000000,-0.061035
1589020375,0.00244141,0.00878906,-1.00634766,0.305176,0.000000,0.000000
1593989791,0.00242615,0.00828552,-1.00625610,0.305176,0.000000,-0.122070
1598986041,0.00180054,0.00798035,-1.00643921,0.366211,0.061035,-0.061035
1603995666,0.00140381,0.00781250,-1.00665283,0.244141,-0.183105,-0.061035
1609001500,0.00177002,0.00767517,-1.00624084,0.244141,0.000000,-0.122070
1613994875,0.00233459,0.00746155,-1.00604248,0.305176,0.061035,-0.122070
1618999916,0.00254822,0.00749207,-1.00645447,0.488281,0.000000,-0.305176
1623997666,0.00257874,0.00791931,-1.00680542,0.305176,-0.061035,-0.183105
1629035875,0.00265503,0.00830078,-1.00695801,0.549316,0.000000,-0.061035
1634019041,0.00259399,0.00837708,-1.00717163,0.366211,0.061035,-0.122070
1639015250,0.00242615,0.00830078,-1.00721741,0.549316,-0.122070,-0.183105
1644002625,0.00207520,0.00813293,-1.00695801,0.366211,0.000000,-0.244141
1649001125,0.00148010,0.00779724,-1.00660706,0.366211,0.061035,-0.122070
1654024375,0.00126648,0.00743103,-1.00677490,0.366211,0.061035,-0.122070
1659018458,0.00169373,0.00720215,-1.00759888,0.305176,-0.061035,-0.061035
1664038375,0.00250244,0.00720215,-1.00811768,0.305176,0.122070,-0.061035
1668995916,0.00340271,0.00750732,-1.00769043,0.366211,0.061035,0.000000
1674003625,0.00387573,0.00772095,-1.00659180,0.305176,0.000000,-0.122070
1679013083,0.00352478,0.00746155,-1.00558472,0.305176,0.122070,-0.122070
1683987333,0.00248718,0.00698853,-1.00567627,0.427246,0.000000,0.000000
1689018916,0.00148010,0.00691223,-1.00640869,0.488281,0.061035,-0.061035
1694005750,0.00120544,0.00700378,-1.00657654,0.305176,0.122070,-0.122070
1699042458,0.00155640,0.00692749,-1.00630188,0.305176,0.061035,-0.122070
1704046333,0.00161743,0.00695801,-1.00621033,0.427246,0.000000,-0.061035
1709017958,0.00114441,0.00708008,-1.00627136,0.427246,0.122070,-0.122070
1714012125,0.00090027,0.00703430,-1.00614929,0.488281,0.183105,-0.061035
1719177583,0.00131226,0.00704956,-1.00611877,0.366211,0.061035,-0.061035
1723981125,0.00186157,0.00723267,-1.00640869,0.305176,0.061035,0.000000
1729008916,0.00204468,0.00750732,-1.00691223,0.366211,0.000000,-0.061035
1733996208,0.00196838,0.00791931,-1.00724792,0.183105,0.061035,-0.122070
1739027458,0.00170898,0.00817871,-1.00694275,0.305176,0.000000,0.000000
1744018333,0.00132751,0.00817871,-1.00610352,0.244141,0.061035,-0.122070
1749024666,0.00132751,0.00819397,-1.00552368,0.305176,0.000000,-0.061035
1754026291,0.00187683,0.00837708,-1.00578308,0.366211,0.122070,-0.061035
1759057166,0.00222778,0.00877380,-1.00653076,0.366211,0.061035,-0.122070
1764047000,0.00239563,0.00915527,-1.00717163,0.183105,0.000000,-0.122070
1769020250,0.00288391,0.00912476,-1.00737000,0.427246,0.122070,0.061035
1774003750,0.00318909,0.00865173,-1.00708008,0.366211,-0.061035,-0.183105
1779024166,0.00270081,0.00788879,-1.00662231,0.366211,0.061035,0.061035
1784011041,0.00172424,0.00715637,-1.00634766,0.305176,0.061035,-0.061035
1789025166,0.00151062,0.00698853,-1.00613403,0.305176,0.000000,-0.061035
1794033125,0.00209045,0.00720215,-1.00573730,0.305176,0.000000,0.000000
1799038458,0.00216675,0.00720215,-1.00570679,0.366211,-0.061035,-0.183105
1804036791,0.00189209,0.00682068,-1.00610352,0.427246,0.061035,-0.061035
1809044208,0.00204468,0.00640869,-1.00640869,0.305176,0.000000,-0.122070
1814035541,0.00219727,0.00637817,-1.00633240,0.305176,0.000000,0.000000
1819115083,0.00186157,0.00653076,-1.00584412,0.305176,0.000000,-0.122070
1824029791,0.00164795,0.00679016,-1.00512695,0.427246,0.122070,0.000000
1829040458,0.00225830,0.00715637,-1.00474548,0.183105,0.122070,0.000000
1834016791,0.00315857,0.00759888,-1.00497437,0.427246,0.000000,-0.122070
1839047333,0.00338745,0.00796509,-1.00553894,0.488281,0.122070,-0.061035
1844027250,0.00291443,0.00788879,-1.00593567,0.427246,0.122070,0.000000
1849053125,0.00242615,0.00744629,-1.00628662,0.427246,0.061035,0.000000
1854011458,0.00225830,0.00730896,-1.00683594,0.366211,0.061035,-0.061035
1859055916,0.00251770,0.00776672,-1.00703430,0.488281,-0.061035,0.000000
1864042833,0.00297546,0.00807190,-1.00657654,0.366211,0.122070,-0.122070
1869039625,0.00291443,0.00804138,-1.00616455,0.183105,0.183105,-0.061035
1874026166,0.00231934,0.00825500,-1.00621033,0.244141,0.000000,0.000000
1879035250,0.00204468,0.00863647,-1.00645447,0.305176,0.122070,-0.061035
1884030666,0.00242615,0.00863647,-1.00651550,0.305176,-0.061035,-0.061035
1889049583,0.00279236,0.00823975,-1.00642395,0.244141,0.000000,-0.122070
1894014666,0.00268555,0.00785828,-1.00631714,0.366211,-0.061035,-0.122070
1899049041,0.00244141,0.00772095,-1.00614929,0.244141,0.000000,0.000000
1904037500,0.00228882,0.00765991,-1.00593567,0.183105,0.000000,-0.061035
1909045000,0.00209045,0.00733948,-1.00593567,0.305176,-0.061035,-0.061035
1914029875,0.00195312,0.00697327,-1.00607300,0.427246,0.183105,0.061035
1919034125,0.00201416,0.00706482,-1.00592041,0.244141,0.061035,-0.061035
1924080208,0.00216675,0.00738525,-1.00575256,0.427246,0.061035,-0.183105
1929051375,0.00248718,0.00721741,-1.00596619,0.305176,0.061035,0.000000
1934020875,0.00271606,0.00675964,-1.00656128,0.366211,0.000000,-0.183105
1939120125,0.00259399,0.00682068,-1.00708008,0.366211,0.061035,-0.061035
1944046125,0.00279236,0.00708008,-1.00697327,0.427246,0.000000,-0.122070
1949036583,0.00361633,0.00695801,-1.00651550,0.366211,0.000000,-0.122070
1954027458,0.00401306,0.00674438,-1.00628662,0.305176,0.061035,-0.122070
1959065291,0.00334167,0.00698853,-1.00630188,0.366211,-0.061035,-0.061035
1964032583,0.00268555,0.00749207,-1.00622559,0.427246,0.061035,-0.061035
1969051958,0.00262451,0.00738525,-1.00605774,0.244141,0.183105,-0.122070
1974048458,0.00254822,0.00680542,-1.00621033,0.366211,0.061035,0.000000
1979057250,0.00222778,0.00675964,-1.00665283,0.366211,0.000000,-0.061035
1984037750,0.00236511,0.00703430,-1.00695801,0.244141,0.000000,-0.183105
1989084000,0.00294495,0.00717163,-1.00703430,0.366211,0.122070,0.061035
1994069708,0.00320435,0.00747681,-1.00683594,0.427246,0.183105,-0.061035
1999047166,0.00309753,0.00782776,-1.00630188,0.366211,0.122070,-0.122070
2004070750,0.00308228,0.00778198,-1.00572205,0.244141,0.122070,-0.061035
2009055166,0.00283813,0.00761414,-1.00555420,0.366211,0.122070,-0.122070
2014045291,0.00219727,0.00776672,-1.00575256,0.183105,0.122070,-0.061035
2019051625,0.00207520,0.00816345,-1.00582886,0.244141,0.061035,-0.061035
2024024541,0.00231934,0.00827026,-1.00595093,0.305176,0.061035,-0.122070
2029066208,0.00198364,0.00793457,-1.00656128,0.427246,0.122070,0.061035
2034046666,0.00128174,0.00770569,-1.00721741,0.366211,0.061035,0.000000
2039050041,0.00093079,0.00791931,-1.00720215,0.488281,-0.061035,-0.061035
2044154500,0.00111389,0.00823975,-1.00654602,0.427246,0.061035,-0.183105
2049069625,0.00129700,0.00834656,-1.00584412,0.244141,-0.122070,-0.183105
2054093708,0.00160217,0.00834656,-1.00573730,0.244141,0.061035,-0.061035
2059114500,0.00224304,0.00849915,-1.00617981,0.366211,0.000000,0.061035
2064044916,0.00262451,0.00863647,-1.00672913,0.366211,0.122070,-0.061035
2069047958,0.00271606,0.00804138,-1.00727844,0.305176,0.061035,-0.061035
2074051333,0.00262451,0.00700378,-1.00781250,0.244141,0.122070,-0.122070
2079141083,0.00221252,0.00668335,-1.00775146,0.244141,0.122070,0.000000
2084130000,0.00164795,0.00717163,-1.00703430,0.366211,-0.061035,-0.122070
2089164375,0.00154114,0.00755310,-1.00640869,0.244141,0.061035,-0.061035
2094089208,0.00225830,0.00747681,-1.00637817,0.427246,0.183105,-0.183105
2099073208,0.00344849,0.00738525,-1.00665283,0.183105,0.183105,-0.244141
2104081166,0.00402832,0.00740051,-1.00656128,0.366211,0.000000,-0.122070
2109063041,0.00350952,0.00717163,-1.00601196,0.366211,0.122070,0.000000
2114036083,0.00271606,0.00720215,-1.00534058,0.122070,0.122070,0.000000
2119125833,0.00228882,0.00756836,-1.00514221,0.366211,-0.061035,-0.122070
2124090750,0.00218201,0.00765991,-1.00582886,0.366211,0.061035,-0.122070
2129052500,0.00219727,0.00737000,-1.00689697,0.427246,0.183105,-0.061035
2134084875,0.00212097,0.00706482,-1.00726318,0.305176,0.000000,-0.122070
2139082250,0.00187683,0.00706482,-1.00680542,0.305176,0.000000,-0.183105
2144071166,0.00192261,0.00724792,-1.00653076,0.366211,0.000000,-0.183105
2149085875,0.00196838,0.00729370,-1.00683594,0.366211,0.000000,-0.183105
2154089250,0.00169373,0.00706482,-1.00724792,0.183105,0.000000,-0.122070
2159083041,0.00134277,0.00686646,-1.00733948,0.488281,0.000000,-0.061035
2164057500,0.00093079,0.00700378,-1.00704956,0.183105,0.061035,0.000000
2169072500,0.00068665,0.00744629,-1.00657654,0.427246,0.061035,-0.061035
2174090916,0.00106812,0.00778198,-1.00648499,0.366211,0.061035,-0.122070
2179084708,0.00187683,0.00778198,-1.00679016,0.427246,0.000000,-0.061035
2184147916,0.00218201,0.00749207,-1.00671387,0.366211,0.000000,-0.061035
2189086750,0.00183105,0.00726318,-1.00637817,0.366211,0.000000,-0.061035
2194071458,0.00163269,0.00706482,-1.00613403,0.366211,0.061035,0.122070
2199073708,0.00190735,0.00692749,-1.00604248,0.305176,0.061035,-0.122070
2204090916,0.00244141,0.00714111,-1.00631714,0.305176,0.061035,-0.061035
2209088541,0.00286865,0.00750732,-1.00674438,0.244141,-0.061035,-0.061035
2214070125,0.00289917,0.00762939,-1.00706482,0.305176,0.122070,-0.244141
2219090041,0.00250244,0.00779724,-1.00726318,0.305176,0.000000,-0.122070
2224070500,0.00216675,0.00794983,-1.00709534,0.366211,0.183105,0.061035
2229080250,0.00222778,0.00785828,-1.00646973,0.305176,0.000000,-0.061035
2234072166,0.00227356,0.00756836,-1.00572205,0.183105,0.000000,-0.122070
2239137083,0.00210571,0.00755310,-1.00564575,0.305176,0.244141,-0.061035
2244090250,0.00205994,0.00794983,-1.00622559,0.427246,0.061035,0.000000
2249083083,0.00227356,0.00822449,-1.00660706,0.366211,0.061035,0.000000
2254101458,0.00230408,0.00790405,-1.00663757,0.427246,0.061035,0.000000
2259125916,0.00196838,0.00744629,-1.00625610,0.305176,0.122070,-0.061035
2264125375,0.00178528,0.00747681,-1.00564575,0.427246,0.000000,0.000000
2269099041,0.00202942,0.00776672,-1.00546265,0.305176,0.061035,-0.122070
2274064958,0.00210571,0.00805664,-1.00585938,0.305176,0.183105,0.000000
2279095875,0.00183105,0.00816345,-1.00614929,0.366211,0.122070,-0.061035
2284086166,0.00186157,0.00799561,-1.00622559,0.427246,0.061035,-0.183105
2289194000,0.00233459,0.00779724,-1.00645447,0.305176,0.122070,0.000000
2294116166,0.00274658,0.00762939,-1.00627136,0.488281,0.122070,0.000000
2299095750,0.00259399,0.00727844,-1.00556946,0.305176,0.183105,-0.122070
2304091416,0.00222778,0.00709534,-1.00572205,0.244141,0.183105,-0.122070
2309092625,0.00204468,0.00737000,-1.00714111,0.427246,0.122070,-0.122070
2314087833,0.00196838,0.00765991,-1.00799561,0.488281,0.122070,-0.122070
2319109458,0.00199890,0.00755310,-1.00720215,0.366211,0.000000,0.061035
2324123458,0.00239563,0.00732422,-1.00572205,0.366211,0.000000,0.000000
2329122916,0.00289917,0.00726318,-1.00485229,0.488281,0.000000,-0.183105
2334093583,0.00274658,0.00726318,-1.00511169,0.305176,-0.061035,-0.183105
2339099333,0.00230408,0.00711060,-1.00593567,0.244141,0.122070,-0.122070
2344092166,0.00248718,0.00688171,-1.00627136,0.305176,0.122070,-0.122070
2349100791,0.00267029,0.00677490,-1.00598145,0.244141,-0.061035,-0.061035
2354107125,0.00230408,0.00680542,-1.00576782,0.427246,-0.061035,-0.183105
2359112458,0.00192261,0.00703430,-1.00590515,0.427246,0.000000,-0.122070
2364113708,0.00199890,0.00767517,-1.00621033,0.244141,0.000000,-0.061035
2369109791,0.00230408,0.00834656,-1.00625610,0.183105,0.061035,-0.122070
2374085208,0.00248718,0.00820923,-1.00602722,0.305176,0.061035,-0.061035
2379106333,0.00247192,0.00726318,-1.00588989,0.305176,0.122070,-0.061035
2384164375,0.00242615,0.00663757,-1.00608826,0.305176,0.000000,-0.183105
2389151916,0.00242615,0.00735474,-1.00634766,0.427246,0.122070,0.061035
2394192916,0.00236511,0.00837708,-1.00657654,0.488281,0.061035,-0.183105
2399113625,0.00231934,0.00846863,-1.00695801,0.305176,0.000000,-0.122070
2404110500,0.00248718,0.00798035,-1.00709534,0.183105,0.061035,0.000000
2409115916,0.00263977,0.00770569,-1.00651550,0.366211,0.061035,-0.061035
2414093583,0.00218201,0.00776672,-1.00566101,0.305176,0.000000,-0.061035
2419098375,0.00135803,0.00799561,-1.00553894,0.427246,0.000000,-0.061035
2424128000,0.00088501,0.00823975,-1.00625610,0.366211,0.000000,-0.122070
2429143541,0.00100708,0.00827026,-1.00688171,0.305176,0.000000,-0.122070
2434095500,0.00148010,0.00804138,-1.00695801,0.305176,0.061035,-0.061035
2439118250,0.00189209,0.00781250,-1.00653076,0.366211,0.122070,0.000000
2444106458,0.00204468,0.00775146,-1.00584412,0.427246,0.000000,0.000000
2449054291,0.00218201,0.00776672,-1.00563049,0.427246,0.061035,-0.122070
2454140166,0.00238037,0.00767517,-1.00627136,0.305176,0.000000,-0.244141
2459110916,0.00260925,0.00756836,-1.00708008,0.244141,0.000000,-0.244141
2464140208,0.00282288,0.00769043,-1.00708008,0.427246,0.000000,0.000000
2469120916,0.00283813,0.00799561,-1.00634766,0.488281,0.000000,0.061035
2474099125,0.00267029,0.00808716,-1.00578308,0.488281,0.183105,-0.061035
2479110250,0.00251770,0.00744629,-1.00561523,0.305176,0.122070,-0.122070
2484100125,0.00256348,0.00659180,-1.00582886,0.305176,0.061035,-0.122070
2489124416,0.00279236,0.00645447,-1.00636292,0.244141,0.000000,-0.061035
2494119416,0.00294495,0.00706482,-1.00659180,0.305176,0.061035,0.000000
2499152541,0.00296021,0.00750732,-1.00627136,0.366211,0.061035,-0.244141
2504122541,0.00289917,0.00703430,-1.00605774,0.305176,0.061035,-0.183105
2509127500,0.00265503,0.00648499,-1.00607300,0.244141,0.000000,-0.122070
2514115875,0.00222778,0.00669861,-1.00619507,0.366211,0.000000,-0.061035
2519122833,0.00205994,0.00715637,-1.00614929,0.427246,0.000000,-0.122070
2524148833,0.00216675,0.00733948,-1.00602722,0.305176,0.061035,0.000000
2529151583,0.00212097,0.00755310,-1.00625610,0.366211,0.000000,-0.122070
2534124666,0.00198364,0.00778198,-1.00669861,0.305176,-0.061035,-0.061035
2539126875,0.00199890,0.00782776,-1.00692749,0.305176,0.122070,0.000000
2544111875,0.00225830,0.00767517,-1.00686646,0.427246,0.183105,-0.122070
2549120208,0.00247192,0.00743103,-1.00672913,0.305176,0.183105,-0.183105
2554106375,0.00265503,0.00747681,-1.00677490,0.427246,0.183105,-0.061035
2559148041,0.00263977,0.00765991,-1.00703430,0.366211,-0.061035,0.000000
2564138041,0.00222778,0.00762939,-1.00721741,0.305176,0.000000,0.000000
2569122833,0.00170898,0.00761414,-1.00712585,0.244141,0.122070,-0.122070
2574108291,0.00172424,0.00762939,-1.00698853,0.244141,0.061035,0.000000
2579123041,0.00218201,0.00752258,-1.00675964,0.366211,0.122070,0.000000
2584118750,0.00228882,0.00778198,-1.00646973,0.366211,0.061035,-0.122070
2589156791,0.00177002,0.00849915,-1.00633240,0.305176,0.122070,-0.122070
2594120250,0.00131226,0.00895691,-1.00648499,0.366211,0.000000,0.000000
2599174458,0.00151062,0.00869751,-1.00691223,0.366211,0.061035,-0.061035
2604140625,0.00195312,0.00779724,-1.00738525,0.427246,0.061035,0.000000
2609129875,0.00230408,0.00695801,-1.00752258,0.305176,0.061035,-0.061035
2614141500,0.00259399,0.00695801,-1.00727844,0.244141,0.061035,-0.122070
2619150416,0.00276184,0.00750732,-1.00665283,0.122070,0.061035,-0.183105
2624141541,0.00257874,0.00787354,-1.00614929,0.366211,0.061035,-0.244141
2629171083,0.00218201,0.00788879,-1.00633240,0.427246,0.061035,-0.122070
2634129291,0.00190735,0.00782776,-1.00653076,0.244141,0.122070,-0.061035
2639151291,0.00173950,0.00794983,-1.00599670,0.305176,0.061035,-0.061035
2644141708,0.00155640,0.00782776,-1.00547791,0.305176,0.061035,-0.122070
2649149166,0.00158691,0.00726318,-1.00566101,0.366211,0.000000,-0.183105
2654136208,0.00198364,0.00694275,-1.00634766,0.305176,0.000000,-0.061035
2659084875,0.00251770,0.00723267,-1.00701904,0.244141,0.000000,0.000000
2664158000,0.00253296,0.00759888,-1.00721741,0.244141,0.000000,-0.061035
2669154625,0.00192261,0.00743103,-1.00714111,0.366211,0.122070,-0.183105
2674147208,0.00152588,0.00712585,-1.00718689,0.244141,0.183105,-0.122070
2679150833,0.00187683,0.00741577,-1.00708008,0.366211,0.000000,-0.122070
2684136666,0.00271606,0.00805664,-1.00665283,0.244141,0.000000,-0.061035
2689181208,0.00328064,0.00834656,-1.00619507,0.366211,0.061035,0.000000
2694143500,0.00311279,0.00813293,-1.00605774,0.305176,0.000000,-0.122070
2699145291,0.00248718,0.00764465,-1.00595093,0.366211,0.000000,-0.061035
2704222750,0.00221252,0.00737000,-1.00578308,0.366211,0.122070,-0.122070
2709136791,0.00254822,0.00761414,-1.00604248,0.366211,0.183105,-0.122070
2714135666,0.00273132,0.00785828,-1.00675964,0.305176,0.061035,-0.061035
2719181500,0.00236511,0.00781250,-1.00721741,0.366211,-0.061035,-0.122070
2724148625,0.00213623,0.00793457,-1.00698853,0.244141,0.061035,0.000000
2729166875,0.00247192,0.00796509,-1.00650024,0.244141,0.061035,0.000000
2734136958,0.00262451,0.00746155,-1.00633240,0.366211,0.122070,-0.183105
2739145250,0.00236511,0.00709534,-1.00659180,0.427246,-0.061035,-0.122070
2744131833,0.00238037,0.00711060,-1.00691223,0.305176,0.000000,-0.061035
2749156208,0.00253296,0.00715637,-1.00672913,0.366211,0.000000,-0.061035
2754304916,0.00250244,0.00723267,-1.00614929,0.488281,0.183105,-0.122070
2759201375,0.00224304,0.00730896,-1.00588989,0.427246,0.183105,0.061035
2764183375,0.00175476,0.00732422,-1.00621033,0.244141,0.000000,0.000000
2769175250,0.00128174,0.00730896,-1.00643921,0.183105,-0.061035,-0.183105
2774135500,0.00099182,0.00717163,-1.00617981,0.305176,0.061035,-0.061035
2779150875,0.00093079,0.00695801,-1.00604248,0.183105,0.061035,-0.122070
2784147833,0.00115967,0.00698853,-1.00636292,0.244141,0.000000,-0.122070
2789189208,0.00173950,0.00727844,-1.00646973,0.305176,0.000000,-0.122070
2794140458,0.00215149,0.00761414,-1.00648499,0.244141,-0.061035,-0.122070
2799175083,0.00216675,0.00781250,-1.00685120,0.488281,0.000000,-0.122070
2804169541,0.00230408,0.00784302,-1.00712585,0.366211,0.183105,-0.122070
2809194166,0.00263977,0.00781250,-1.00682068,0.427246,0.061035,-0.122070
2814148166,0.00256348,0.00788879,-1.00611877,0.244141,0.000000,-0.061035
2819179083,0.00212097,0.00808716,-1.00555420,0.427246,0.061035,-0.061035
2824147291,0.00187683,0.00813293,-1.00566101,0.244141,0.000000,-0.122070
2829178750,0.00201416,0.00807190,-1.00627136,0.122070,0.000000,-0.061035
2834142250,0.00222778,0.00799561,-1.00669861,0.366211,0.000000,-0.061035
2839163625,0.00201416,0.00776672,-1.00675964,0.244141,0.122070,-0.122070
2844148458,0.00167847,0.00744629,-1.00654602,0.305176,0.122070,0.000000
2849193375,0.00175476,0.00727844,-1.00636292,0.366211,0.061035,0.000000
2854148541,0.00216675,0.00721741,-1.00646973,0.366211,0.061035,-0.061035
2859205583,0.00245667,0.00714111,-1.00671387,0.366211,0.000000,-0.122070
2864151958,0.00250244,0.00717163,-1.00668335,0.427246,0.000000,-0.061035
2869179166,0.00253296,0.00740051,-1.00630188,0.366211,0.000000,-0.122070
2874161750,0.00274658,0.00784302,-1.00592041,0.183105,0.061035,0.122070
2879178666,0.00283813,0.00810242,-1.00596619,0.366211,0.061035,0.000000
2884162166,0.00239563,0.00784302,-1.00630188,0.427246,0.061035,-0.122070
2889166625,0.00169373,0.00743103,-1.00672913,0.183105,0.244141,0.000000
2894175750,0.00138855,0.00743103,-1.00724792,0.366211,0.122070,-0.061035
2899185625,0.00149536,0.00770569,-1.00752258,0.366211,0.061035,-0.122070
2904162208,0.00154114,0.00784302,-1.00738525,0.427246,0.000000,-0.122070
2909179208,0.00146484,0.00782776,-1.00686646,0.305176,0.122070,0.000000
2914176666,0.00125122,0.00773621,-1.00604248,0.488281,0.183105,-0.061035
2919171791,0.00109863,0.00752258,-1.00534058,0.427246,0.000000,-0.061035
2924166083,0.00131226,0.00733948,-1.00526428,0.305176,-0.122070,-0.122070
2929177458,0.00170898,0.00737000,-1.00592041,0.427246,0.061035,-0.183105
2934165958,0.00196838,0.00741577,-1.00660706,0.366211,0.061035,-0.183105
2939220208,0.00205994,0.00753784,-1.00648499,0.244141,-0.061035,-0.183105
2944161791,0.00230408,0.00791931,-1.00585938,0.244141,-0.061035,-0.061035
2949186875,0.00279236,0.00804138,-1.00573730,0.305176,0.122070,-0.122070
2954174541,0.00321960,0.00761414,-1.00596619,0.244141,0.122070,-0.122070
2959192625,0.00323486,0.00703430,-1.00605774,0.366211,0.000000,-0.122070
2964158291,0.00267029,0.00675964,-1.00616455,0.366211,0.000000,0.000000
2969186416,0.00213623,0.00680542,-1.00622559,0.244141,0.000000,-0.061035
2974169416,0.00234985,0.00708008,-1.00598145,0.305176,0.061035,-0.244141
2979190250,0.00306702,0.00730896,-1.00576782,0.305176,-0.061035,-0.305176
2984170875,0.00338745,0.00747681,-1.00588989,0.305176,0.061035,-0.061035
2989190291,0.00282288,0.00793457,-1.00633240,0.427246,0.183105,-0.122070
2994172416,0.00212097,0.00846863,-1.00698853,0.244141,0.122070,-0.061035
2999181625,0.00209045,0.00842285,-1.00715637,0.305176,0.061035,-0.061035
3004219708,0.00234985,0.00772095,-1.00617981,0.244141,-0.061035,-0.122070
3009199375,0.00238037,0.00698853,-1.00515747,0.305176,0.244141,-0.061035
3014211500,0.00224304,0.00689697,-1.00532532,0.183105,0.061035,-0.122070
3019207208,0.00204468,0.00733948,-1.00648499,0.366211,0.000000,-0.183105
3024189875,0.00193787,0.00747681,-1.00709534,0.427246,0.183105,-0.183105
3029227416,0.00196838,0.00721741,-1.00662231,0.244141,0.000000,-0.244141
3034182000,0.00186157,0.00740051,-1.00625610,0.366211,0.000000,-0.061035
3039191000,0.00175476,0.00801086,-1.00637817,0.305176,-0.122070,0.000000
3044174708,0.00212097,0.00828552,-1.00639343,0.366211,0.000000,0.000000
3049205291,0.00283813,0.00810242,-1.00613403,0.244141,0.061035,-0.183105
3054202625,0.00314331,0.00802612,-1.00595093,0.427246,0.122070,-0.061035
3059209875,0.00292969,0.00785828,-1.00614929,0.427246,0.000000,-0.061035
3064191083,0.00268555,0.00715637,-1.00613403,0.244141,0.122070,0.000000
3069209958,0.00219727,0.00657654,-1.00552368,0.366211,0.061035,-0.122070
3074196083,0.00148010,0.00674438,-1.00517273,0.183105,0.061035,-0.061035
3079202125,0.00106812,0.00737000,-1.00569153,0.244141,0.122070,-0.122070
3084178000,0.00128174,0.00767517,-1.00646973,0.305176,0.000000,-0.122070
3089208625,0.00177002,0.00743103,-1.00656128,0.427246,0.061035,0.000000
3094174708,0.00198364,0.00732422,-1.00611877,0.427246,0.000000,0.061035
3099221708,0.00180054,0.00785828,-1.00582886,0.244141,0.000000,-0.183105
3104190041,0.00154114,0.00849915,-1.00590515,0.244141,0.000000,-0.183105
3109203500,0.00169373,0.00851440,-1.00619507,0.427246,0.061035,0.000000
3114203833,0.00218201,0.00807190,-1.00639343,0.366211,0.061035,-0.061035
3119213458,0.00256348,0.00793457,-1.00637817,0.305176,0.122070,-0.061035
3124183500,0.00291443,0.00801086,-1.00617981,0.366211,0.000000,0.000000
3129213250,0.00326538,0.00794983,-1.00599670,0.366211,0.061035,0.000000
3134183458,0.00318909,0.00799561,-1.00625610,0.305176,0.061035,-0.122070
3139211416,0.00292969,0.00840759,-1.00682068,0.244141,0.000000,-0.061035
3144186458,0.00308228,0.00856018,-1.00721741,0.183105,0.122070,0.000000
3149203458,0.00337219,0.00801086,-1.00704956,0.427246,0.061035,-0.122070
3154196583,0.00332642,0.00749207,-1.00648499,0.305176,0.061035,0.000000
3159209791,0.00289917,0.00776672,-1.00601196,0.427246,0.183105,0.061035
3164215333,0.00248718,0.00822449,-1.00610352,0.244141,0.061035,-0.061035
3169329125,0.00233459,0.00804138,-1.00660706,0.366211,-0.122070,-0.122070
3174198500,0.00219727,0.00749207,-1.00692749,0.244141,0.000000,-0.122070
3179219666,0.00201416,0.00706482,-1.00691223,0.244141,0.000000,-0.061035
3184218708,0.00195312,0.00665283,-1.00668335,0.488281,0.122070,-0.122070
3189208833,0.00198364,0.00642395,-1.00656128,0.366211,0.000000,-0.061035
3194198125,0.00195312,0.00668335,-1.00671387,0.183105,0.061035,-0.122070
3199220333,0.00169373,0.00733948,-1.00683594,0.366211,0.000000,-0.122070
3204255750,0.00114441,0.00791931,-1.00668335,0.366211,0.122070,-0.061035
3209196750,0.00070190,0.00801086,-1.00628662,0.427246,0.183105,-0.061035
3214276625,0.00099182,0.00761414,-1.00604248,0.366211,0.061035,-0.061035
3219392208,0.00195312,0.00732422,-1.00625610,0.244141,0.000000,-0.183105
3224227083,0.00271606,0.00744629,-1.00637817,0.244141,-0.122070,-0.061035
3229241291,0.00274658,0.00787354,-1.00578308,0.305176,-0.061035,-0.122070
3234216791,0.00248718,0.00817871,-1.00515747,0.427246,0.061035,-0.061035
3239254833,0.00238037,0.00811768,-1.00552368,0.366211,0.061035,-0.061035
3244235125,0.00231934,0.00808716,-1.00665283,0.427246,0.000000,-0.122070
3249225041,0.00189209,0.00833130,-1.00715637,0.366211,0.122070,-0.061035
3254243833,0.00137329,0.00825500,-1.00642395,0.183105,0.000000,-0.122070
3259248083,0.00151062,0.00808716,-1.00559998,0.244141,-0.061035,-0.061035
3264204625,0.00222778,0.00808716,-1.00573730,0.366211,0.000000,-0.122070
3269216750,0.00273132,0.00770569,-1.00637817,0.366211,0.061035,-0.183105
3274199041,0.00254822,0.00712585,-1.00660706,0.366211,0.061035,-0.122070
3279225875,0.00199890,0.00706482,-1.00648499,0.244141,0.183105,-0.122070
3284221083,0.00181580,0.00744629,-1.00639343,0.427246,0.183105,-0.305176
3289247916,0.00219727,0.00776672,-1.00634766,0.366211,0.183105,-0.122070
3294241208,0.00224304,0.00772095,-1.00613403,0.366211,0.061035,-0.122070
3299233125,0.00167847,0.00773621,-1.00595093,0.244141,0.000000,-0.183105
3304238000,0.00143433,0.00794983,-1.00631714,0.427246,0.122070,-0.183105
3309223583,0.00166321,0.00784302,-1.00695801,0.305176,0.000000,-0.122070
3314220541,0.00167847,0.00747681,-1.00695801,0.427246,0.000000,-0.122070
3319229583,0.00161743,0.00744629,-1.00631714,0.305176,0.061035,-0.122070
3324249958,0.00166321,0.00790405,-1.00595093,0.366211,0.000000,-0.122070
3329246583,0.00143433,0.00830078,-1.00630188,0.366211,0.000000,-0.061035
3334239791,0.00114441,0.00837708,-1.00669861,0.244141,0.000000,-0.061035
3339238625,0.00106812,0.00839233,-1.00660706,0.488281,0.122070,0.000000
3344236875,0.00082397,0.00846863,-1.00621033,0.305176,0.061035,-0.122070
3349269291,0.00082397,0.00811768,-1.00563049,0.427246,0.061035,0.061035
3354256208,0.00161743,0.00749207,-1.00523376,0.244141,-0.061035,-0.122070
3359254083,0.00259399,0.00726318,-1.00547791,0.305176,0.000000,0.000000
3364215875,0.00291443,0.00749207,-1.00621033,0.244141,0.061035,0.000000
3369233708,0.00250244,0.00769043,-1.00662231,0.427246,0.183105,-0.183105
3374288916,0.00201416,0.00753784,-1.00619507,0.122070,0.122070,-0.183105
3379239958,0.00190735,0.00730896,-1.00575256,0.427246,0.000000,-0.122070
3384234208,0.00216675,0.00726318,-1.00617981,0.305176,-0.061035,-0.122070
3389247708,0.00238037,0.00738525,-1.00711060,0.305176,0.000000,-0.122070
3394229083,0.00234985,0.00758362,-1.00758362,0.183105,0.000000,0.000000
3399232750,0.00227356,0.00746155,-1.00715637,0.305176,0.122070,0.000000
3404271666,0.00224304,0.00704956,-1.00627136,0.427246,0.000000,0.000000
3409249000,0.00207520,0.00689697,-1.00544739,0.427246,0.061035,-0.061035
3414231500,0.00178528,0.00738525,-1.00523376,0.305176,0.000000,0.061035
3419246541,0.00186157,0.00807190,-1.00576782,0.305176,0.000000,0.000000
3424226916,0.00239563,0.00819397,-1.00650024,0.366211,0.122070,-0.122070
3429253583,0.00288391,0.00758362,-1.00691223,0.122070,0.061035,-0.122070
3434247000,0.00300598,0.00709534,-1.00685120,0.305176,-0.061035,-0.122070
3439255625,0.00277710,0.00733948,-1.00648499,0.366211,0.122070,-0.061035
3444248791,0.00231934,0.00776672,-1.00616455,0.427246,0.122070,-0.061035
3449263916,0.00195312,0.00782776,-1.00622559,0.427246,0.000000,-0.061035
3454273750,0.00186157,0.00746155,-1.00662231,0.366211,0.061035,-0.061035
3459273666,0.00186157,0.00689697,-1.00708008,0.366211,-0.061035,0.000000
3464259625,0.00167847,0.00672913,-1.00726318,0.305176,0.061035,-0.061035
3469257083,0.00134277,0.00718689,-1.00691223,0.366211,0.061035,0.000000
3474234791,0.00108337,0.00791931,-1.00607300,0.366211,0.122070,0.000000
3479259083,0.00125122,0.00819397,-1.00524902,0.427246,0.061035,0.061035
3484250666,0.00164795,0.00779724,-1.00520325,0.305176,0.122070,-0.061035
3489276041,0.00209045,0.00712585,-1.00579834,0.427246,0.122070,0.000000
3494248291,0.00262451,0.00674438,-1.00628662,0.244141,0.061035,-0.183105
3499245708,0.00286865,0.00662231,-1.00617981,0.305176,0.000000,0.000000
3504241750,0.00273132,0.00674438,-1.00585938,0.366211,0.061035,-0.183105
3509255041,0.00244141,0.00732422,-1.00573730,0.427246,0.000000,-0.183105
3514242583,0.00195312,0.00802612,-1.00595093,0.366211,0.000000,-0.061035
3519279041,0.00180054,0.00814819,-1.00642395,0.183105,0.000000,0.061035
3524239166,0.00228882,0.00755310,-1.00697327,0.305176,0.000000,-0.183105
3529319625,0.00245667,0.00720215,-1.00706482,0.305176,0.000000,-0.061035
3534232125,0.00189209,0.00770569,-1.00663757,0.305176,0.183105,-0.061035
3539254666,0.00143433,0.00828552,-1.00616455,0.427246,0.183105,-0.122070
3544251541,0.00154114,0.00839233,-1.00616455,0.488281,0.061035,-0.122070
3549248958,0.00186157,0.00811768,-1.00669861,0.427246,0.061035,-0.183105
3554291375,0.00196838,0.00782776,-1.00698853,0.305176,0.122070,-0.061035
3559284000,0.00189209,0.00770569,-1.00669861,0.366211,0.122070,-0.122070
3564248541,0.00164795,0.00747681,-1.00633240,0.366211,0.122070,-0.061035
3569265333,0.00129700,0.00706482,-1.00610352,0.305176,0.061035,-0.061035
3574240583,0.00123596,0.00701904,-1.00605774,0.305176,0.061035,-0.061035
3579264083,0.00152588,0.00746155,-1.00631714,0.366211,0.000000,-0.061035
3584255916,0.00170898,0.00796509,-1.00659180,0.244141,0.061035,-0.061035
3589279291,0.00180054,0.00823975,-1.00639343,0.305176,0.183105,0.000000
3594286208,0.00187683,0.00801086,-1.00602722,0.549316,0.061035,-0.061035
3599265541,0.00195312,0.00730896,-1.00605774,0.183105,0.000000,-0.122070
3604276916,0.00218201,0.00685120,-1.00617981,0.305176,0.061035,-0.183105
3609282250,0.00241089,0.00695801,-1.00590515,0.366211,0.183105,0.000000
3614239041,0.00248718,0.00703430,-1.00576782,0.244141,0.000000,0.000000
3619295958,0.00244141,0.00692749,-1.00625610,0.305176,0.061035,-0.061035
3624256833,0.00228882,0.00711060,-1.00669861,0.244141,-0.061035,-0.061035
3629312208,0.00210571,0.00775146,-1.00650024,0.488281,0.000000,0.061035
3634352875,0.00236511,0.00849915,-1.00622559,0.305176,0.000000,0.000000
3639272041,0.00296021,0.00881958,-1.00630188,0.244141,0.000000,-0.061035
3644261166,0.00303650,0.00839233,-1.00643921,0.305176,0.000000,-0.122070
3649273666,0.00239563,0.00749207,-1.00646973,0.305176,0.061035,-0.061035
3654306500,0.00157166,0.00721741,-1.00662231,0.427246,0.000000,0.061035
3659305416,0.00108337,0.00749207,-1.00645447,0.244141,0.183105,0.000000
3664272125,0.00117493,0.00723267,-1.00598145,0.305176,-0.061035,-0.122070
3669274125,0.00172424,0.00680542,-1.00617981,0.305176,0.122070,0.061035
3674265000,0.00247192,0.00682068,-1.00685120,0.427246,0.183105,-0.122070
3679288375,0.00288391,0.00701904,-1.00692749,0.549316,0.122070,-0.061035
3684268500,0.00267029,0.00741577,-1.00643921,0.244141,0.122070,-0.122070
3689325958,0.00213623,0.00804138,-1.00598145,0.488281,0.000000,0.000000
3694300791,0.00170898,0.00862122,-1.00595093,0.366211,0.061035,-0.122070
3699325958,0.00146484,0.00877380,-1.00636292,0.244141,0.061035,-0.244141
3704322500,0.00169373,0.00849915,-1.00686646,0.488281,0.000000,0.000000
3709283083,0.00238037,0.00828552,-1.00704956,0.366211,0.061035,-0.244141
3714255833,0.00285339,0.00839233,-1.00662231,0.305176,0.122070,-0.122070
3719298541,0.00248718,0.00877380,-1.00587463,0.305176,0.000000,-0.061035
3724304375,0.00177002,0.00892639,-1.00547791,0.305176,0.000000,-0.244141
3729321750,0.00158691,0.00875854,-1.00581360,0.366211,0.000000,-0.061035
3734291750,0.00169373,0.00814819,-1.00631714,0.488281,0.122070,-0.122070
3739324291,0.00161743,0.00726318,-1.00672913,0.488281,-0.061035,0.000000
3744272333,0.00151062,0.00685120,-1.00714111,0.305176,0.061035,0.000000
3749382708,0.00152588,0.00730896,-1.00691223,0.244141,0.061035,-0.061035
3754340708,0.00177002,0.00796509,-1.00636292,0.305176,0.122070,0.000000
3759281958,0.00233459,0.00801086,-1.00645447,0.244141,0.061035,-0.061035
3764263166,0.00297546,0.00779724,-1.00703430,0.305176,0.061035,-0.122070
3769294125,0.00300598,0.00793457,-1.00726318,0.366211,0.000000,0.000000
3774295125,0.00263977,0.00810242,-1.00695801,0.366211,0.122070,0.061035
3779281916,0.00251770,0.00793457,-1.00650024,0.427246,0.061035,-0.061035
3784275083,0.00234985,0.00758362,-1.00631714,0.366211,0.000000,-0.183105
3789327750,0.00199890,0.00733948,-1.00633240,0.305176,0.000000,-0.061035
3794287750,0.00216675,0.00752258,-1.00636292,0.244141,-0.061035,0.000000
3799303750,0.00306702,0.00819397,-1.00637817,0.305176,0.000000,-0.122070
3804295583,0.00350952,0.00856018,-1.00631714,0.305176,0.122070,-0.122070
3809298541,0.00271606,0.00810242,-1.00605774,0.305176,0.061035,-0.122070
3814288125,0.00177002,0.00744629,-1.00564575,0.305176,0.061035,-0.122070
3819305333,0.00163269,0.00740051,-1.00561523,0.427246,-0.061035,0.000000
3824312083,0.00195312,0.00814819,-1.00604248,0.305176,-0.061035,-0.122070
3829326916,0.00212097,0.00883484,-1.00645447,0.305176,-0.061035,-0.061035
3834312833,0.00218201,0.00843811,-1.00685120,0.183105,0.122070,-0.122070
3839296208,0.00247192,0.00721741,-1.00723267,0.366211,0.122070,-0.122070
3844299291,0.00263977,0.00639343,-1.00727844,0.549316,0.122070,-0.122070
3849311416,0.00253296,0.00646973,-1.00665283,0.427246,-0.061035,-0.122070
3854328583,0.00239563,0.00679016,-1.00581360,0.427246,0.061035,-0.183105
3859323500,0.00219727,0.00708008,-1.00578308,0.366211,0.061035,-0.183105
3864286500,0.00196838,0.00781250,-1.00654602,0.305176,0.061035,-0.122070
3869304083,0.00177002,0.00860596,-1.00691223,0.305176,0.122070,-0.183105
3874279583,0.00204468,0.00843811,-1.00642395,0.427246,0.000000,0.061035
3879313208,0.00294495,0.00759888,-1.00587463,0.244141,0.122070,-0.061035
3884297666,0.00341797,0.00743103,-1.00581360,0.549316,0.061035,-0.061035
3889335708,0.00271606,0.00788879,-1.00651550,0.305176,0.000000,-0.061035
3894360041,0.00148010,0.00802612,-1.00758362,0.427246,0.061035,-0.122070
3899318208,0.00096130,0.00765991,-1.00776672,0.366211,0.000000,0.000000
3904288500,0.00137329,0.00720215,-1.00680542,0.366211,0.061035,0.000000
3909314750,0.00205994,0.00703430,-1.00575256,0.427246,-0.061035,0.000000
3914301916,0.00227356,0.00735474,-1.00570679,0.244141,-0.122070,0.000000
3919324000,0.00180054,0.00791931,-1.00622559,0.305176,0.061035,-0.122070
3924318458,0.00160217,0.00848389,-1.00656128,0.305176,-0.122070,-0.061035
3929336875,0.00221252,0.00871277,-1.00677490,0.366211,0.061035,-0.061035
3934316291,0.00267029,0.00822449,-1.00708008,0.244141,0.122070,-0.122070
3939307875,0.00222778,0.00756836,-1.00711060,0.305176,0.000000,-0.061035
3944297875,0.00173950,0.00726318,-1.00682068,0.366211,-0.061035,0.000000
3949318375,0.00195312,0.00708008,-1.00639343,0.244141,0.122070,-0.061035
3954297083,0.00227356,0.00688171,-1.00645447,0.305176,0.061035,0.061035
3959334833,0.00199890,0.00688171,-1.00732422,0.305176,0.061035,-0.061035
3964315083,0.00152588,0.00717163,-1.00773621,0.305176,0.061035,-0.061035
3969328541,0.00135803,0.00744629,-1.00685120,0.366211,0.000000,-0.061035
3974316458,0.00141907,0.00747681,-1.00579834,0.183105,0.061035,0.000000
3979318791,0.00167847,0.00753784,-1.00564575,0.183105,0.061035,-0.122070
3984304333,0.00225830,0.00772095,-1.00625610,0.305176,0.061035,0.000000
3989352791,0.00274658,0.00794983,-1.00683594,0.305176,0.000000,0.000000
3994307916,0.00270081,0.00831604,-1.00675964,0.305176,0.061035,-0.122070
3999393375,0.00247192,0.00823975,-1.00630188,0.366211,0.122070,-0.122070
4004345000,0.00236511,0.00740051,-1.00572205,0.183105,0.061035,-0.183105
4009330500,0.00227356,0.00671387,-1.00534058,0.427246,-0.061035,-0.061035
4014301916,0.00207520,0.00674438,-1.00552368,0.305176,0.122070,0.000000
4019325666,0.00210571,0.00721741,-1.00622559,0.427246,0.000000,-0.122070
4024306083,0.00219727,0.00762939,-1.00685120,0.305176,0.000000,-0.122070
4029349875,0.00207520,0.00759888,-1.00701904,0.305176,0.000000,-0.061035
4034347291,0.00180054,0.00732422,-1.00653076,0.366211,0.061035,-0.122070
4039332875,0.00152588,0.00712585,-1.00584412,0.488281,0.122070,0.000000
4044333208,0.00138855,0.00738525,-1.00592041,0.366211,0.122070,0.000000
4049315916,0.00125122,0.00788879,-1.00663757,0.366211,0.061035,-0.122070
4054335208,0.00122070,0.00802612,-1.00711060,0.244141,0.122070,-0.061035
4059363125,0.00146484,0.00791931,-1.00685120,0.305176,0.061035,0.000000
4064324416,0.00180054,0.00811768,-1.00607300,0.366211,0.122070,-0.061035
4069349916,0.00204468,0.00846863,-1.00543213,0.305176,0.061035,0.061035
4074309166,0.00225830,0.00820923,-1.00540161,0.244141,0.061035,-0.305176
4079320791,0.00242615,0.00723267,-1.00573730,0.366211,0.061035,-0.183105
4084312291,0.00253296,0.00653076,-1.00619507,0.244141,0.061035,-0.122070
4089361125,0.00245667,0.00674438,-1.00682068,0.366211,0.000000,0.000000
4094340333,0.00193787,0.00732422,-1.00717163,0.488281,0.122070,0.000000
4099392250,0.00141907,0.00773621,-1.00680542,0.427246,0.000000,-0.061035
4104823750,0.00158691,0.00785828,-1.00627136,0.427246,0.061035,-0.061035
4111430000,0.00205994,0.00775146,-1.00640869,0.244141,0.061035,-0.183105
4114728375,0.00221252,0.00762939,-1.00704956,0.305176,0.000000,-0.061035
4119472916,0.00239563,0.00775146,-1.00741577,0.122070,0.061035,0.061035
4124487125,0.00273132,0.00759888,-1.00727844,0.366211,0.122070,0.061035
4129454625,0.00273132,0.00715637,-1.00689697,0.366211,0.061035,-0.061035
4134423208,0.00241089,0.00711060,-1.00640869,0.244141,0.122070,-0.061035
4139345333,0.00218201,0.00761414,-1.00614929,0.244141,0.000000,-0.122070
4144375833,0.00177002,0.00798035,-1.00645447,0.366211,0.000000,0.000000
4149377250,0.00131226,0.00796509,-1.00686646,0.305176,0.061035,0.000000
4154339750,0.00152588,0.00796509,-1.00672913,0.366211,0.000000,-0.183105
4159352041,0.00236511,0.00782776,-1.00640869,0.427246,0.122070,0.061035
4164345375,0.00309753,0.00729370,-1.00624084,0.305176,0.183105,0.000000
4169347125,0.00337219,0.00686646,-1.00605774,0.366211,0.122070,-0.183105
4174351791,0.00305176,0.00709534,-1.00579834,0.305176,0.000000,-0.061035
4179369166,0.00224304,0.00801086,-1.00592041,0.366211,0.061035,0.000000
4184369791,0.00175476,0.00856018,-1.00651550,0.366211,0.000000,-0.122070
4189361500,0.00192261,0.00814819,-1.00650024,0.366211,0.122070,-0.122070
4194333333,0.00244141,0.00744629,-1.00572205,0.366211,0.000000,-0.122070
4199357375,0.00314331,0.00723267,-1.00543213,0.366211,0.000000,-0.061035
4204350000,0.00334167,0.00746155,-1.00595093,0.366211,0.061035,-0.061035
4209411916,0.00267029,0.00740051,-1.00650024,0.366211,0.000000,0.000000
4214343500,0.00198364,0.00689697,-1.00675964,0.427246,-0.061035,-0.061035
4219352291,0.00215149,0.00695801,-1.00642395,0.305176,-0.061035,-0.122070
4224330208,0.00256348,0.00758362,-1.00555420,0.244141,-0.061035,0.000000
4229376666,0.00209045,0.00762939,-1.00512695,0.244141,0.000000,-0.183105
4234374416,0.00137329,0.00729370,-1.00558472,0.305176,0.061035,0.000000
4239399458,0.00167847,0.00743103,-1.00651550,0.366211,0.061035,-0.122070
4244388125,0.00254822,0.00762939,-1.00720215,0.244141,0.061035,-0.061035
4249368875,0.00276184,0.00755310,-1.00712585,0.305176,0.183105,0.000000
4254369958,0.00227356,0.00770569,-1.00663757,0.183105,0.000000,-0.122070
4259366791,0.00177002,0.00794983,-1.00640869,0.427246,0.061035,-0.061035
4264346208,0.00183105,0.00776672,-1.00639343,0.244141,0.000000,-0.061035
4269376500,0.00216675,0.00738525,-1.00628662,0.183105,0.122070,-0.122070
4274374458,0.00215149,0.00727844,-1.00604248,0.183105,-0.183105,-0.061035
4279365541,0.00184631,0.00738525,-1.00585938,0.366211,0.000000,0.000000
4284354458,0.00173950,0.00741577,-1.00575256,0.305176,0.000000,-0.061035
4289359791,0.00198364,0.00741577,-1.00567627,0.366211,0.183105,-0.183105
4294345041,0.00254822,0.00752258,-1.00605774,0.244141,0.061035,-0.122070
4299349833,0.00314331,0.00753784,-1.00666809,0.244141,-0.122070,-0.061035
4304373166,0.00320435,0.00770569,-1.00675964,0.488281,0.122070,-0.061035
4309365958,0.00250244,0.00782776,-1.00617981,0.305176,0.000000,0.000000
4314399708,0.00155640,0.00753784,-1.00579834,0.244141,0.122070,0.000000
4319361541,0.00143433,0.00732422,-1.00631714,0.488281,0.061035,-0.122070
4324363083,0.00213623,0.00740051,-1.00712585,0.488281,0.000000,0.000000
4329361041,0.00296021,0.00733948,-1.00733948,0.427246,0.061035,0.061035
4334356583,0.00329590,0.00717163,-1.00669861,0.427246,-0.061035,-0.183105
4339376458,0.00279236,0.00730896,-1.00566101,0.366211,0.000000,-0.061035
4344382208,0.00173950,0.00724792,-1.00494385,0.305176,0.000000,0.000000
4349399833,0.00128174,0.00666809,-1.00477600,0.305176,0.122070,-0.061035
4354408208,0.00173950,0.00645447,-1.00517273,0.366211,0.061035,0.061035
4359377791,0.00216675,0.00712585,-1.00617981,0.366211,-0.061035,-0.061035
4364368541,0.00218201,0.00794983,-1.00698853,0.305176,0.061035,-0.061035
4369395208,0.00242615,0.00813293,-1.00675964,0.427246,0.061035,-0.061035
4374394500,0.00282288,0.00782776,-1.00585938,0.183105,0.122070,-0.122070
4379408333,0.00254822,0.00779724,-1.00512695,0.305176,0.061035,-0.122070
4384380708,0.00204468,0.00827026,-1.00529480,0.427246,0.061035,-0.061035
4389386458,0.00225830,0.00874329,-1.00637817,0.427246,0.061035,-0.122070
4394373541,0.00289917,0.00871277,-1.00732422,0.366211,0.183105,-0.061035
4399378083,0.00300598,0.00845337,-1.00762939,0.427246,0.061035,0.061035
4404391791,0.00273132,0.00846863,-1.00762939,0.366211,0.061035,-0.183105
4409395875,0.00231934,0.00845337,-1.00704956,0.244141,0.061035,-0.183105
4414401000,0.00192261,0.00808716,-1.00585938,0.427246,0.183105,-0.244141
4419388833,0.00198364,0.00756836,-1.00526428,0.427246,-0.061035,0.000000
4424362458,0.00222778,0.00735474,-1.00587463,0.366211,0.061035,-0.061035
4429374666,0.00170898,0.00756836,-1.00656128,0.488281,0.061035,-0.061035
4434378458,0.00093079,0.00781250,-1.00610352,0.549316,0.061035,-0.183105
4439423458,0.00111389,0.00799561,-1.00515747,0.427246,0.000000,-0.122070
4444388208,0.00205994,0.00816345,-1.00500488,0.305176,0.061035,0.061035
4449387875,0.00262451,0.00810242,-1.00598145,0.427246,0.061035,-0.061035
4454369208,0.00242615,0.00787354,-1.00727844,0.488281,0.000000,-0.122070
4459384750,0.00219727,0.00775146,-1.00775146,0.488281,0.000000,0.061035
4464371375,0.00250244,0.00776672,-1.00697327,0.610352,0.122070,-0.061035
4469468083,0.00289917,0.00779724,-1.00569153,0.488281,0.183105,-0.122070
4474395208,0.00303650,0.00770569,-1.00489807,0.610352,0.183105,-0.122070
4479397541,0.00320435,0.00747681,-1.00498962,0.366211,0.244141,-0.122070
4484366583,0.00331116,0.00743103,-1.00497437,0.549316,0.061035,-0.061035
4489397541,0.00292969,0.00749207,-1.00392151,0.427246,0.061035,-0.061035
4494389333,0.00259399,0.00704956,-1.00427246,0.488281,0.061035,-0.061035
4499431083,0.00276184,0.00639343,-1.00714111,0.610352,0.000000,-0.122070
4504428500,0.00302124,0.00642395,-1.00894165,0.427246,0.122070,0.000000
4509428166,0.00288391,0.00698853,-1.00762939,0.488281,0.061035,-0.061035
4514398833,0.00225830,0.00720215,-1.00523376,0.366211,0.061035,0.000000
4519437166,0.00161743,0.00709534,-1.00468445,0.488281,0.061035,-0.122070
4524402666,0.00143433,0.00743103,-1.00660706,0.305176,0.061035,-0.061035
4529403875,0.00151062,0.00830078,-1.00843811,0.366211,0.061035,-0.061035
4534391500,0.00161743,0.00894165,-1.00805664,0.305176,0.122070,-0.061035
4539419833,0.00192261,0.00865173,-1.00669861,0.366211,0.061035,-0.061035
4544416666,0.00231934,0.00787354,-1.00592041,0.427246,0.061035,-0.061035
4549404833,0.00236511,0.00782776,-1.00517273,0.244141,0.183105,0.061035
4554369375,0.00207520,0.00839233,-1.00422668,0.427246,0.000000,-0.061035
4559395416,0.00177002,0.00859070,-1.00448608,0.427246,0.244141,0.000000
4564378083,0.00172424,0.00836182,-1.00607300,0.549316,0.122070,0.000000
4569386750,0.00216675,0.00817871,-1.00688171,0.427246,0.183105,0.000000
4574419833,0.00273132,0.00820923,-1.00613403,0.488281,0.122070,-0.122070
4579436875,0.00283813,0.00801086,-1.00514221,0.488281,0.061035,-0.122070
4584367125,0.00263977,0.00724792,-1.00503540,0.610352,0.061035,-0.122070
4589416083,0.00234985,0.00646973,-1.00544739,0.427246,0.000000,-0.061035
4594385083,0.00216675,0.00639343,-1.00564575,0.488281,0.122070,0.000000
4599402458,0.00265503,0.00683594,-1.00570679,0.427246,0.061035,-0.183105
4604413500,0.00338745,0.00727844,-1.00624084,0.427246,0.061035,-0.061035
4609433958,0.00329590,0.00753784,-1.00733948,0.427246,0.122070,-0.183105
4614419833,0.00265503,0.00781250,-1.00799561,0.366211,0.061035,0.000000
4619415708,0.00241089,0.00802612,-1.00738525,0.488281,0.061035,-0.122070
4624444125,0.00267029,0.00775146,-1.00608826,0.427246,0.061035,0.000000
4629410000,0.00282288,0.00730896,-1.00512695,0.366211,0.000000,-0.244141
4634414916,0.00245667,0.00743103,-1.00526428,0.427246,0.122070,-0.061035
4639418500,0.00204468,0.00791931,-1.00642395,0.549316,0.122070,-0.122070
4644427500,0.00210571,0.00794983,-1.00729370,0.366211,0.061035,-0.122070
4649402875,0.00224304,0.00753784,-1.00743103,0.244141,-0.061035,-0.122070
4654406958,0.00204468,0.00727844,-1.00720215,0.366211,0.061035,-0.061035
4659416708,0.00160217,0.00729370,-1.00689697,0.488281,0.061035,0.000000
4664413083,0.00102234,0.00717163,-1.00653076,0.427246,0.061035,-0.061035
4669417958,0.00061035,0.00688171,-1.00630188,0.366211,0.061035,-0.122070
4674421208,0.00073242,0.00674438,-1.00675964,0.244141,0.061035,-0.061035
4679452583,0.00090027,0.00675964,-1.00755310,0.366211,0.061035,-0.122070
4684432250,0.00080872,0.00660706,-1.00772095,0.366211,0.000000,-0.061035
4689420416,0.00111389,0.00621033,-1.00692749,0.305176,0.122070,-0.061035
4694423708,0.00187683,0.00604248,-1.00587463,0.305176,0.061035,-0.061035
4699428166,0.00234985,0.00656128,-1.00552368,0.305176,-0.061035,0.000000
4704439833,0.00241089,0.00747681,-1.00585938,0.366211,0.061035,0.000000
4709430666,0.00248718,0.00810242,-1.00642395,0.427246,0.061035,0.000000
4714434375,0.00251770,0.00796509,-1.00660706,0.122070,0.000000,-0.122070
4719411791,0.00245667,0.00729370,-1.00624084,0.305176,0.061035,-0.244141
4724409166,0.00254822,0.00691223,-1.00598145,0.366211,0.000000,-0.244141
4729424583,0.00299072,0.00703430,-1.00622559,0.549316,0.061035,0.000000
4734402750,0.00349426,0.00703430,-1.00663757,0.305176,-0.061035,0.000000
4739475083,0.00352478,0.00679016,-1.00674438,0.305176,0.061035,-0.183105
4744439333,0.00309753,0.00671387,-1.00669861,0.244141,0.000000,-0.061035
4749423916,0.00253296,0.00665283,-1.00636292,0.427246,0.061035,-0.122070
4754396333,0.00215149,0.00648499,-1.00566101,0.305176,0.061035,-0.122070
4759433583,0.00225830,0.00672913,-1.00495911,0.366211,0.061035,-0.122070
4764437416,0.00270081,0.00741577,-1.00526428,0.305176,0.183105,-0.061035
4769436916,0.00291443,0.00794983,-1.00659180,0.366211,0.000000,0.000000
4774449875,0.00268555,0.00817871,-1.00683594,0.366211,0.000000,0.000000
4779475125,0.00224304,0.00805664,-1.00549316,0.366211,0.000000,0.000000
4784434000,0.00186157,0.00781250,-1.00479126,0.305176,-0.061035,-0.061035
4789437333,0.00172424,0.00755310,-1.00576782,0.305176,0.061035,-0.122070
4794429708,0.00202942,0.00729370,-1.00677490,0.305176,0.061035,0.000000
4799439541,0.00257874,0.00706482,-1.00621033,0.305176,0.061035,0.000000
4804427458,0.00288391,0.00718689,-1.00494385,0.183105,0.000000,0.000000
4809465458,0.00267029,0.00772095,-1.00468445,0.488281,0.000000,-0.061035
4814440208,0.00219727,0.00810242,-1.00561523,0.427246,0.061035,-0.061035
4819433500,0.00190735,0.00787354,-1.00665283,0.488281,0.000000,-0.122070
4824423541,0.00187683,0.00753784,-1.00708008,0.427246,0.183105,-0.061035
4829437791,0.00187683,0.00769043,-1.00723267,0.305176,0.122070,0.000000
4834422625,0.00175476,0.00787354,-1.00708008,0.305176,0.122070,-0.122070
4839467583,0.00193787,0.00759888,-1.00628662,0.366211,0.061035,0.000000
4844410125,0.00262451,0.00709534,-1.00549316,0.122070,0.061035,-0.122070
4849467041,0.00317383,0.00700378,-1.00552368,0.305176,0.122070,-0.061035
4854432041,0.00285339,0.00714111,-1.00637817,0.244141,0.000000,0.000000
4859439750,0.00216675,0.00715637,-1.00682068,0.488281,0.000000,-0.061035
4864383916,0.00221252,0.00750732,-1.00625610,0.305176,0.122070,-0.061035
4869478125,0.00262451,0.00808716,-1.00570679,0.488281,0.061035,0.000000
4874459083,0.00250244,0.00819397,-1.00605774,0.427246,0.183105,-0.122070
4879469666,0.00205994,0.00761414,-1.00666809,0.549316,0.061035,-0.061035
4884417541,0.00192261,0.00695801,-1.00662231,0.366211,0.061035,-0.122070
4889432541,0.00201416,0.00671387,-1.00601196,0.427246,0.000000,-0.122070
4894432500,0.00193787,0.00668335,-1.00575256,0.305176,0.122070,0.000000
4899454041,0.00202942,0.00665283,-1.00630188,0.366211,0.000000,0.061035
4904487833,0.00253296,0.00682068,-1.00708008,0.305176,0.061035,-0.122070
4909464083,0.00291443,0.00723267,-1.00729370,0.305176,0.183105,0.061035
4914470583,0.00273132,0.00741577,-1.00685120,0.427246,0.183105,0.000000
4919450791,0.00238037,0.00714111,-1.00651550,0.488281,0.183105,-0.061035
4924442708,0.00245667,0.00688171,-1.00656128,0.244141,-0.061035,0.000000
4929444500,0.00247192,0.00711060,-1.00616455,0.366211,0.061035,-0.061035
4934497166,0.00233459,0.00750732,-1.00532532,0.366211,0.061035,-0.122070
4939484666,0.00248718,0.00753784,-1.00532532,0.366211,0.000000,-0.122070
4944457583,0.00251770,0.00730896,-1.00617981,0.488281,0.061035,0.000000
4949458208,0.00215149,0.00709534,-1.00671387,0.488281,0.000000,-0.122070
4954451291,0.00195312,0.00737000,-1.00657654,0.244141,0.061035,0.000000
4959436208,0.00218201,0.00790405,-1.00624084,0.366211,0.122070,-0.061035
4964466583,0.00242615,0.00790405,-1.00579834,0.244141,0.000000,-0.122070
4969491166,0.00239563,0.00753784,-1.00563049,0.366211,-0.061035,0.000000
4974467916,0.00231934,0.00755310,-1.00611877,0.305176,0.061035,-0.061035
4979457916,0.00238037,0.00794983,-1.00688171,0.366211,0.061035,-0.183105
4984541958,0.00257874,0.00787354,-1.00735474,0.366211,0.122070,-0.122070
4989465250,0.00274658,0.00706482,-1.00724792,0.427246,0.061035,-0.122070
4994451000,0.00248718,0.00613403,-1.00662231,0.366211,0.061035,-0.061035
4999462041,0.00212097,0.00538635,-1.00596619,0.366211,0.000000,-0.061035
5004513875,0.00202942,0.00532532,-1.00566101,0.610352,0.183105,-0.122070
5009474708,0.00189209,0.00614929,-1.00584412,0.427246,0.000000,-0.061035
5014451208,0.00181580,0.00691223,-1.00639343,0.427246,0.122070,-0.122070
5019472291,0.00230408,0.00677490,-1.00669861,0.366211,0.000000,-0.122070
5024438916,0.00321960,0.00617981,-1.00656128,0.305176,0.000000,-0.183105
5029464750,0.00347900,0.00590515,-1.00634766,0.183105,0.122070,-0.061035
5034429875,0.00277710,0.00605774,-1.00616455,0.305176,0.061035,-0.061035
5039496708,0.00201416,0.00662231,-1.00596619,0.366211,0.122070,-0.061035
5044447875,0.00189209,0.00740051,-1.00622559,0.366211,0.061035,-0.061035
5049460416,0.00221252,0.00778198,-1.00695801,0.244141,0.000000,-0.183105
5054466791,0.00247192,0.00770569,-1.00726318,0.366211,0.000000,-0.183105
5059458666,0.00263977,0.00791931,-1.00683594,0.305176,-0.061035,-0.122070
5064423791,0.00291443,0.00830078,-1.00610352,0.305176,0.122070,-0.183105
5069499166,0.00329590,0.00801086,-1.00563049,0.366211,0.061035,-0.061035
5074449333,0.00361633,0.00714111,-1.00588989,0.305176,0.061035,-0.122070
5079486541,0.00355530,0.00663757,-1.00671387,0.305176,0.000000,-0.122070
5084481708,0.00297546,0.00691223,-1.00737000,0.427246,-0.122070,-0.061035
5089502541,0.00244141,0.00767517,-1.00709534,0.366211,0.122070,-0.122070
5094463666,0.00225830,0.00833130,-1.00611877,0.305176,0.000000,-0.061035
5099463333,0.00216675,0.00820923,-1.00523376,0.427246,0.000000,-0.183105
5104474833,0.00228882,0.00759888,-1.00514221,0.305176,0.183105,-0.061035
5109495541,0.00286865,0.00721741,-1.00598145,0.427246,0.061035,-0.061035
5114482250,0.00334167,0.00721741,-1.00697327,0.488281,-0.061035,-0.183105
5119469458,0.00309753,0.00729370,-1.00695801,0.427246,0.000000,-0.122070
5124453583,0.00225830,0.00718689,-1.00584412,0.366211,0.122070,-0.061035
5129461166,0.00170898,0.00688171,-1.00509644,0.488281,0.122070,-0.061035
5134457958,0.00190735,0.00651550,-1.00559998,0.427246,-0.061035,-0.183105
5139543166,0.00248718,0.00631714,-1.00674438,0.427246,0.061035,0.000000
5144484666,0.00280762,0.00631714,-1.00720215,0.488281,-0.122070,-0.183105
5149484958,0.00300598,0.00656128,-1.00662231,0.305176,-0.061035,0.061035
5154451666,0.00343323,0.00697327,-1.00564575,0.305176,0.061035,-0.061035
5159470458,0.00357056,0.00729370,-1.00497437,0.366211,0.061035,-0.061035
5164499791,0.00305176,0.00718689,-1.00544739,0.244141,0.000000,-0.122070
5169476708,0.00230408,0.00654602,-1.00683594,0.305176,-0.122070,-0.122070
5174504416,0.00192261,0.00572205,-1.00773621,0.366211,0.000000,-0.061035
5179520916,0.00210571,0.00543213,-1.00764465,0.366211,0.000000,0.000000
5184488333,0.00257874,0.00569153,-1.00715637,0.488281,0.183105,0.061035
5189471708,0.00270081,0.00624084,-1.00669861,0.305176,0.000000,-0.122070
5194481333,0.00248718,0.00663757,-1.00633240,0.366211,-0.061035,-0.122070
5199486458,0.00196838,0.00648499,-1.00590515,0.427246,0.061035,-0.183105
5204513833,0.00138855,0.00634766,-1.00552368,0.244141,0.061035,0.061035
5209492916,0.00163269,0.00663757,-1.00558472,0.183105,-0.061035,-0.122070
5214494666,0.00228882,0.00718689,-1.00616455,0.244141,0.122070,-0.183105
5219486041,0.00222778,0.00755310,-1.00692749,0.366211,0.122070,-0.244141
5224447250,0.00181580,0.00729370,-1.00726318,0.305176,0.061035,-0.061035
5229494666,0.00183105,0.00669861,-1.00694275,0.366211,0.183105,0.000000
5234488708,0.00227356,0.00666809,-1.00680542,0.366211,0.061035,0.061035
5239507541,0.00268555,0.00733948,-1.00703430,0.244141,-0.061035,-0.244141
5244520000,0.00267029,0.00793457,-1.00662231,0.305176,0.061035,-0.061035
5249493666,0.00247192,0.00781250,-1.00578308,0.610352,0.061035,0.000000
5254484041,0.00238037,0.00706482,-1.00556946,0.305176,0.061035,-0.061035
5259487458,0.00231934,0.00637817,-1.00621033,0.305176,0.122070,-0.122070
5264474375,0.00216675,0.00622559,-1.00685120,0.366211,0.122070,-0.183105
5269485041,0.00199890,0.00654602,-1.00689697,0.427246,0.122070,-0.061035
5274474500,0.00192261,0.00704956,-1.00662231,0.244141,0.000000,-0.183105
5279515375,0.00193787,0.00735474,-1.00656128,0.305176,0.000000,0.000000
5284484000,0.00202942,0.00746155,-1.00643921,0.305176,0.061035,-0.061035
5289509958,0.00205994,0.00750732,-1.00601196,0.305176,0.000000,-0.061035
5294476791,0.00198364,0.00746155,-1.00617981,0.366211,0.122070,-0.061035
5299506125,0.00178528,0.00723267,-1.00679016,0.427246,0.122070,-0.122070
5304518000,0.00140381,0.00692749,-1.00685120,0.427246,0.000000,-0.061035
5309530250,0.00103760,0.00697327,-1.00633240,0.244141,0.061035,-0.061035
5314509083,0.00096130,0.00749207,-1.00573730,0.366211,0.122070,-0.183105
5319493250,0.00122070,0.00802612,-1.00569153,0.305176,0.061035,-0.244141
5324493791,0.00177002,0.00808716,-1.00631714,0.427246,-0.061035,-0.183105
5329504250,0.00241089,0.00778198,-1.00698853,0.366211,0.000000,0.061035
5334490791,0.00270081,0.00743103,-1.00711060,0.305176,0.000000,-0.061035
5339541958,0.00274658,0.00726318,-1.00672913,0.366211,0.122070,-0.183105
5344511833,0.00285339,0.00732422,-1.00619507,0.366211,0.122070,-0.183105
5349546666,0.00294495,0.00759888,-1.00569153,0.305176,-0.061035,-0.122070
5354521500,0.00308228,0.00785828,-1.00570679,0.183105,0.061035,-0.061035
5359490000,0.00331116,0.00758362,-1.00631714,0.305176,0.122070,-0.122070
5364504958,0.00343323,0.00683594,-1.00645447,0.366211,-0.061035,-0.183105
5369521791,0.00343323,0.00650024,-1.00584412,0.366211,-0.122070,-0.122070
5374524625,0.00331116,0.00698853,-1.00543213,0.366211,0.061035,-0.122070
5379530541,0.00288391,0.00752258,-1.00579834,0.366211,-0.061035,-0.122070
5384509666,0.00239563,0.00740051,-1.00654602,0.427246,0.000000,-0.061035
5389512708,0.00221252,0.00721741,-1.00709534,0.427246,0.000000,-0.061035
5394503291,0.00212097,0.00737000,-1.00732422,0.366211,0.061035,0.000000
5399507875,0.00201416,0.00730896,-1.00721741,0.427246,0.061035,-0.061035
5404554375,0.00215149,0.00697327,-1.00675964,0.244141,0.000000,0.000000
5409518875,0.00256348,0.00677490,-1.00634766,0.427246,-0.122070,-0.122070
5414525083,0.00294495,0.00671387,-1.00596619,0.244141,0.000000,-0.122070
5419510125,0.00309753,0.00666809,-1.00541687,0.366211,-0.061035,-0.061035
5424513041,0.00279236,0.00682068,-1.00527954,0.366211,0.061035,-0.061035
5429508000,0.00222778,0.00703430,-1.00596619,0.305176,-0.061035,-0.061035
5434504041,0.00201416,0.00674438,-1.00669861,0.366211,0.061035,0.000000
5439550125,0.00224304,0.00643921,-1.00662231,0.488281,0.000000,-0.061035
5444511416,0.00254822,0.00674438,-1.00625610,0.305176,0.061035,-0.183105
5449523625,0.00273132,0.00721741,-1.00643921,0.427246,0.000000,0.061035
5454497666,0.00277710,0.00721741,-1.00679016,0.366211,0.122070,-0.061035
5459504833,0.00289917,0.00692749,-1.00679016,0.305176,0.122070,-0.061035
5464515958,0.00262451,0.00688171,-1.00668335,0.366211,0.061035,0.000000
5469506958,0.00192261,0.00688171,-1.00659180,0.366211,0.061035,0.000000
5474557791,0.00187683,0.00662231,-1.00653076,0.061035,-0.061035,-0.061035
5479538541,0.00268555,0.00665283,-1.00666809,0.305176,-0.061035,-0.061035
5484546458,0.00300598,0.00737000,-1.00685120,0.305176,0.000000,-0.183105
5489516625,0.00239563,0.00796509,-1.00672913,0.244141,0.061035,-0.122070
5494521416,0.00173950,0.00769043,-1.00628662,0.305176,0.122070,-0.061035
5499517708,0.00166321,0.00700378,-1.00579834,0.427246,0.000000,0.000000
5504505916,0.00180054,0.00651550,-1.00555420,0.366211,-0.061035,-0.122070
5509569375,0.00166321,0.00631714,-1.00593567,0.427246,0.061035,0.061035
5514532833,0.00152588,0.00645447,-1.00679016,0.366211,-0.061035,-0.122070
5519576541,0.00180054,0.00688171,-1.00706482,0.305176,0.000000,-0.061035
5524509791,0.00247192,0.00753784,-1.00636292,0.366211,0.061035,-0.061035
5529534375,0.00312805,0.00801086,-1.00582886,0.305176,0.061035,-0.122070
5534502000,0.00347900,0.00772095,-1.00588989,0.427246,0.122070,-0.061035
5539545416,0.00357056,0.00679016,-1.00610352,0.366211,0.061035,-0.061035
5544557500,0.00332642,0.00601196,-1.00630188,0.305176,0.061035,-0.183105
5549528750,0.00277710,0.00598145,-1.00646973,0.366211,-0.061035,-0.183105
5554573875,0.00239563,0.00619507,-1.00650024,0.183105,0.000000,-0.183105
5559532791,0.00234985,0.00590515,-1.00607300,0.183105,0.122070,-0.244141
5564527250,0.00241089,0.00549316,-1.00547791,0.183105,0.000000,0.000000
5569557125,0.00244141,0.00552368,-1.00538635,0.366211,0.183105,-0.061035
5574561958,0.00238037,0.00578308,-1.00610352,0.305176,0.061035,-0.061035
5579559333,0.00216675,0.00590515,-1.00688171,0.305176,-0.061035,-0.183105
5584510166,0.00192261,0.00584412,-1.00671387,0.366211,0.000000,-0.122070
5589550666,0.00161743,0.00567627,-1.00613403,0.305176,0.000000,0.061035
5594529166,0.00134277,0.00575256,-1.00607300,0.488281,0.000000,-0.122070
5599548250,0.00146484,0.00633240,-1.00616455,0.366211,0.000000,-0.061035
5604556916,0.00157166,0.00682068,-1.00608826,0.305176,-0.061035,-0.183105
5609578333,0.00125122,0.00675964,-1.00617981,0.305176,-0.061035,-0.122070
5614556000,0.00105286,0.00663757,-1.00633240,0.305176,0.061035,-0.061035
5619531750,0.00138855,0.00691223,-1.00628662,0.427246,0.000000,-0.061035
5624514500,0.00201416,0.00735474,-1.00601196,0.305176,0.000000,-0.061035
5629548916,0.00221252,0.00770569,-1.00593567,0.305176,0.061035,-0.183105
5634539041,0.00183105,0.00785828,-1.00617981,0.244141,0.061035,-0.061035
5639577333,0.00157166,0.00787354,-1.00625610,0.183105,0.000000,-0.061035
5644505500,0.00199890,0.00776672,-1.00607300,0.366211,0.122070,-0.061035
5649542625,0.00263977,0.00747681,-1.00614929,0.183105,0.061035,-0.061035
5654523208,0.00273132,0.00729370,-1.00656128,0.366211,0.122070,0.061035
5659549958,0.00245667,0.00743103,-1.00662231,0.305176,0.061035,-0.061035
5664526000,0.00225830,0.00782776,-1.00633240,0.366211,0.122070,-0.122070
5669569750,0.00193787,0.00781250,-1.00651550,0.366211,0.000000,-0.122070
5674553541,0.00169373,0.00723267,-1.00689697,0.305176,-0.061035,-0.061035
5679572875,0.00166321,0.00654602,-1.00703430,0.305176,0.061035,0.000000
5684545541,0.00146484,0.00611877,-1.00706482,0.427246,-0.061035,0.000000
5689544250,0.00114441,0.00627136,-1.00680542,0.305176,0.000000,-0.061035
5694548958,0.00117493,0.00680542,-1.00630188,0.366211,0.000000,-0.061035
5699557541,0.00138855,0.00692749,-1.00633240,0.427246,0.000000,-0.183105
5704587458,0.00157166,0.00653076,-1.00692749,0.427246,-0.122070,-0.061035
5709620708,0.00193787,0.00613403,-1.00711060,0.366211,-0.061035,-0.122070
5714548125,0.00259399,0.00595093,-1.00633240,0.427246,0.061035,-0.061035
5719558375,0.00317383,0.00616455,-1.00543213,0.427246,0.061035,-0.061035
5724541791,0.00328064,0.00660706,-1.00547791,0.366211,0.000000,-0.061035
5729534125,0.00288391,0.00674438,-1.00656128,0.305176,0.000000,-0.244141
5734545791,0.00245667,0.00653076,-1.00776672,0.244141,0.000000,-0.183105
5739587625,0.00234985,0.00636292,-1.00778198,0.244141,0.061035,-0.122070
5744561833,0.00234985,0.00636292,-1.00683594,0.427246,0.122070,-0.061035
5749566416,0.00218201,0.00672913,-1.00610352,0.366211,0.122070,-0.122070
5754574750,0.00193787,0.00741577,-1.00582886,0.305176,0.061035,-0.122070
5759566166,0.00166321,0.00781250,-1.00572205,0.366211,0.061035,-0.061035
5764545791,0.00129700,0.00772095,-1.00590515,0.305176,-0.122070,-0.122070
5769582458,0.00100708,0.00737000,-1.00646973,0.366211,0.000000,-0.122070
5774561041,0.00099182,0.00697327,-1.00691223,0.366211,0.122070,-0.061035
5779567916,0.00086975,0.00680542,-1.00712585,0.366211,-0.061035,-0.122070
5784596041,0.00074768,0.00683594,-1.00708008,0.305176,0.000000,-0.061035
5789558916,0.00102234,0.00692749,-1.00671387,0.427246,0.122070,-0.061035
5794540166,0.00144958,0.00723267,-1.00625610,0.366211,0.061035,-0.122070
5799569666,0.00158691,0.00755310,-1.00602722,0.244141,0.000000,-0.122070
5804587625,0.00151062,0.00727844,-1.00628662,0.427246,0.122070,-0.061035
5809608250,0.00144958,0.00653076,-1.00665283,0.427246,0.061035,-0.244141
5814630916,0.00163269,0.00613403,-1.00672913,0.183105,0.000000,-0.183105
5819564125,0.00216675,0.00651550,-1.00599670,0.244141,0.000000,0.000000
5824549500,0.00285339,0.00714111,-1.00495911,0.244141,0.061035,-0.061035
5829560875,0.00337219,0.00741577,-1.00491333,0.305176,-0.122070,0.000000
5834538708,0.00344849,0.00744629,-1.00527954,0.244141,0.061035,-0.183105
5839594625,0.00326538,0.00740051,-1.00532532,0.366211,0.122070,-0.061035
5844548583,0.00315857,0.00714111,-1.00564575,0.244141,0.000000,-0.061035
5849609625,0.00305176,0.00680542,-1.00628662,0.427246,0.061035,0.000000
5854550416,0.00306702,0.00660706,-1.00666809,0.183105,0.061035,-0.122070
5859573375,0.00311279,0.00621033,-1.00642395,0.366211,0.061035,0.000000
5864565583,0.00270081,0.00564575,-1.00611877,0.244141,0.000000,-0.122070
5869606000,0.00198364,0.00538635,-1.00624084,0.244141,0.061035,-0.061035
5874574000,0.00152588,0.00566101,-1.00625610,0.366211,0.000000,-0.122070
5879606291,0.00157166,0.00613403,-1.00599670,0.305176,0.122070,-0.061035
5884558208,0.00186157,0.00648499,-1.00588989,0.183105,0.183105,0.000000
5889569166,0.00198364,0.00656128,-1.00607300,0.122070,0.000000,-0.183105
5894552333,0.00183105,0.00628662,-1.00602722,0.305176,0.122070,-0.183105
5899585916,0.00167847,0.00605774,-1.00534058,0.183105,0.000000,-0.122070
5904607416,0.00198364,0.00643921,-1.00448608,0.244141,0.000000,-0.122070
5909599291,0.00230408,0.00737000,-1.00447083,0.488281,0.000000,-0.061035
5914584041,0.00201416,0.00814819,-1.00535583,0.244141,0.061035,-0.122070
5919618750,0.00158691,0.00822449,-1.00621033,0.305176,0.122070,-0.183105
5924572125,0.00158691,0.00794983,-1.00665283,0.305176,0.183105,-0.061035
5929586833,0.00161743,0.00794983,-1.00688171,0.427246,-0.061035,0.000000
5934554291,0.00155640,0.00817871,-1.00691223,0.305176,0.122070,0.000000
5939613125,0.00192261,0.00825500,-1.00672913,0.244141,-0.061035,-0.183105
5944600375,0.00221252,0.00834656,-1.00646973,0.366211,0.061035,-0.183105
5949586708,0.00177002,0.00860596,-1.00653076,0.244141,0.061035,0.000000
5954568166,0.00109863,0.00863647,-1.00685120,0.305176,0.061035,0.000000
5959587041,0.00100708,0.00817871,-1.00677490,0.305176,0.000000,-0.183105
5964573583,0.00154114,0.00756836,-1.00619507,0.305176,0.061035,-0.061035
5969592416,0.00219727,0.00738525,-1.00581360,0.488281,0.122070,-0.061035
5974561083,0.00248718,0.00756836,-1.00581360,0.183105,0.061035,-0.122070
5979621916,0.00230408,0.00743103,-1.00590515,0.366211,0.122070,-0.244141
5984617125,0.00209045,0.00665283,-1.00584412,0.488281,0.122070,-0.183105
5989577333,0.00221252,0.00584412,-1.00592041,0.305176,-0.061035,-0.122070
5994582541,0.00251770,0.00596619,-1.00608826,0.305176,-0.061035,-0.061035
5999590416,0.00289917,0.00648499,-1.00613403,0.305176,0.061035,-0.122070
6004635750,0.00315857,0.00637817,-1.00636292,0.366211,0.000000,-0.122070
6009613000,0.00280762,0.00595093,-1.00683594,0.366211,0.061035,-0.183105
6014602041,0.00210571,0.00598145,-1.00723267,0.305176,0.000000,-0.061035
6019605125,0.00199890,0.00625610,-1.00714111,0.305176,0.061035,0.000000
6024589750,0.00253296,0.00625610,-1.00650024,0.305176,-0.061035,-0.244141
6029598541,0.00296021,0.00610352,-1.00613403,0.305176,0.000000,-0.122070
6034588916,0.00294495,0.00624084,-1.00636292,0.366211,0.122070,-0.183105
6039621416,0.00247192,0.00640869,-1.00637817,0.244141,0.122070,-0.061035
6044587875,0.00172424,0.00645447,-1.00585938,0.366211,0.061035,-0.122070
6049597166,0.00109863,0.00668335,-1.00564575,0.366211,0.000000,-0.122070
6054613708,0.00074768,0.00698853,-1.00590515,0.244141,0.183105,-0.183105
6059594541,0.00079346,0.00709534,-1.00604248,0.427246,0.122070,-0.122070
6064592583,0.00120544,0.00703430,-1.00614929,0.305176,0.061035,0.000000
6069627166,0.00167847,0.00692749,-1.00669861,0.122070,0.061035,0.000000
6074658125,0.00195312,0.00711060,-1.00718689,0.244141,-0.061035,-0.122070
6079622958,0.00199890,0.00756836,-1.00698853,0.305176,0.000000,0.000000
6084610250,0.00201416,0.00802612,-1.00640869,0.366211,0.061035,0.000000
6089613750,0.00219727,0.00839233,-1.00598145,0.366211,0.061035,-0.183105
6094585958,0.00250244,0.00854492,-1.00599670,0.305176,-0.122070,-0.122070
6099612166,0.00273132,0.00822449,-1.00607300,0.427246,0.061035,0.061035
6104605583,0.00257874,0.00762939,-1.00581360,0.366211,0.061035,-0.061035
6109628791,0.00244141,0.00749207,-1.00570679,0.366211,0.061035,0.000000
6114622208,0.00288391,0.00785828,-1.00619507,0.183105,0.122070,-0.122070
6119616916,0.00325012,0.00784302,-1.00692749,0.305176,0.061035,0.000000
6124589458,0.00312805,0.00724792,-1.00724792,0.366211,0.061035,-0.122070
6129613541,0.00291443,0.00671387,-1.00677490,0.244141,0.000000,-0.122070
6134598500,0.00286865,0.00640869,-1.00616455,0.183105,0.061035,-0.122070
6139651208,0.00289917,0.00636292,-1.00634766,0.305176,0.061035,-0.122070
6144602166,0.00292969,0.00651550,-1.00685120,0.305176,0.000000,-0.061035
6149613666,0.00292969,0.00651550,-1.00662231,0.244141,0.061035,-0.122070
6154606333,0.00288391,0.00651550,-1.00584412,0.244141,-0.061035,-0.061035
6159615916,0.00267029,0.00666809,-1.00534058,0.427246,0.000000,-0.061035
6164609000,0.00234985,0.00663757,-1.00555420,0.305176,-0.061035,-0.061035
6169615625,0.00253296,0.00648499,-1.00611877,0.244141,0.122070,-0.061035
6174614583,0.00311279,0.00666809,-1.00643921,0.244141,-0.061035,-0.244141
6179686541,0.00320435,0.00726318,-1.00636292,0.305176,-0.061035,-0.122070
6184626125,0.00279236,0.00787354,-1.00596619,0.427246,0.122070,0.000000
6189630416,0.00263977,0.00807190,-1.00553894,0.366211,0.061035,-0.061035
6194607791,0.00270081,0.00778198,-1.00558472,0.427246,-0.061035,-0.122070
6199618416,0.00233459,0.00737000,-1.00617981,0.427246,0.183105,-0.122070
6204635833,0.00160217,0.00703430,-1.00666809,0.366211,0.000000,-0.061035
6209642750,0.00109863,0.00683594,-1.00682068,0.305176,0.122070,0.000000
6214622666,0.00128174,0.00680542,-1.00701904,0.244141,0.000000,-0.061035
6219609750,0.00175476,0.00703430,-1.00720215,0.366211,0.061035,0.061035
6224592083,0.00184631,0.00749207,-1.00701904,0.305176,0.183105,0.122070
6229610666,0.00173950,0.00793457,-1.00677490,0.366211,0.061035,-0.061035
6234602166,0.00210571,0.00796509,-1.00703430,0.305176,0.061035,-0.061035
6239632708,0.00280762,0.00747681,-1.00753784,0.183105,0.061035,-0.061035
6244626083,0.00314331,0.00697327,-1.00747681,0.305176,0.000000,-0.061035
6249612125,0.00276184,0.00717163,-1.00683594,0.244141,0.061035,-0.061035
6254607500,0.00224304,0.00782776,-1.00621033,0.427246,0.122070,-0.122070
6259618541,0.00227356,0.00790405,-1.00587463,0.305176,0.061035,-0.061035
6264619958,0.00273132,0.00732422,-1.00595093,0.305176,0.000000,-0.061035
6269650916,0.00292969,0.00701904,-1.00617981,0.366211,0.000000,-0.244141
6274619166,0.00294495,0.00700378,-1.00645447,0.366211,0.000000,-0.122070
6279662458,0.00314331,0.00672913,-1.00709534,0.305176,0.000000,0.000000
6284684625,0.00314331,0.00619507,-1.00730896,0.244141,0.061035,-0.244141
6289642333,0.00262451,0.00582886,-1.00668335,0.366211,0.000000,-0.061035
6294616291,0.00204468,0.00585938,-1.00633240,0.366211,0.000000,-0.183105
6299645291,0.00196838,0.00621033,-1.00671387,0.366211,0.000000,-0.122070
6304678208,0.00222778,0.00662231,-1.00708008,0.244141,-0.061035,-0.061035
6309669416,0.00221252,0.00682068,-1.00708008,0.427246,0.183105,0.000000
6314640250,0.00199890,0.00669861,-1.00679016,0.366211,0.122070,-0.122070
6319635291,0.00190735,0.00654602,-1.00646973,0.488281,0.061035,-0.183105
6324609958,0.00202942,0.00636292,-1.00645447,0.244141,0.122070,-0.122070
6329637666,0.00241089,0.00613403,-1.00662231,0.427246,0.000000,-0.122070
6334621750,0.00280762,0.00613403,-1.00656128,0.366211,0.122070,-0.122070
6339632916,0.00277710,0.00630188,-1.00639343,0.488281,0.000000,-0.061035
6344644916,0.00233459,0.00651550,-1.00645447,0.366211,0.000000,-0.061035
6349644833,0.00173950,0.00683594,-1.00660706,0.366211,0.061035,-0.061035
6354628500,0.00149536,0.00729370,-1.00660706,0.183105,0.000000,-0.122070
6359633166,0.00170898,0.00741577,-1.00663757,0.427246,0.000000,-0.183105
6364638791,0.00195312,0.00694275,-1.00648499,0.305176,0.122070,0.061035
6369652041,0.00198364,0.00671387,-1.00616455,0.183105,-0.061035,-0.122070
6374650500,0.00181580,0.00717163,-1.00624084,0.244141,0.122070,-0.122070
6379678375,0.00160217,0.00729370,-1.00650024,0.305176,0.000000,-0.122070
6384647416,0.00167847,0.00674438,-1.00604248,0.305176,0.000000,0.061035
6389670916,0.00189209,0.00633240,-1.00527954,0.366211,0.122070,-0.061035
6394638458,0.00204468,0.00648499,-1.00543213,0.366211,0.000000,-0.122070
6399648333,0.00222778,0.00685120,-1.00645447,0.427246,0.122070,-0.122070
6404642291,0.00231934,0.00720215,-1.00691223,0.366211,0.122070,-0.122070
6409644250,0.00224304,0.00758362,-1.00622559,0.305176,0.000000,-0.122070
6414657458,0.00247192,0.00772095,-1.00543213,0.244141,0.000000,-0.122070
6419645041,0.00302124,0.00750732,-1.00521851,0.366211,0.000000,-0.122070
6424621000,0.00317383,0.00715637,-1.00532532,0.427246,0.122070,-0.061035
6429644333,0.00286865,0.00688171,-1.00543213,0.366211,0.061035,-0.122070
6434633958,0.00265503,0.00683594,-1.00569153,0.366211,0.061035,-0.122070
6439652375,0.00268555,0.00706482,-1.00621033,0.366211,-0.061035,-0.183105
6444635416,0.00273132,0.00729370,-1.00666809,0.305176,0.122070,-0.183105
6449659083,0.00241089,0.00726318,-1.00666809,0.366211,0.122070,0.000000
6454633125,0.00201416,0.00698853,-1.00625610,0.366211,0.061035,0.000000
6459644083,0.00204468,0.00663757,-1.00578308,0.244141,0.122070,-0.122070
6464645958,0.00259399,0.00630188,-1.00538635,0.366211,0.061035,-0.122070
6469649916,0.00285339,0.00631714,-1.00564575,0.488281,0.000000,-0.122070
6474642958,0.00245667,0.00656128,-1.00645447,0.305176,0.000000,-0.061035
6479689250,0.00233459,0.00643921,-1.00660706,0.244141,0.122070,-0.061035
6484672916,0.00283813,0.00625610,-1.00596619,0.305176,0.000000,-0.122070
6489665875,0.00334167,0.00662231,-1.00563049,0.366211,0.000000,-0.122070
6494643541,0.00334167,0.00732422,-1.00593567,0.366211,-0.061035,-0.122070
6499657833,0.00285339,0.00779724,-1.00631714,0.366211,-0.061035,-0.061035
6504675083,0.00238037,0.00788879,-1.00663757,0.366211,0.061035,-0.061035
6509687791,0.00213623,0.00781250,-1.00697327,0.427246,-0.061035,-0.122070
6514675166,0.00227356,0.00764465,-1.00685120,0.488281,0.000000,-0.061035
6519654958,0.00256348,0.00740051,-1.00630188,0.305176,0.061035,-0.061035
6524632625,0.00257874,0.00721741,-1.00605774,0.305176,0.061035,0.000000
6529667125,0.00231934,0.00701904,-1.00640869,0.488281,-0.061035,-0.061035
6534661083,0.00207520,0.00689697,-1.00682068,0.427246,0.000000,0.061035
6539710625,0.00218201,0.00714111,-1.00689697,0.366211,0.000000,-0.122070
6544716750,0.00224304,0.00750732,-1.00666809,0.366211,0.000000,0.000000
6549690458,0.00173950,0.00753784,-1.00657654,0.366211,-0.122070,-0.122070
6554642625,0.00129700,0.00735474,-1.00665283,0.366211,0.000000,-0.061035
6559652375,0.00132751,0.00717163,-1.00665283,0.244141,0.000000,-0.061035
6564650000,0.00138855,0.00695801,-1.00671387,0.305176,0.000000,0.000000
6569686000,0.00143433,0.00686646,-1.00682068,0.244141,0.000000,-0.061035
6574644291,0.00173950,0.00698853,-1.00680542,0.366211,0.061035,-0.122070
6579681666,0.00233459,0.00698853,-1.00630188,0.366211,-0.061035,-0.183105
6584646208,0.00286865,0.00660706,-1.00552368,0.305176,0.000000,-0.061035
6589654666,0.00325012,0.00624084,-1.00573730,0.366211,0.183105,-0.061035
6594667541,0.00395203,0.00636292,-1.00659180,0.305176,0.000000,0.000000
6599689458,0.00459290,0.00651550,-1.00633240,0.244141,-0.122070,-0.061035
6604687041,0.00425720,0.00642395,-1.00566101,0.427246,0.122070,-0.122070
6609705666,0.00335693,0.00637817,-1.00569153,0.366211,-0.061035,-0.183105
6614699583,0.00300598,0.00656128,-1.00604248,0.366211,0.122070,-0.061035
6619684708,0.00292969,0.00666809,-1.00674438,0.427246,0.122070,0.000000
6624650500,0.00234985,0.00669861,-1.00738525,0.305176,-0.061035,-0.183105
6629670458,0.00160217,0.00711060,-1.00714111,0.183105,-0.122070,-0.122070
6634684000,0.00123596,0.00769043,-1.00650024,0.305176,0.061035,-0.183105
6639716666,0.00126648,0.00804138,-1.00628662,0.366211,0.061035,0.061035
6644685958,0.00169373,0.00823975,-1.00659180,0.305176,-0.061035,-0.061035
6649721666,0.00193787,0.00831604,-1.00680542,0.427246,0.000000,0.000000
6654650041,0.00158691,0.00830078,-1.00654602,0.366211,0.061035,-0.122070
6659668458,0.00137329,0.00836182,-1.00651550,0.244141,-0.061035,-0.061035
6664672125,0.00166321,0.00843811,-1.00694275,0.488281,0.183105,-0.061035
6669683291,0.00195312,0.00817871,-1.00711060,0.305176,0.000000,-0.061035
6674672541,0.00187683,0.00765991,-1.00659180,0.305176,0.061035,-0.122070
6679671208,0.00158691,0.00741577,-1.00578308,0.305176,0.183105,-0.061035
6684709916,0.00154114,0.00775146,-1.00532532,0.366211,0.000000,-0.061035
6689684833,0.00201416,0.00810242,-1.00549316,0.305176,0.122070,-0.122070
6694662041,0.00280762,0.00779724,-1.00614929,0.366211,0.183105,-0.122070
6699688125,0.00279236,0.00701904,-1.00662231,0.305176,-0.061035,-0.061035
6704721791,0.00201416,0.00630188,-1.00639343,0.427246,0.122070,-0.061035
6709698625,0.00196838,0.00619507,-1.00595093,0.427246,0.122070,0.000000
6714713166,0.00294495,0.00662231,-1.00616455,0.244141,0.061035,-0.061035
6719686958,0.00360107,0.00659180,-1.00663757,0.305176,0.122070,0.000000
6724660750,0.00321960,0.00601196,-1.00663757,0.305176,0.122070,0.000000
6729687750,0.00276184,0.00570679,-1.00631714,0.244141,-0.061035,-0.122070
6734674916,0.00270081,0.00616455,-1.00599670,0.305176,0.061035,-0.122070
6739717083,0.00262451,0.00660706,-1.00588989,0.427246,-0.061035,-0.122070
6744701708,0.00242615,0.00637817,-1.00616455,0.305176,0.122070,-0.122070
6749690000,0.00250244,0.00619507,-1.00659180,0.305176,0.061035,-0.122070
6754708416,0.00279236,0.00650024,-1.00660706,0.183105,0.000000,-0.122070
6759693416,0.00289917,0.00686646,-1.00616455,0.305176,0.061035,-0.061035
6764691083,0.00283813,0.00718689,-1.00581360,0.366211,0.061035,-0.122070
6769710416,0.00282288,0.00759888,-1.00566101,0.366211,0.061035,-0.183105
6774681625,0.00259399,0.00784302,-1.00575256,0.122070,0.061035,-0.122070
6779732166,0.00202942,0.00794983,-1.00611877,0.183105,-0.061035,-0.183105
6784713000,0.00172424,0.00813293,-1.00659180,0.366211,0.122070,-0.061035
6789690291,0.00177002,0.00834656,-1.00712585,0.244141,0.183105,-0.122070
6794679583,0.00163269,0.00857544,-1.00738525,0.244141,0.061035,-0.122070
6799689125,0.00123596,0.00846863,-1.00704956,0.427246,0.122070,-0.061035
6804747166,0.00094604,0.00759888,-1.00631714,0.244141,0.000000,-0.122070
6809727250,0.00086975,0.00668335,-1.00588989,0.366211,0.061035,-0.061035
6814704541,0.00073242,0.00665283,-1.00616455,0.305176,0.000000,-0.061035
6819758500,0.00036621,0.00730896,-1.00672913,0.244141,0.000000,-0.061035
6824696333,0.00028992,0.00775146,-1.00715637,0.366211,0.122070,0.000000
6829700375,0.00103760,0.00738525,-1.00709534,0.305176,0.061035,-0.061035
6834676875,0.00207520,0.00654602,-1.00657654,0.366211,0.122070,-0.061035
6839720916,0.00257874,0.00634766,-1.00596619,0.366211,0.000000,-0.061035
6844713458,0.00254822,0.00703430,-1.00569153,0.305176,0.000000,-0.122070
6849696791,0.00251770,0.00752258,-1.00596619,0.366211,0.061035,-0.183105
6854681041,0.00296021,0.00726318,-1.00627136,0.244141,0.000000,-0.061035
6859698958,0.00364685,0.00703430,-1.00631714,0.305176,0.061035,0.000000
6864685541,0.00386047,0.00747681,-1.00619507,0.366211,0.000000,-0.122070
6869719708,0.00363159,0.00802612,-1.00602722,0.427246,0.061035,-0.061035
6874698250,0.00373840,0.00782776,-1.00595093,0.305176,0.122070,-0.061035
6879723958,0.00424194,0.00712585,-1.00622559,0.244141,0.061035,-0.122070
6884699416,0.00448608,0.00685120,-1.00679016,0.305176,0.061035,-0.122070
6889715375,0.00422668,0.00711060,-1.00691223,0.427246,0.183105,-0.061035
6894704375,0.00343323,0.00732422,-1.00633240,0.183105,0.122070,-0.061035
6899712875,0.00257874,0.00721741,-1.00576782,0.244141,0.122070,-0.122070
6904721500,0.00215149,0.00695801,-1.00569153,0.183105,0.061035,-0.122070
6909764250,0.00216675,0.00697327,-1.00592041,0.244141,0.000000,0.061035
6914698500,0.00218201,0.00706482,-1.00625610,0.427246,-0.061035,-0.061035
6919720708,0.00180054,0.00659180,-1.00650024,0.366211,0.000000,-0.122070
6924699666,0.00138855,0.00578308,-1.00611877,0.366211,-0.061035,-0.122070
6929716166,0.00128174,0.00537109,-1.00538635,0.427246,-0.061035,0.061035
6934713166,0.00115967,0.00581360,-1.00556946,0.183105,0.122070,-0.061035
6939737041,0.00099182,0.00671387,-1.00633240,0.244141,0.061035,-0.061035
6944717541,0.00079346,0.00729370,-1.00669861,0.183105,-0.061035,-0.122070
6949716583,0.00064087,0.00723267,-1.00701904,0.244141,0.000000,0.000000
6954695750,0.00103760,0.00692749,-1.00755310,0.183105,-0.122070,0.061035
6959724625,0.00213623,0.00695801,-1.00767517,0.305176,0.122070,-0.122070
6964710875,0.00309753,0.00720215,-1.00703430,0.305176,0.000000,-0.061035
6969720416,0.00346375,0.00721741,-1.00619507,0.427246,0.183105,0.061035
6974701791,0.00354004,0.00704956,-1.00578308,0.305176,0.000000,-0.061035
6979715500,0.00381470,0.00704956,-1.00576782,0.305176,-0.061035,0.061035
6984716458,0.00415039,0.00692749,-1.00576782,0.427246,0.000000,-0.122070
6989736125,0.00401306,0.00657654,-1.00559998,0.488281,0.000000,-0.061035
6994723000,0.00328064,0.00660706,-1.00567627,0.305176,-0.061035,-0.061035
6999801208,0.00238037,0.00723267,-1.00611877,0.366211,0.000000,-0.061035
7004757250,0.00175476,0.00779724,-1.00639343,0.366211,0.000000,-0.183105
7009725208,0.00161743,0.00782776,-1.00634766,0.122070,0.183105,-0.122070
7014863958,0.00207520,0.00750732,-1.00627136,0.366211,0.122070,-0.061035
7019746916,0.00262451,0.00727844,-1.00631714,0.366211,0.061035,-0.122070
7024731875,0.00225830,0.00724792,-1.00624084,0.244141,0.000000,0.000000
7029831916,0.00114441,0.00711060,-1.00602722,0.488281,0.000000,-0.122070
7034740125,0.00056458,0.00668335,-1.00601196,0.244141,0.000000,-0.061035
7039740541,0.00091553,0.00651550,-1.00607300,0.305176,0.000000,-0.061035
7044808041,0.00157166,0.00689697,-1.00593567,0.244141,-0.061035,-0.183105
7049723333,0.00198364,0.00721741,-1.00578308,0.366211,0.122070,-0.122070
7054798458,0.00196838,0.00720215,-1.00607300,0.305176,0.061035,0.061035
7059749958,0.00169373,0.00735474,-1.00665283,0.366211,0.122070,-0.122070
7064735666,0.00146484,0.00755310,-1.00694275,0.305176,0.061035,-0.061035
7069822333,0.00166321,0.00740051,-1.00671387,0.305176,0.061035,-0.061035
7074740916,0.00233459,0.00749207,-1.00604248,0.305176,0.000000,-0.122070
7079729875,0.00276184,0.00828552,-1.00543213,0.488281,0.061035,-0.122070
7084743375,0.00251770,0.00877380,-1.00543213,0.366211,-0.061035,-0.183105
7089820125,0.00207520,0.00822449,-1.00590515,0.366211,-0.122070,-0.122070
7094729541,0.00218201,0.00743103,-1.00636292,0.305176,0.000000,-0.122070
7099745458,0.00285339,0.00712585,-1.00643921,0.305176,0.061035,-0.122070
7104746958,0.00343323,0.00714111,-1.00634766,0.061035,0.061035,-0.122070
7109752458,0.00366211,0.00726318,-1.00660706,0.366211,0.183105,-0.122070
7114724833,0.00369263,0.00701904,-1.00708008,0.305176,0.061035,-0.183105
7119957250,0.00328064,0.00630188,-1.00718689,0.305176,-0.061035,0.000000
7124823375,0.00251770,0.00582886,-1.00657654,0.427246,0.061035,-0.061035
7129804416,0.00195312,0.00578308,-1.00572205,0.183105,0.061035,-0.061035
7134780125,0.00183105,0.00590515,-1.00529480,0.366211,0.000000,-0.183105
7139742208,0.00192261,0.00611877,-1.00543213,0.366211,-0.122070,-0.061035
7144750416,0.00210571,0.00627136,-1.00579834,0.427246,0.061035,0.122070
7149744916,0.00230408,0.00608826,-1.00613403,0.305176,0.000000,-0.061035
7154772000,0.00221252,0.00584412,-1.00636292,0.305176,0.061035,-0.183105
7159822083,0.00177002,0.00605774,-1.00648499,0.488281,0.061035,0.000000
7164743333,0.00146484,0.00657654,-1.00625610,0.244141,0.000000,0.061035
7169891458,0.00167847,0.00689697,-1.00563049,0.305176,-0.061035,-0.061035
7174783041,0.00219727,0.00692749,-1.00553894,0.244141,0.122070,-0.061035
7179758000,0.00256348,0.00712585,-1.00588989,0.366211,0.061035,-0.122070
7184743875,0.00285339,0.00756836,-1.00581360,0.366211,0.183105,-0.061035
7189756458,0.00323486,0.00779724,-1.00553894,0.488281,0.122070,0.000000
7194749541,0.00338745,0.00762939,-1.00546265,0.366211,0.061035,-0.122070
7199762375,0.00329590,0.00762939,-1.00517273,0.366211,0.061035,-0.122070
7204755583,0.00292969,0.00801086,-1.00485229,0.366211,0.000000,-0.061035
7209749500,0.00218201,0.00831604,-1.00581360,0.244141,0.061035,-0.061035
7214753125,0.00157166,0.00830078,-1.00776672,0.305176,0.122070,-0.061035
7219760500,0.00172424,0.00794983,-1.00874329,0.244141,0.000000,-0.122070
7224837875,0.00224304,0.00756836,-1.00827026,0.244141,0.061035,-0.183105
7229838250,0.00231934,0.00756836,-1.00724792,0.244141,0.122070,-0.183105
7234815083,0.00175476,0.00775146,-1.00614929,0.244141,0.000000,-0.061035
7239796625,0.00111389,0.00784302,-1.00570679,0.366211,0.000000,-0.061035
7244784916,0.00105286,0.00796509,-1.00616455,0.122070,0.000000,0.000000
7249767166,0.00155640,0.00817871,-1.00653076,0.244141,0.000000,0.000000
7254840416,0.00192261,0.00825500,-1.00633240,0.061035,0.122070,-0.061035
7259802166,0.00175476,0.00801086,-1.00625610,0.305176,0.061035,-0.122070
7264781791,0.00134277,0.00775146,-1.00656128,0.183105,0.122070,0.000000
7269812458,0.00103760,0.00799561,-1.00672913,0.183105,0.061035,0.000000
7274773708,0.00117493,0.00813293,-1.00639343,0.183105,0.122070,-0.061035
7279749833,0.00172424,0.00769043,-1.00599670,0.366211,0.000000,0.000000
7284837458,0.00216675,0.00724792,-1.00619507,0.183105,0.122070,0.000000
7289813041,0.00247192,0.00700378,-1.00666809,0.305176,0.061035,-0.061035
7294788791,0.00289917,0.00680542,-1.00668335,0.305176,0.000000,-0.122070
7299811416,0.00337219,0.00653076,-1.00624084,0.366211,0.122070,0.000000
7304819708,0.00363159,0.00642395,-1.00604248,0.244141,-0.061035,-0.061035
7309773875,0.00341797,0.00662231,-1.00610352,0.244141,0.061035,-0.061035
7314813958,0.00296021,0.00682068,-1.00598145,0.244141,-0.061035,-0.122070
7319795750,0.00271606,0.00686646,-1.00621033,0.244141,0.061035,-0.061035
7325008833,0.00271606,0.00688171,-1.00657654,0.305176,-0.061035,0.000000
7329961916,0.00259399,0.00706482,-1.00642395,0.244141,0.122070,-0.061035
7334849416,0.00244141,0.00717163,-1.00599670,0.183105,-0.061035,-0.061035
7339800666,0.00230408,0.00708008,-1.00579834,0.305176,0.122070,-0.061035
7344768000,0.00175476,0.00691223,-1.00588989,0.366211,0.000000,-0.122070
7349800416,0.00093079,0.00682068,-1.00634766,0.244141,0.122070,-0.183105
7354884458,0.00057983,0.00686646,-1.00688171,0.244141,-0.061035,-0.183105
7359799750,0.00041199,0.00694275,-1.00662231,0.183105,0.061035,-0.061035
7364791958,0.00000000,0.00692749,-1.00561523,0.305176,0.061035,-0.061035
7369807041,-0.00038147,0.00709534,-1.00521851,0.366211,0.061035,-0.061035
7374794291,-0.00036621,0.00733948,-1.00585938,0.305176,0.183105,-0.061035
7379778541,-0.00001526,0.00747681,-1.00627136,0.305176,0.061035,0.000000
7384771625,0.00051880,0.00791931,-1.00643921,0.488281,0.061035,-0.122070
7389834833,0.00132751,0.00848389,-1.00610352,0.183105,-0.122070,-0.244141
7394802958,0.00222778,0.00874329,-1.00566101,0.244141,0.061035,-0.122070
7399818416,0.00312805,0.00872803,-1.00613403,0.488281,0.061035,-0.122070
7404861208,0.00389099,0.00851440,-1.00671387,0.366211,0.061035,0.061035
7409775250,0.00444031,0.00827026,-1.00704956,0.305176,0.061035,-0.183105
7414780875,0.00465393,0.00794983,-1.00604248,0.366211,-0.061035,-0.061035
7419822083,0.00476074,0.00747681,-1.00465393,0.427246,-0.061035,-0.061035
7424836916,0.00471497,0.00700378,-1.00514221,0.366211,0.061035,-0.061035
7429836208,0.00445557,0.00645447,-1.00617981,0.488281,0.122070,-0.122070
7434797625,0.00402832,0.00585938,-1.00663757,0.427246,0.000000,0.000000
7439793791,0.00346375,0.00558472,-1.00682068,0.244141,-0.061035,-0.183105
7444767541,0.00297546,0.00567627,-1.00653076,0.305176,0.061035,-0.122070
7449782458,0.00260925,0.00559998,-1.00601196,0.305176,0.122070,-0.061035
7454768083,0.00193787,0.00535583,-1.00579834,0.366211,-0.061035,-0.183105
7459776875,0.00108337,0.00575256,-1.00558472,0.366211,0.061035,-0.183105
7464786416,0.00038147,0.00660706,-1.00549316,0.427246,0.061035,-0.061035
7469781041,0.00007629,0.00675964,-1.00634766,0.366211,-0.122070,-0.122070
7474760958,0.00038147,0.00627136,-1.00732422,0.366211,0.061035,-0.061035
7479786458,0.00100708,0.00636292,-1.00706482,0.305176,0.061035,-0.122070
7484799000,0.00120544,0.00715637,-1.00617981,0.366211,-0.061035,0.000000
7489791041,0.00112915,0.00762939,-1.00573730,0.183105,0.000000,-0.061035
7494776666,0.00091553,0.00756836,-1.00587463,0.366211,0.061035,-0.061035
7499791541,0.00061035,0.00762939,-1.00622559,0.244141,0.000000,0.000000
7504797541,0.00094604,0.00819397,-1.00656128,0.366211,0.122070,0.000000
7509794250,0.00195312,0.00894165,-1.00683594,0.305176,0.122070,-0.183105
7514779250,0.00282288,0.00918579,-1.00648499,0.427246,0.000000,-0.061035
7519799125,0.00308228,0.00871277,-1.00602722,0.427246,0.122070,-0.061035
7524780916,0.00299072,0.00784302,-1.00665283,0.366211,0.000000,0.000000
7529786541,0.00299072,0.00740051,-1.00787354,0.549316,0.061035,0.000000
7534861083,0.00309753,0.00750732,-1.00840759,0.488281,0.122070,-0.061035
7539791958,0.00274658,0.00733948,-1.00781250,0.183105,0.000000,-0.122070
7544787625,0.00195312,0.00663757,-1.00633240,0.305176,0.000000,-0.122070
7549780583,0.00167847,0.00627136,-1.00488281,0.427246,-0.061035,-0.061035
7554763041,0.00207520,0.00653076,-1.00473022,0.488281,-0.061035,-0.183105
7559796875,0.00233459,0.00659180,-1.00601196,0.366211,0.183105,-0.244141
7564770791,0.00219727,0.00614929,-1.00726318,0.488281,0.061035,-0.061035
7569821375,0.00218201,0.00587463,-1.00750732,0.305176,0.061035,-0.183105
7574783333,0.00236511,0.00634766,-1.00709534,0.244141,-0.061035,-0.061035
7579817625,0.00259399,0.00721741,-1.00631714,0.427246,0.000000,-0.061035
7584795791,0.00297546,0.00753784,-1.00543213,0.427246,0.000000,-0.122070
7589793083,0.00323486,0.00724792,-1.00517273,0.305176,0.122070,-0.061035
7594798375,0.00285339,0.00708008,-1.00575256,0.366211,0.122070,-0.061035
7599793791,0.00218201,0.00724792,-1.00628662,0.305176,0.061035,0.000000
7604817333,0.00216675,0.00753784,-1.00616455,0.366211,0.000000,-0.122070
7609810958,0.00238037,0.00767517,-1.00590515,0.305176,0.000000,0.000000
7614787208,0.00204468,0.00750732,-1.00621033,0.305176,0.061035,0.000000
7619814041,0.00161743,0.00723267,-1.00694275,0.549316,0.061035,-0.122070
7624794500,0.00172424,0.00714111,-1.00758362,0.427246,0.000000,-0.061035
7629804791,0.00219727,0.00718689,-1.00776672,0.488281,0.000000,-0.061035
7634812041,0.00271606,0.00706482,-1.00712585,0.122070,0.061035,-0.122070
7639871750,0.00291443,0.00685120,-1.00582886,0.427246,0.000000,-0.122070
7644805833,0.00241089,0.00668335,-1.00495911,0.549316,0.000000,0.061035
7649813916,0.00183105,0.00643921,-1.00541687,0.610352,0.061035,-0.061035
7654771166,0.00225830,0.00643921,-1.00642395,0.366211,0.000000,-0.061035
7659812958,0.00346375,0.00662231,-1.00614929,0.427246,-0.122070,-0.061035
7664795125,0.00402832,0.00653076,-1.00570679,0.305176,-0.061035,-0.183105
7669816958,0.00329590,0.00653076,-1.00656128,0.427246,0.122070,-0.122070
7674795291,0.00234985,0.00721741,-1.00706482,0.366211,0.122070,-0.061035
7679826083,0.00236511,0.00804138,-1.00650024,0.488281,-0.061035,-0.122070
7684818708,0.00297546,0.00813293,-1.00642395,0.488281,0.122070,-0.061035
7689814041,0.00320435,0.00767517,-1.00711060,0.366211,-0.061035,0.000000
7694812375,0.00289917,0.00758362,-1.00733948,0.366211,0.000000,-0.122070
7699807375,0.00250244,0.00782776,-1.00665283,0.427246,0.061035,-0.122070
7704844208,0.00248718,0.00770569,-1.00575256,0.488281,0.000000,-0.122070
7709838916,0.00294495,0.00750732,-1.00540161,0.488281,0.000000,-0.183105
7714816250,0.00363159,0.00762939,-1.00570679,0.305176,0.061035,-0.183105
7719826083,0.00410461,0.00779724,-1.00646973,0.427246,-0.061035,-0.061035
7724814625,0.00382996,0.00772095,-1.00735474,0.488281,0.061035,-0.061035
7729816833,0.00288391,0.00727844,-1.00756836,0.366211,-0.061035,-0.122070
7734793375,0.00227356,0.00683594,-1.00677490,0.366211,0.061035,0.000000
7739821916,0.00244141,0.00662231,-1.00601196,0.488281,-0.061035,0.000000
7744881875,0.00245667,0.00665283,-1.00593567,0.366211,0.000000,-0.061035
7749806625,0.00193787,0.00659180,-1.00605774,0.305176,-0.061035,-0.122070
7754835666,0.00186157,0.00630188,-1.00602722,0.366211,0.061035,-0.061035
7759825541,0.00222778,0.00582886,-1.00608826,0.366211,-0.061035,-0.122070
7764819333,0.00221252,0.00547791,-1.00613403,0.366211,-0.061035,0.000000
7769834625,0.00175476,0.00555420,-1.00619507,0.305176,0.061035,0.000000
7774806791,0.00160217,0.00584412,-1.00650024,0.366211,0.122070,-0.061035
7779831833,0.00173950,0.00613403,-1.00691223,0.366211,0.122070,-0.122070
7784827208,0.00157166,0.00614929,-1.00727844,0.305176,0.000000,-0.061035
7789828750,0.00112915,0.00604248,-1.00741577,0.305176,0.061035,0.000000
7794824125,0.00093079,0.00624084,-1.00692749,0.427246,0.000000,0.000000
7799849041,0.00125122,0.00683594,-1.00601196,0.427246,0.061035,-0.061035
7804815750,0.00172424,0.00752258,-1.00582886,0.305176,0.061035,-0.061035
7809824291,0.00170898,0.00785828,-1.00651550,0.366211,0.122070,0.000000
7814824458,0.00149536,0.00773621,-1.00683594,0.305176,0.061035,-0.061035
7819810708,0.00166321,0.00744629,-1.00625610,0.427246,0.122070,-0.061035
7824832708,0.00198364,0.00750732,-1.00563049,0.427246,0.061035,-0.122070
7829821375,0.00241089,0.00782776,-1.00569153,0.366211,0.061035,-0.122070
7834818291,0.00308228,0.00784302,-1.00598145,0.244141,0.122070,0.000000
7839855666,0.00361633,0.00762939,-1.00616455,0.305176,0.061035,-0.183105
7844836083,0.00364685,0.00775146,-1.00617981,0.366211,0.122070,-0.061035
7849860583,0.00344849,0.00791931,-1.00610352,0.305176,0.122070,-0.122070
7854822958,0.00332642,0.00769043,-1.00628662,0.366211,0.061035,0.000000
7859836625,0.00355530,0.00715637,-1.00642395,0.427246,0.122070,0.000000
7864832708,0.00433350,0.00680542,-1.00631714,0.488281,0.000000,-0.122070
7869885541,0.00498962,0.00694275,-1.00648499,0.305176,0.061035,-0.122070
7874854500,0.00445557,0.00723267,-1.00672913,0.366211,0.061035,-0.061035
7879880583,0.00317383,0.00727844,-1.00640869,0.366211,0.061035,-0.183105
7884865166,0.00225830,0.00695801,-1.00601196,0.305176,-0.061035,-0.061035
7889844916,0.00178528,0.00654602,-1.00610352,0.183105,0.000000,-0.244141
7894833625,0.00131226,0.00630188,-1.00640869,0.183105,0.122070,0.000000
7899846041,0.00115967,0.00640869,-1.00692749,0.244141,0.183105,-0.061035
7904848250,0.00146484,0.00700378,-1.00747681,0.427246,0.061035,-0.122070
7909847500,0.00144958,0.00762939,-1.00741577,0.366211,0.000000,-0.061035
7914846791,0.00091553,0.00767517,-1.00682068,0.366211,0.000000,-0.122070
7919855500,0.00076294,0.00733948,-1.00633240,0.305176,0.000000,-0.183105
7924835625,0.00123596,0.00749207,-1.00604248,0.244141,0.000000,0.061035
7929844416,0.00190735,0.00823975,-1.00553894,0.305176,0.000000,-0.122070
7934848000,0.00250244,0.00895691,-1.00546265,0.305176,0.061035,-0.122070
7939887791,0.00308228,0.00889587,-1.00645447,0.244141,0.061035,-0.061035
7944869666,0.00364685,0.00825500,-1.00744629,0.244141,0.000000,-0.183105
7949855291,0.00375366,0.00813293,-1.00769043,0.305176,0.000000,-0.122070
7954824875,0.00331116,0.00851440,-1.00770569,0.183105,0.061035,-0.122070
7959850708,0.00270081,0.00833130,-1.00764465,0.183105,-0.122070,-0.061035
7964827833,0.00219727,0.00761414,-1.00738525,0.427246,0.000000,-0.183105
7969882916,0.00190735,0.00709534,-1.00685120,0.366211,0.061035,0.061035
7974877416,0.00163269,0.00666809,-1.00604248,0.183105,0.000000,-0.061035
7979878291,0.00129700,0.00601196,-1.00543213,0.305176,-0.061035,-0.061035
7984834250,0.00131226,0.00550842,-1.00537109,0.366211,0.000000,-0.061035
7989851458,0.00183105,0.00547791,-1.00582886,0.305176,0.061035,-0.061035
7994843250,0.00253296,0.00549316,-1.00642395,0.305176,0.061035,-0.183105
7999865791,0.00308228,0.00559998,-1.00677490,0.366211,0.122070,-0.061035
8004919333,0.00315857,0.00593567,-1.00660706,0.305176,0.061035,-0.244141
8009879041,0.00241089,0.00602722,-1.00627136,0.305176,-0.122070,-0.183105
8014856166,0.00137329,0.00573730,-1.00633240,0.366211,0.061035,-0.122070
8019861791,0.00105286,0.00561523,-1.00637817,0.305176,0.000000,-0.183105
8024843000,0.00146484,0.00576782,-1.00569153,0.244141,0.061035,-0.061035
8029860166,0.00180054,0.00601196,-1.00462341,0.305176,-0.061035,-0.183105
8034841250,0.00151062,0.00616455,-1.00424194,0.244141,-0.122070,-0.061035
8039858333,0.00140381,0.00601196,-1.00512695,0.366211,0.000000,-0.061035
8044877583,0.00199890,0.00599670,-1.00631714,0.244141,0.061035,-0.061035
8049862583,0.00224304,0.00642395,-1.00679016,0.183105,-0.061035,-0.122070
8054886250,0.00212097,0.00682068,-1.00683594,0.183105,0.061035,-0.061035
8059867208,0.00248718,0.00677490,-1.00706482,0.366211,0.061035,-0.122070
8064857458,0.00273132,0.00653076,-1.00762939,0.244141,0.061035,0.000000
8069892625,0.00221252,0.00685120,-1.00776672,0.244141,0.000000,-0.061035
8074879625,0.00183105,0.00793457,-1.00704956,0.305176,0.000000,-0.122070
8079871625,0.00195312,0.00900269,-1.00633240,0.183105,0.000000,-0.061035
8084852375,0.00186157,0.00933838,-1.00587463,0.244141,-0.061035,-0.244141
8089872250,0.00140381,0.00933838,-1.00556946,0.244141,0.000000,-0.183105
8094862916,0.00137329,0.00953674,-1.00579834,0.366211,0.122070,0.061035
8099867833,0.00190735,0.00975037,-1.00651550,0.427246,-0.061035,-0.061035
8104927958,0.00215149,0.00979614,-1.00691223,0.366211,0.000000,-0.122070
8109897416,0.00190735,0.00970459,-1.00653076,0.427246,0.000000,0.000000
8114875708,0.00199890,0.00947571,-1.00622559,0.244141,0.000000,-0.061035
8119882500,0.00247192,0.00930786,-1.00643921,0.305176,0.061035,-0.122070
8124865041,0.00260925,0.00933838,-1.00631714,0.366211,0.061035,-0.122070
8129862708,0.00257874,0.00924683,-1.00572205,0.305176,-0.061035,-0.061035
8134938416,0.00271606,0.00862122,-1.00546265,0.305176,0.061035,0.000000
8139892791,0.00308228,0.00735474,-1.00553894,0.305176,0.061035,-0.122070
8144863833,0.00363159,0.00614929,-1.00540161,0.427246,0.122070,0.061035
8149910416,0.00387573,0.00584412,-1.00524902,0.305176,0.061035,-0.061035
8154889666,0.00347900,0.00616455,-1.00515747,0.244141,0.000000,-0.183105
8159888541,0.00291443,0.00607300,-1.00538635,0.305176,0.061035,-0.122070
8164843208,0.00268555,0.00572205,-1.00610352,0.183105,0.061035,-0.122070
8169895583,0.00300598,0.00584412,-1.00663757,0.366211,0.000000,0.000000
8174862833,0.00328064,0.00610352,-1.00700378,0.366211,0.122070,-0.061035
