timestamp_ns,accel_x,accel_y,accel_z,gyro_x,gyro_y,gyro_z
65041500,0.00288391,0.00822449,-1.00361633,0.244141,-0.122070,-0.183105
71737416,0.00254822,0.00825500,-1.00460815,0.305176,0.061035,-0.061035
75424375,0.00196838,0.00862122,-1.00767517,0.366211,0.061035,-0.122070
79709041,0.00122070,0.00903320,-1.00910950,0.366211,-0.061035,-0.122070
84712208,0.00061035,0.00880432,-1.00743103,0.366211,0.122070,-0.183105
90348125,0.00047302,0.00794983,-1.00436401,0.244141,-0.061035,0.122070
95560666,0.00083923,0.00744629,-1.00355530,0.366211,0.061035,-0.061035
99910791,0.00131226,0.00769043,-1.00584412,0.305176,0.000000,-0.183105
105810875,0.00158691,0.00782776,-1.00776672,0.244141,0.122070,-0.122070
119221833,0.00186157,0.00755310,-1.00700378,0.366211,0.122070,-0.061035
119226666,0.00225830,0.00746155,-1.00572205,0.366211,0.061035,0.000000
119721333,0.00248718,0.00762939,-1.00578308,0.366211,0.000000,-0.122070
124767416,0.00253296,0.00791931,-1.00590515,0.244141,0.000000,-0.244141
130717875,0.00270081,0.00820923,-1.00563049,0.366211,0.061035,-0.061035
135465375,0.00288391,0.00830078,-1.00588989,0.366211,-0.061035,-0.061035
140332166,0.00273132,0.00808716,-1.00669861,0.366211,0.061035,-0.183105
145751791,0.00202942,0.00765991,-1.00706482,0.305176,0.061035,-0.061035
149811333,0.00123596,0.00749207,-1.00682068,0.183105,0.122070,-0.183105
154716541,0.00100708,0.00782776,-1.00677490,0.244141,-0.061035,-0.061035
159980458,0.00137329,0.00827026,-1.00688171,0.305176,0.000000,-0.061035
164715333,0.00167847,0.00856018,-1.00648499,0.366211,0.122070,-0.122070
169704208,0.00173950,0.00860596,-1.00617981,0.305176,0.061035,-0.122070
174723166,0.00184631,0.00836182,-1.00698853,0.305176,0.122070,0.000000
179712750,0.00199890,0.00801086,-1.00808716,0.183105,0.061035,-0.122070
184704041,0.00201416,0.00790405,-1.00802612,0.305176,0.000000,0.000000
189734958,0.00202942,0.00842285,-1.00677490,0.488281,0.122070,0.000000
194723208,0.00224304,0.00920105,-1.00588989,0.244141,0.061035,-0.183105
199732875,0.00247192,0.00949097,-1.00634766,0.427246,0.061035,-0.122070
204723916,0.00247192,0.00917053,-1.00653076,0.488281,0.000000,-0.244141
209753958,0.00215149,0.00842285,-1.00511169,0.427246,0.000000,-0.122070
214730416,0.00166321,0.00755310,-1.00439453,0.549316,0.061035,-0.122070
219739291,0.00157166,0.00659180,-1.00590515,0.488281,0.183105,-0.061035
224730000,0.00221252,0.00578308,-1.00701904,0.549316,0.061035,-0.061035
229748500,0.00286865,0.00585938,-1.00619507,0.366211,0.061035,-0.183105
234742166,0.00288391,0.00648499,-1.00509644,0.244141,0.000000,-0.122070
239765666,0.00273132,0.00659180,-1.00535583,0.183105,0.000000,-0.122070
244732333,0.00263977,0.00596619,-1.00709534,0.366211,0.061035,-0.061035
249782083,0.00263977,0.00564575,-1.00906372,0.244141,0.122070,-0.183105
254760458,0.00267029,0.00654602,-1.00979614,0.305176,0.061035,-0.122070
259762375,0.00239563,0.00807190,-1.00869751,0.366211,0.122070,-0.122070
264757083,0.00190735,0.00897217,-1.00639343,0.244141,0.061035,-0.122070
269749833,0.00132751,0.00930786,-1.00457764,0.305176,0.000000,-0.122070
274758000,0.00061035,0.01004028,-1.00436401,0.366211,-0.061035,-0.061035
279777750,0.00004578,0.01116943,-1.00540161,0.366211,0.061035,0.000000
284761500,-0.00019836,0.01179504,-1.00646973,0.244141,0.122070,0.000000
289774125,-0.00036621,0.01161194,-1.00691223,0.427246,0.122070,0.000000
294736250,-0.00042725,0.01089478,-1.00674438,0.305176,0.061035,-0.183105
299754375,-0.00019836,0.01004028,-1.00627136,0.366211,0.000000,0.000000
304754041,0.00009155,0.00944519,-1.00578308,0.427246,0.061035,-0.061035
309760916,0.00013733,0.00918579,-1.00555420,0.305176,0.061035,-0.122070
314774208,0.00013733,0.00900269,-1.00582886,0.366211,0.000000,0.000000
319792125,0.00025940,0.00878906,-1.00610352,0.366211,0.061035,0.061035
324761125,0.00067139,0.00859070,-1.00607300,0.427246,0.122070,-0.122070
329758625,0.00154114,0.00857544,-1.00622559,0.366211,-0.122070,0.000000
334758833,0.00241089,0.00865173,-1.00648499,0.549316,0.061035,-0.061035
339758916,0.00305176,0.00831604,-1.00617981,0.305176,-0.061035,-0.183105
344753875,0.00361633,0.00749207,-1.00563049,0.427246,0.061035,-0.061035
349765708,0.00389099,0.00700378,-1.00523376,0.427246,0.122070,-0.061035
354778250,0.00381470,0.00691223,-1.00500488,0.427246,0.000000,-0.061035
359763083,0.00398254,0.00653076,-1.00515747,0.366211,0.122070,0.000000
364743375,0.00477600,0.00598145,-1.00561523,0.366211,0.061035,-0.061035
369856916,0.00543213,0.00575256,-1.00654602,0.244141,0.061035,-0.122070
374782916,0.00485229,0.00596619,-1.00772095,0.366211,-0.061035,-0.122070
379790458,0.00335693,0.00653076,-1.00825500,0.305176,-0.122070,-0.305176
384807583,0.00227356,0.00714111,-1.00787354,0.183105,-0.061035,-0.183105
389783208,0.00215149,0.00749207,-1.00715637,0.244141,0.122070,-0.061035
394793166,0.00204468,0.00758362,-1.00642395,0.305176,0.061035,-0.061035
399768166,0.00137329,0.00735474,-1.00633240,0.244141,0.061035,-0.183105
404743541,0.00068665,0.00732422,-1.00704956,0.305176,0.122070,-0.061035
409805083,0.00010681,0.00779724,-1.00756836,0.183105,0.000000,-0.122070
414786500,-0.00025940,0.00833130,-1.00750732,0.244141,0.061035,0.061035
419797416,-0.00018311,0.00865173,-1.00721741,0.366211,0.183105,-0.061035
424766375,0.00001526,0.00878906,-1.00677490,0.305176,0.000000,0.000000
429784125,0.00012207,0.00883484,-1.00643921,0.427246,0.061035,-0.061035
434775375,0.00028992,0.00897217,-1.00654602,0.366211,0.000000,0.000000
439784375,0.00061035,0.00906372,-1.00679016,0.427246,0.122070,0.000000
444757833,0.00105286,0.00891113,-1.00660706,0.366211,-0.061035,-0.061035
449814958,0.00157166,0.00875854,-1.00611877,0.549316,0.122070,-0.061035
454785500,0.00230408,0.00875854,-1.00596619,0.366211,0.000000,-0.122070
459771000,0.00294495,0.00897217,-1.00613403,0.183105,0.122070,0.000000
464753291,0.00331116,0.00921631,-1.00608826,0.366211,0.122070,-0.061035
469768583,0.00338745,0.00926208,-1.00572205,0.244141,0.183105,-0.122070
474772041,0.00317383,0.00885010,-1.00543213,0.732422,-0.061035,-0.122070
479780791,0.00280762,0.00781250,-1.00549316,-0.305176,-0.122070,-0.183105
484802500,0.00241089,0.00669861,-1.00404358,0.183105,0.305176,-0.122070
489809458,0.00276184,0.00607300,-0.99926758,1.281738,-0.122070,0.000000
494773083,0.00320435,0.00700378,-1.00865173,-0.183105,0.000000,0.000000
499782083,0.00225830,0.00831604,-1.02276611,0.244141,0.427246,0.061035
504780458,0.00146484,0.00773621,-1.00561523,0.366211,-0.244141,-0.061035
509803375,0.00135803,0.00672913,-0.99421692,0.122070,0.000000,0.000000
514814458,0.00099182,0.00712585,-1.00770569,0.183105,-0.122070,-0.122070
519782125,0.00080872,0.00785828,-1.01055908,0.488281,-0.061035,-0.061035
524779583,0.00068665,0.00804138,-1.00733948,0.244141,0.122070,-0.183105
529774333,0.00057983,0.00814819,-1.00796509,0.366211,0.000000,-0.122070
534771000,0.00082397,0.00849915,-1.00659180,0.122070,0.183105,-0.244141
539778000,0.00155640,0.00886536,-1.00460815,0.366211,0.122070,-0.061035
544777375,0.00274658,0.00935364,-1.00334167,0.427246,-0.061035,-0.122070
549808625,0.00332642,0.00950623,-1.00566101,0.244141,0.183105,-0.122070
554797041,0.00280762,0.00836182,-1.00808716,0.427246,0.000000,-0.183105
559803041,0.00195312,0.00706482,-1.00581360,0.427246,0.122070,0.061035
564798541,0.00157166,0.00755310,-1.00558472,0.305176,0.122070,-0.061035
569793958,0.00193787,0.00880432,-1.00765991,0.244141,0.183105,-0.061035
574784125,0.00242615,0.00871277,-1.00643921,0.244141,0.061035,-0.122070
579778833,0.00267029,0.00769043,-1.00465393,0.366211,0.061035,0.061035
584762708,0.00279236,0.00714111,-1.00495911,0.305176,0.061035,0.000000
589801583,0.00267029,0.00726318,-1.00674438,0.305176,-0.061035,-0.061035
594812041,0.00244141,0.00764465,-1.00802612,0.305176,0.061035,-0.061035
599771333,0.00224304,0.00776672,-1.00674438,0.427246,0.061035,-0.061035
604784541,0.00224304,0.00738525,-1.00521851,0.244141,-0.061035,-0.061035
609799375,0.00238037,0.00683594,-1.00534058,0.427246,0.000000,-0.122070
614802500,0.00239563,0.00656128,-1.00627136,0.366211,0.061035,-0.183105
619818125,0.00196838,0.00672913,-1.00767517,0.305176,0.000000,-0.122070
624784250,0.00111389,0.00718689,-1.00825500,0.305176,-0.061035,-0.061035
629790291,0.00067139,0.00764465,-1.00718689,0.305176,0.000000,-0.183105
634775208,0.00102234,0.00807190,-1.00579834,0.427246,0.122070,0.000000
639806250,0.00137329,0.00842285,-1.00555420,0.305176,0.061035,0.000000
644833541,0.00099182,0.00851440,-1.00648499,0.427246,-0.061035,0.061035
649797708,0.00054932,0.00849915,-1.00752258,0.305176,0.061035,-0.061035
654855708,0.00088501,0.00852966,-1.00761414,0.427246,0.000000,0.000000
659795500,0.00172424,0.00827026,-1.00701904,0.366211,0.000000,-0.061035
664815833,0.00224304,0.00801086,-1.00631714,0.244141,0.122070,-0.183105
669803958,0.00201416,0.00810242,-1.00573730,0.122070,0.061035,-0.061035
674872583,0.00154114,0.00828552,-1.00584412,0.244141,-0.061035,-0.061035
679933791,0.00135803,0.00831604,-1.00660706,0.305176,0.000000,-0.061035
684811500,0.00131226,0.00817871,-1.00706482,0.305176,-0.061035,0.000000
689802041,0.00114441,0.00790405,-1.00668335,0.244141,0.061035,0.000000
694802750,0.00105286,0.00738525,-1.00595093,0.366211,0.122070,-0.183105
699840000,0.00111389,0.00694275,-1.00535583,0.427246,0.244141,-0.061035
704803750,0.00148010,0.00717163,-1.00497437,0.305176,0.061035,-0.122070
709825666,0.00227356,0.00781250,-1.00497437,0.305176,0.061035,0.000000
714851083,0.00300598,0.00785828,-1.00572205,0.122070,-0.061035,-0.061035
719810500,0.00289917,0.00726318,-1.00697327,0.366211,0.061035,-0.122070
724833666,0.00224304,0.00694275,-1.00740051,0.427246,0.061035,0.000000
729843708,0.00201416,0.00738525,-1.00662231,0.183105,0.122070,0.061035
734807666,0.00245667,0.00808716,-1.00582886,0.305176,0.183105,-0.061035
739800916,0.00306702,0.00839233,-1.00569153,0.244141,0.183105,-0.061035
744816916,0.00312805,0.00836182,-1.00613403,0.244141,0.000000,-0.061035
749842125,0.00251770,0.00828552,-1.00679016,0.427246,0.183105,-0.061035
754809458,0.00192261,0.00827026,-1.00674438,0.366211,0.122070,0.000000
759877916,0.00158691,0.00828552,-1.00601196,0.427246,0.122070,-0.061035
764835166,0.00146484,0.00828552,-1.00576782,0.427246,0.000000,-0.244141
769814958,0.00213623,0.00823975,-1.00602722,0.305176,0.122070,-0.122070
774908416,0.00303650,0.00804138,-1.00648499,0.305176,0.061035,-0.061035
779853333,0.00263977,0.00796509,-1.00708008,0.305176,0.061035,-0.061035
784801041,0.00143433,0.00791931,-1.00733948,0.305176,0.061035,-0.122070
789811875,0.00091553,0.00784302,-1.00695801,0.366211,0.000000,-0.183105
794807583,0.00120544,0.00778198,-1.00625610,0.427246,0.061035,-0.122070
799855250,0.00164795,0.00775146,-1.00610352,0.427246,0.122070,0.061035
804812625,0.00202942,0.00759888,-1.00663757,0.305176,0.122070,0.000000
809856041,0.00216675,0.00741577,-1.00717163,0.244141,0.061035,-0.183105
814839666,0.00215149,0.00753784,-1.00691223,0.366211,0.000000,-0.122070
819833250,0.00239563,0.00770569,-1.00587463,0.366211,0.122070,0.061035
824808416,0.00276184,0.00758362,-1.00506592,0.244141,-0.122070,-0.061035
829812208,0.00262451,0.00733948,-1.00520325,0.366211,0.061035,-0.183105
834916958,0.00210571,0.00721741,-1.00588989,0.305176,0.061035,-0.183105
839808500,0.00196838,0.00726318,-1.00653076,0.427246,0.122070,-0.061035
844858083,0.00236511,0.00782776,-1.00662231,0.305176,0.061035,-0.183105
849817458,0.00265503,0.00842285,-1.00608826,0.244141,0.122070,-0.122070
854803541,0.00257874,0.00839233,-1.00561523,0.183105,0.061035,-0.061035
859803333,0.00239563,0.00836182,-1.00569153,0.244141,0.000000,-0.183105
864886083,0.00210571,0.00883484,-1.00611877,0.366211,0.122070,-0.122070
869831583,0.00155640,0.00927734,-1.00662231,0.244141,0.061035,-0.061035
874825416,0.00093079,0.00936890,-1.00686646,0.305176,0.061035,-0.061035
879942875,0.00059509,0.00927734,-1.00660706,0.305176,-0.122070,-0.061035
884825291,0.00096130,0.00921631,-1.00590515,0.366211,0.061035,-0.122070
889829625,0.00167847,0.00904846,-1.00538635,0.305176,0.000000,-0.061035
894841375,0.00196838,0.00877380,-1.00538635,0.244141,0.061035,-0.061035
899828875,0.00170898,0.00846863,-1.00599670,0.183105,0.061035,-0.061035
904840958,0.00138855,0.00827026,-1.00694275,0.366211,-0.061035,-0.061035
909851500,0.00115967,0.00822449,-1.00720215,0.305176,0.000000,0.000000
914942625,0.00123596,0.00813293,-1.00650024,0.366211,0.000000,-0.122070
919829416,0.00172424,0.00790405,-1.00599670,0.305176,0.000000,0.000000
924828125,0.00219727,0.00762939,-1.00645447,0.244141,-0.061035,-0.122070
929869000,0.00219727,0.00738525,-1.00738525,0.305176,-0.061035,-0.244141
934824916,0.00204468,0.00727844,-1.00767517,0.427246,0.183105,-0.183105
939941500,0.00221252,0.00729370,-1.00698853,0.427246,0.061035,-0.061035
944817500,0.00256348,0.00738525,-1.00625610,0.366211,0.122070,-0.061035
949838041,0.00270081,0.00749207,-1.00608826,0.244141,0.000000,-0.061035
954869833,0.00286865,0.00740051,-1.00616455,0.244141,0.122070,-0.122070
959831625,0.00303650,0.00711060,-1.00642395,0.366211,0.183105,-0.061035
964855875,0.00283813,0.00683594,-1.00669861,0.366211,0.122070,-0.122070
969837875,0.00259399,0.00672913,-1.00650024,0.305176,0.061035,-0.122070
974839291,0.00282288,0.00689697,-1.00604248,0.305176,0.061035,-0.122070
979834208,0.00308228,0.00720215,-1.00593567,0.305176,0.183105,-0.305176
984848666,0.00270081,0.00735474,-1.00621033,0.366211,0.000000,0.000000
989822208,0.00213623,0.00744629,-1.00651550,0.305176,0.000000,-0.122070
994925416,0.00205994,0.00764465,-1.00686646,0.305176,0.061035,-0.183105
999905708,0.00209045,0.00794983,-1.00732422,0.366211,0.061035,0.061035
1004845916,0.00158691,0.00822449,-1.00729370,0.427246,0.000000,-0.061035
1009850375,0.00080872,0.00843811,-1.00656128,0.549316,0.061035,-0.061035
1014858458,0.00033569,0.00871277,-1.00607300,0.488281,0.061035,-0.122070
1019850500,0.00012207,0.00860596,-1.00637817,0.427246,0.183105,-0.061035
1024848500,0.00018311,0.00810242,-1.00668335,0.366211,0.122070,-0.061035
1029846000,0.00047302,0.00796509,-1.00648499,0.488281,0.122070,-0.122070
1034924625,0.00061035,0.00831604,-1.00604248,0.305176,0.061035,0.000000
1039859708,0.00073242,0.00854492,-1.00566101,0.305176,0.000000,-0.061035
1044869666,0.00125122,0.00842285,-1.00524902,0.427246,0.183105,-0.061035
1049863041,0.00167847,0.00827026,-1.00520325,0.427246,0.000000,-0.122070
1054834625,0.00148010,0.00825500,-1.00587463,0.488281,0.122070,-0.244141
1059840291,0.00119019,0.00822449,-1.00639343,0.366211,0.183105,-0.061035
1064865875,0.00140381,0.00805664,-1.00599670,0.427246,-0.061035,-0.122070
1069832250,0.00183105,0.00801086,-1.00537109,0.366211,0.244141,0.000000
1074839375,0.00204468,0.00804138,-1.00538635,0.366211,0.061035,-0.183105
1079848333,0.00219727,0.00791931,-1.00585938,0.366211,0.000000,-0.122070
1084853833,0.00247192,0.00769043,-1.00642395,0.305176,0.061035,0.000000
1089873041,0.00273132,0.00747681,-1.00686646,0.427246,0.061035,0.000000
1094846875,0.00254822,0.00708008,-1.00704956,0.244141,0.000000,-0.183105
1099857125,0.00221252,0.00683594,-1.00695801,0.305176,0.061035,-0.183105
1104839666,0.00228882,0.00747681,-1.00679016,0.244141,0.000000,-0.061035
1109849000,0.00248718,0.00846863,-1.00642395,0.183105,0.061035,-0.122070
1114815833,0.00231934,0.00894165,-1.00601196,0.183105,0.061035,-0.183105
1119842000,0.00190735,0.00889587,-1.00598145,0.305176,0.061035,-0.183105
1124821541,0.00157166,0.00881958,-1.00633240,0.244141,0.000000,-0.183105
1129831833,0.00152588,0.00901794,-1.00627136,0.305176,0.122070,-0.061035
1134840000,0.00160217,0.00921631,-1.00578308,0.244141,0.000000,0.061035
1139854625,0.00154114,0.00914001,-1.00564575,0.366211,0.122070,0.061035
1144860458,0.00144958,0.00920105,-1.00596619,0.366211,0.000000,-0.183105
1149935666,0.00149536,0.00984192,-1.00651550,0.366211,0.244141,-0.061035
1154867833,0.00169373,0.01013184,-1.00733948,0.305176,0.061035,0.000000
1159851041,0.00166321,0.00920105,-1.00825500,0.244141,0.122070,0.000000
1164838416,0.00114441,0.00784302,-1.00839233,0.183105,0.000000,-0.061035
1169854791,0.00106812,0.00709534,-1.00738525,0.305176,0.000000,-0.183105
1174847125,0.00193787,0.00689697,-1.00631714,0.427246,0.061035,-0.183105
1179849125,0.00268555,0.00697327,-1.00631714,0.366211,0.061035,-0.061035
1184882250,0.00251770,0.00727844,-1.00691223,0.366211,-0.061035,-0.244141
1189867125,0.00202942,0.00737000,-1.00697327,0.305176,0.122070,-0.061035
1194873750,0.00187683,0.00706482,-1.00656128,0.427246,0.000000,-0.061035
1199839875,0.00224304,0.00680542,-1.00627136,0.488281,0.000000,-0.122070
1204852125,0.00302124,0.00675964,-1.00610352,0.427246,0.122070,0.000000
1209859625,0.00350952,0.00680542,-1.00602722,0.427246,0.122070,-0.061035
1214877416,0.00338745,0.00683594,-1.00617981,0.488281,0.305176,0.000000
1219867625,0.00299072,0.00683594,-1.00640869,0.488281,0.122070,-0.122070
1224837708,0.00294495,0.00692749,-1.00648499,0.488281,0.061035,-0.122070
1229854458,0.00315857,0.00729370,-1.00621033,0.305176,0.122070,-0.061035
1234889791,0.00268555,0.00770569,-1.00593567,0.244141,0.122070,-0.061035
1239870250,0.00143433,0.00787354,-1.00611877,0.366211,0.061035,-0.061035
1244838958,0.00050354,0.00791931,-1.00695801,0.244141,0.000000,-0.122070
1249893541,0.00056458,0.00831604,-1.00787354,0.183105,0.061035,-0.122070
1254828541,0.00119019,0.00881958,-1.00770569,0.488281,0.000000,-0.122070
1259852166,0.00149536,0.00892639,-1.00636292,0.305176,0.122070,-0.122070
1264979833,0.00128174,0.00881958,-1.00497437,0.427246,0.061035,-0.061035
1269905250,0.00099182,0.00875854,-1.00491333,0.610352,0.061035,-0.061035
1274843208,0.00091553,0.00889587,-1.00605774,0.427246,0.122070,0.000000
1279868083,0.00106812,0.00912476,-1.00691223,0.549316,0.122070,-0.061035
1284844250,0.00160217,0.00895691,-1.00683594,0.549316,0.061035,-0.122070
1289857958,0.00224304,0.00830078,-1.00659180,0.488281,0.244141,-0.183105
1294857583,0.00253296,0.00790405,-1.00643921,0.244141,0.122070,-0.122070
1299868458,0.00239563,0.00785828,-1.00604248,0.427246,0.000000,-0.244141
1304912583,0.00196838,0.00798035,-1.00619507,0.366211,-0.061035,0.000000
1309864000,0.00152588,0.00816345,-1.00715637,0.427246,0.061035,-0.061035
1314864458,0.00128174,0.00828552,-1.00764465,0.427246,0.122070,-0.183105
1319868125,0.00122070,0.00846863,-1.00700378,0.305176,0.000000,-0.122070
1324883125,0.00163269,0.00871277,-1.00617981,0.305176,0.061035,-0.183105
1329841000,0.00213623,0.00885010,-1.00614929,0.366211,0.305176,-0.061035
1334859791,0.00207520,0.00900269,-1.00662231,0.427246,0.061035,-0.061035
1339867916,0.00187683,0.00926208,-1.00680542,0.427246,0.061035,0.000000
1344855666,0.00189209,0.00967407,-1.00663757,0.244141,-0.061035,-0.061035
1349894166,0.00160217,0.00991821,-1.00610352,0.366211,-0.061035,-0.061035
1354877583,0.00100708,0.00967407,-1.00541687,0.366211,0.000000,0.000000
1359856958,0.00074768,0.00926208,-1.00546265,0.366211,0.000000,-0.061035
1364890083,0.00067139,0.00883484,-1.00625610,0.549316,0.000000,-0.122070
1369858958,0.00053406,0.00843811,-1.00686646,0.488281,0.061035,-0.061035
1374858708,0.00032043,0.00836182,-1.00694275,0.549316,0.000000,0.000000
1379879833,0.00028992,0.00842285,-1.00686646,0.427246,0.122070,-0.061035
1384869791,0.00051880,0.00805664,-1.00704956,0.427246,0.061035,-0.061035
1389882375,0.00085449,0.00752258,-1.00717163,0.488281,0.061035,-0.061035
1394877333,0.00132751,0.00732422,-1.00701904,0.488281,0.061035,0.000000
1399862250,0.00195312,0.00733948,-1.00685120,0.366211,0.000000,0.061035
1404849958,0.00234985,0.00723267,-1.00682068,0.427246,-0.122070,-0.122070
1409924041,0.00244141,0.00694275,-1.00683594,0.549316,0.000000,-0.061035
1414880375,0.00273132,0.00694275,-1.00677490,0.488281,0.000000,-0.061035
1419909083,0.00347900,0.00755310,-1.00653076,0.732422,0.061035,-0.122070
1424878291,0.00416565,0.00819397,-1.00634766,0.488281,0.183105,0.000000
1429889250,0.00415039,0.00840759,-1.00613403,0.671387,0.244141,0.000000
1434883250,0.00364685,0.00830078,-1.00573730,0.671387,0.000000,-0.183105
1439882666,0.00334167,0.00787354,-1.00547791,0.610352,0.061035,-0.122070
1444874375,0.00329590,0.00715637,-1.00531006,0.488281,-0.061035,-0.122070
1449892625,0.00309753,0.00675964,-1.00523376,0.549316,0.122070,-0.122070
1454897291,0.00256348,0.00715637,-1.00564575,0.305176,0.061035,-0.061035
1459885916,0.00204468,0.00810242,-1.00643921,0.549316,0.061035,-0.122070
1464880083,0.00180054,0.00889587,-1.00701904,0.366211,0.000000,-0.183105
1469884416,0.00157166,0.00897217,-1.00698853,0.305176,0.061035,0.000000
1474867000,0.00111389,0.00840759,-1.00650024,0.427246,0.061035,-0.122070
1479889541,0.00059509,0.00796509,-1.00619507,0.549316,0.244141,-0.061035
1484883041,0.00022888,0.00819397,-1.00671387,0.305176,0.122070,-0.122070
1489914916,0.00019836,0.00843811,-1.00737000,0.427246,0.000000,-0.122070
1494867125,0.00035095,0.00822449,-1.00703430,0.305176,0.061035,-0.122070
1499888000,0.00030518,0.00805664,-1.00628662,0.305176,0.061035,-0.061035
1504888458,0.00001526,0.00798035,-1.00639343,0.427246,0.061035,-0.061035
1509906375,-0.00007629,0.00778198,-1.00708008,0.488281,0.122070,-0.244141
1514870083,0.00053406,0.00755310,-1.00730896,0.366211,0.061035,-0.061035
1519877375,0.00184631,0.00773621,-1.00671387,0.427246,0.000000,0.000000
1524863750,0.00299072,0.00794983,-1.00582886,0.366211,0.000000,-0.061035
1529869291,0.00300598,0.00756836,-1.00526428,0.427246,0.000000,0.000000
1534872625,0.00222778,0.00695801,-1.00549316,0.549316,0.000000,0.000000
1539884875,0.00219727,0.00669861,-1.00668335,0.366211,0.000000,-0.061035
1544886833,0.00315857,0.00666809,-1.00790405,0.427246,0.061035,-0.061035
1549908958,0.00389099,0.00669861,-1.00798035,0.366211,0.122070,-0.183105
1554871875,0.00382996,0.00659180,-1.00689697,0.427246,0.183105,0.000000
1559899708,0.00363159,0.00619507,-1.00608826,0.366211,0.061035,-0.122070
1564952625,0.00344849,0.00601196,-1.00643921,0.305176,-0.061035,-0.183105
1569896416,0.00296021,0.00634766,-1.00688171,0.427246,0.061035,-0.061035
1574877708,0.00254822,0.00668335,-1.00648499,0.366211,0.183105,-0.183105
1579889875,0.00242615,0.00659180,-1.00593567,0.427246,0.061035,-0.061035
1584885250,0.00224304,0.00640869,-1.00596619,0.488281,0.183105,-0.061035
1589884416,0.00193787,0.00654602,-1.00622559,0.488281,0.000000,-0.183105
1594888708,0.00154114,0.00685120,-1.00604248,0.427246,0.061035,-0.183105
1599893916,0.00122070,0.00721741,-1.00540161,0.366211,0.061035,-0.122070
1604887208,0.00128174,0.00727844,-1.00508118,0.549316,-0.061035,-0.183105
1609901291,0.00143433,0.00695801,-1.00572205,0.488281,0.061035,0.000000
1614918041,0.00128174,0.00688171,-1.00692749,0.427246,0.061035,-0.061035
1619899916,0.00120544,0.00714111,-1.00775146,0.366211,-0.122070,-0.183105
1624878041,0.00132751,0.00740051,-1.00753784,0.244141,0.000000,-0.061035
1629892125,0.00135803,0.00762939,-1.00665283,0.366211,0.000000,0.000000
1634899833,0.00131226,0.00793457,-1.00625610,0.427246,0.061035,-0.061035
1639911166,0.00143433,0.00816345,-1.00672913,0.305176,0.000000,-0.183105
1644904916,0.00178528,0.00807190,-1.00741577,0.305176,0.061035,0.000000
1649909625,0.00199890,0.00784302,-1.00746155,0.427246,0.061035,-0.122070
1654897916,0.00166321,0.00769043,-1.00685120,0.427246,0.000000,-0.061035
1659905125,0.00157166,0.00750732,-1.00624084,0.488281,0.000000,0.000000
1664905833,0.00219727,0.00732422,-1.00614929,0.366211,0.000000,0.000000
1669891166,0.00285339,0.00727844,-1.00625610,0.549316,0.000000,-0.122070
1674902041,0.00300598,0.00726318,-1.00621033,0.427246,0.061035,-0.122070
1679911541,0.00271606,0.00711060,-1.00610352,0.366211,0.061035,-0.061035
1684898333,0.00222778,0.00682068,-1.00566101,0.488281,0.122070,0.000000
1689908083,0.00204468,0.00646973,-1.00508118,0.610352,0.122070,0.000000
1694879416,0.00225830,0.00639343,-1.00506592,0.366211,0.183105,-0.061035
1699893291,0.00239563,0.00651550,-1.00570679,0.305176,0.244141,-0.061035
1704881166,0.00209045,0.00646973,-1.00611877,0.305176,0.061035,-0.183105
1709928916,0.00134277,0.00630188,-1.00625610,0.244141,0.061035,-0.061035
1714911083,0.00074768,0.00617981,-1.00665283,0.366211,0.061035,-0.061035
1720010916,0.00088501,0.00617981,-1.00627136,0.305176,0.061035,-0.122070
1724914250,0.00134277,0.00605774,-1.00456238,0.183105,0.061035,-0.183105
1729989041,0.00140381,0.00587463,-1.00468445,0.366211,0.061035,-0.183105
1734971458,0.00102234,0.00581360,-1.00758362,0.427246,0.122070,0.061035
1739940625,0.00068665,0.00595093,-1.00950623,0.305176,0.122070,-0.122070
1744958833,0.00100708,0.00646973,-1.00848389,0.427246,0.122070,-0.122070
1749908791,0.00183105,0.00701904,-1.00636292,0.244141,0.122070,-0.122070
1754885958,0.00236511,0.00708008,-1.00517273,0.244141,0.183105,0.061035
1759909958,0.00247192,0.00701904,-1.00524902,0.366211,0.061035,-0.061035
1764959708,0.00230408,0.00744629,-1.00588989,0.244141,0.061035,-0.122070
1769899375,0.00186157,0.00798035,-1.00662231,0.366211,-0.061035,-0.244141
1774903625,0.00175476,0.00761414,-1.00714111,0.244141,0.061035,-0.061035
1779930916,0.00215149,0.00654602,-1.00691223,0.244141,0.061035,-0.061035
1784922708,0.00222778,0.00605774,-1.00593567,0.488281,0.122070,-0.061035
1789924291,0.00187683,0.00686646,-1.00511169,0.305176,0.183105,-0.122070
1794915916,0.00183105,0.00807190,-1.00531006,0.549316,0.061035,-0.122070
1799954916,0.00195312,0.00822449,-1.00627136,0.305176,0.122070,-0.061035
1804930375,0.00180054,0.00770569,-1.00694275,0.488281,0.122070,-0.183105
1809956916,0.00148010,0.00778198,-1.00697327,0.488281,0.183105,-0.122070
1814906125,0.00111389,0.00811768,-1.00643921,0.305176,0.122070,0.000000
1819910166,0.00071716,0.00770569,-1.00503540,0.244141,0.122070,-0.122070
1824911958,0.00064087,0.00708008,-1.00404358,0.305176,-0.061035,0.000000
1829902791,0.00064087,0.00720215,-1.00602722,0.305176,0.122070,-0.061035
1834915666,0.00079346,0.00796509,-1.00901794,0.427246,0.122070,-0.122070
1839958833,0.00140381,0.00834656,-1.00914001,0.305176,0.061035,-0.122070
1844964750,0.00187683,0.00773621,-1.00695801,0.244141,0.061035,-0.061035
1849952666,0.00161743,0.00671387,-1.00520325,0.427246,0.000000,0.000000
1854985208,0.00115967,0.00619507,-1.00459290,0.366211,0.122070,-0.122070
1859910750,0.00131226,0.00630188,-1.00456238,0.427246,0.000000,-0.122070
1864977250,0.00198364,0.00672913,-1.00518799,0.366211,-0.061035,0.000000
1869901916,0.00260925,0.00688171,-1.00633240,0.366211,0.061035,-0.061035
1874986583,0.00299072,0.00628662,-1.00726318,0.427246,0.183105,-0.061035
1879926125,0.00309753,0.00567627,-1.00749207,0.427246,0.061035,-0.061035
1884988708,0.00288391,0.00570679,-1.00721741,0.366211,0.122070,-0.122070
1889939875,0.00230408,0.00622559,-1.00686646,0.183105,0.183105,-0.305176
1894957458,0.00180054,0.00662231,-1.00660706,0.427246,0.061035,-0.061035
1899969750,0.00193787,0.00640869,-1.00651550,0.183105,0.122070,-0.183105
1904889833,0.00224304,0.00613403,-1.00680542,0.366211,-0.061035,-0.061035
1909926916,0.00216675,0.00616455,-1.00720215,0.427246,0.061035,-0.122070
1914918625,0.00186157,0.00616455,-1.00700378,0.183105,0.122070,-0.244141
1919934416,0.00180054,0.00636292,-1.00616455,0.122070,0.122070,-0.122070
1924921041,0.00209045,0.00709534,-1.00561523,0.488281,0.000000,-0.061035
1929926375,0.00201416,0.00767517,-1.00619507,0.305176,0.122070,-0.183105
1934954583,0.00160217,0.00761414,-1.00714111,0.366211,0.183105,-0.061035
1939943125,0.00169373,0.00740051,-1.00750732,0.366211,0.122070,-0.122070
1944935958,0.00187683,0.00750732,-1.00714111,0.610352,0.061035,-0.061035
1949941416,0.00161743,0.00770569,-1.00627136,0.244141,0.122070,-0.122070
1954921541,0.00117493,0.00761414,-1.00561523,0.244141,0.000000,-0.122070
1959949708,0.00093079,0.00759888,-1.00578308,0.366211,-0.061035,-0.183105
1964934375,0.00091553,0.00801086,-1.00646973,0.366211,0.183105,-0.061035
1969948041,0.00096130,0.00846863,-1.00692749,0.183105,0.000000,-0.061035
1974906791,0.00088501,0.00849915,-1.00703430,0.366211,0.000000,0.000000
1979994916,0.00065613,0.00819397,-1.00704956,0.305176,0.000000,0.000000
1984926750,0.00067139,0.00781250,-1.00695801,0.427246,0.000000,0.000000
1989927791,0.00117493,0.00747681,-1.00685120,0.305176,0.061035,-0.061035
1994919375,0.00169373,0.00726318,-1.00663757,0.366211,0.061035,-0.061035
1999943625,0.00172424,0.00691223,-1.00611877,0.183105,0.061035,-0.061035
2004917666,0.00160217,0.00604248,-1.00559998,0.244141,0.061035,-0.122070
2009931750,0.00178528,0.00523376,-1.00572205,0.488281,0.122070,-0.183105
2014954791,0.00228882,0.00541687,-1.00650024,0.305176,0.061035,-0.122070
2019945541,0.00303650,0.00630188,-1.00698853,0.244141,0.061035,-0.122070
2024920208,0.00372314,0.00689697,-1.00671387,0.366211,0.061035,-0.122070
2029946333,0.00364685,0.00694275,-1.00636292,0.366211,0.122070,-0.061035
2034926500,0.00317383,0.00669861,-1.00624084,0.427246,0.000000,-0.122070
2039939541,0.00309753,0.00650024,-1.00622559,0.366211,0.122070,-0.122070
2044945125,0.00340271,0.00642395,-1.00592041,0.183105,0.122070,-0.061035
2049955750,0.00360107,0.00617981,-1.00543213,0.305176,0.000000,-0.122070
2054933208,0.00323486,0.00608826,-1.00535583,0.427246,0.061035,-0.244141
2059929833,0.00233459,0.00637817,-1.00585938,0.427246,0.183105,0.000000
2064959541,0.00148010,0.00691223,-1.00651550,0.366211,0.061035,-0.061035
2069944166,0.00135803,0.00746155,-1.00689697,0.427246,0.122070,0.000000
2074940916,0.00173950,0.00761414,-1.00703430,0.427246,0.000000,-0.183105
2079946916,0.00186157,0.00727844,-1.00733948,0.549316,0.061035,-0.183105
2084986041,0.00141907,0.00708008,-1.00765991,0.366211,0.061035,-0.122070
2089947708,0.00109863,0.00726318,-1.00744629,0.366211,0.061035,-0.061035
2094943083,0.00154114,0.00758362,-1.00682068,0.366211,0.061035,-0.183105
2099941750,0.00216675,0.00761414,-1.00666809,0.488281,0.000000,-0.122070
2104947500,0.00180054,0.00724792,-1.00704956,0.488281,0.122070,-0.122070
2110062791,0.00048828,0.00708008,-1.00718689,0.305176,0.000000,-0.061035
2114952041,-0.00036621,0.00721741,-1.00666809,0.366211,0.122070,-0.061035
2119956750,-0.00027466,0.00747681,-1.00602722,0.366211,0.061035,-0.122070
2124926250,0.00019836,0.00772095,-1.00578308,0.366211,0.000000,-0.183105
2129942625,0.00068665,0.00782776,-1.00582886,0.305176,0.122070,-0.061035
2134926125,0.00103760,0.00767517,-1.00617981,0.244141,0.061035,0.000000
2139946583,0.00129700,0.00723267,-1.00700378,0.488281,0.061035,-0.122070
2145085416,0.00146484,0.00683594,-1.00752258,0.427246,0.000000,-0.061035
2150009041,0.00161743,0.00706482,-1.00700378,0.305176,0.122070,-0.122070
2154963333,0.00196838,0.00759888,-1.00627136,0.366211,0.122070,-0.061035
2159969125,0.00218201,0.00769043,-1.00604248,0.427246,0.122070,-0.061035
2164978750,0.00216675,0.00733948,-1.00608826,0.305176,0.061035,-0.122070
2169964125,0.00224304,0.00694275,-1.00636292,0.305176,0.061035,-0.122070
2174932208,0.00233459,0.00688171,-1.00672913,0.305176,0.061035,-0.122070
2179956916,0.00248718,0.00688171,-1.00689697,0.427246,0.122070,-0.122070
2184951875,0.00274658,0.00646973,-1.00674438,0.183105,-0.122070,-0.122070
2189970583,0.00253296,0.00624084,-1.00633240,0.305176,0.000000,-0.122070
2194944416,0.00158691,0.00663757,-1.00613403,0.305176,0.000000,-0.122070
2199955708,0.00067139,0.00683594,-1.00672913,0.244141,0.061035,0.000000
2204956833,0.00064087,0.00619507,-1.00772095,0.427246,0.061035,-0.122070
2209977291,0.00148010,0.00564575,-1.00794983,0.244141,0.061035,-0.061035
2215004250,0.00245667,0.00582886,-1.00724792,0.244141,0.000000,-0.122070
2219965583,0.00271606,0.00610352,-1.00648499,0.305176,-0.061035,-0.183105
2224946083,0.00238037,0.00599670,-1.00610352,0.305176,0.122070,-0.061035
2229967875,0.00236511,0.00602722,-1.00613403,0.305176,0.061035,-0.183105
2234940750,0.00274658,0.00672913,-1.00674438,0.366211,0.061035,-0.122070
2239982708,0.00297546,0.00762939,-1.00738525,0.366211,0.061035,-0.244141
2245053958,0.00288391,0.00811768,-1.00703430,0.305176,0.061035,-0.122070
2249951416,0.00259399,0.00796509,-1.00616455,0.549316,0.183105,-0.244141
2254954041,0.00233459,0.00735474,-1.00593567,0.305176,0.122070,-0.183105
2259975250,0.00186157,0.00704956,-1.00648499,0.427246,0.061035,-0.061035
2265083000,0.00094604,0.00712585,-1.00727844,0.305176,0.061035,0.061035
2269960750,0.00025940,0.00706482,-1.00746155,0.305176,0.122070,-0.061035
2274937875,0.00064087,0.00686646,-1.00688171,0.366211,0.183105,-0.061035
2280057083,0.00177002,0.00685120,-1.00633240,0.366211,0.061035,-0.183105
2284974875,0.00241089,0.00730896,-1.00610352,0.366211,0.000000,-0.183105
2289960375,0.00218201,0.00787354,-1.00604248,0.305176,0.000000,0.000000
2294968208,0.00201416,0.00738525,-1.00631714,0.427246,0.061035,0.000000
2299973750,0.00236511,0.00605774,-1.00650024,0.305176,0.061035,-0.122070
2304943375,0.00242615,0.00526428,-1.00598145,0.244141,0.122070,-0.061035
2309984541,0.00190735,0.00559998,-1.00524902,0.366211,0.000000,-0.061035
2314971916,0.00157166,0.00660706,-1.00506592,0.305176,0.122070,-0.122070
2319981291,0.00170898,0.00717163,-1.00532532,0.366211,0.122070,0.000000
2324961166,0.00175476,0.00679016,-1.00567627,0.305176,0.183105,-0.122070
2329981208,0.00170898,0.00605774,-1.00607300,0.183105,0.000000,-0.122070
2334967541,0.00205994,0.00573730,-1.00636292,0.305176,0.122070,0.000000
2339962000,0.00262451,0.00576782,-1.00662231,0.305176,0.122070,-0.061035
2344977375,0.00267029,0.00585938,-1.00700378,0.305176,0.061035,-0.061035
2349978708,0.00205994,0.00598145,-1.00704956,0.366211,0.061035,-0.122070
2354966625,0.00172424,0.00648499,-1.00665283,0.305176,0.122070,-0.122070
2360001250,0.00218201,0.00724792,-1.00650024,0.183105,0.061035,-0.183105
2364996208,0.00289917,0.00778198,-1.00686646,0.305176,0.061035,-0.122070
2369962416,0.00334167,0.00779724,-1.00718689,0.366211,0.122070,-0.244141
2374953208,0.00321960,0.00738525,-1.00686646,0.183105,0.061035,0.000000
2380075958,0.00274658,0.00718689,-1.00637817,0.427246,0.122070,-0.061035
2384968208,0.00236511,0.00744629,-1.00643921,0.305176,0.183105,-0.122070
2389973500,0.00205994,0.00755310,-1.00668335,0.305176,0.122070,-0.122070
2395049708,0.00170898,0.00746155,-1.00662231,0.366211,0.000000,-0.061035
2399967916,0.00166321,0.00767517,-1.00651550,0.305176,0.061035,-0.061035
2404971833,0.00169373,0.00842285,-1.00628662,0.427246,-0.061035,-0.122070
2409989041,0.00131226,0.00900269,-1.00578308,0.305176,0.061035,0.000000
2414997833,0.00048828,0.00860596,-1.00567627,0.427246,0.183105,-0.061035
2419996250,-0.00012207,0.00761414,-1.00625610,0.305176,0.000000,-0.122070
2424972708,-0.00018311,0.00688171,-1.00666809,0.244141,0.000000,-0.244141
2429990791,0.00007629,0.00680542,-1.00636292,0.305176,0.000000,-0.122070
2434985916,0.00054932,0.00695801,-1.00575256,0.244141,0.000000,-0.122070
2439989000,0.00094604,0.00701904,-1.00569153,0.305176,0.000000,-0.122070
2445073333,0.00105286,0.00715637,-1.00669861,0.305176,0.061035,-0.122070
2449990958,0.00120544,0.00738525,-1.00776672,0.366211,0.122070,-0.061035
2454965958,0.00169373,0.00755310,-1.00782776,0.488281,0.061035,-0.061035
2459998083,0.00233459,0.00732422,-1.00741577,0.366211,0.061035,0.000000
2464999208,0.00288391,0.00718689,-1.00692749,0.244141,0.061035,-0.183105
2469991708,0.00329590,0.00749207,-1.00599670,0.244141,0.000000,0.000000
2474981833,0.00347900,0.00772095,-1.00531006,0.244141,0.122070,-0.183105
2479999000,0.00343323,0.00753784,-1.00584412,0.244141,-0.061035,-0.183105
2485016500,0.00291443,0.00720215,-1.00680542,0.366211,0.000000,-0.122070
2489989833,0.00189209,0.00714111,-1.00694275,0.305176,0.000000,-0.183105
2494979125,0.00128174,0.00758362,-1.00645447,0.427246,0.061035,0.000000
2500001291,0.00173950,0.00798035,-1.00599670,0.427246,0.000000,-0.183105
2504970541,0.00253296,0.00788879,-1.00602722,0.427246,0.000000,0.000000
2510038083,0.00267029,0.00740051,-1.00651550,0.366211,0.061035,0.000000
2515004666,0.00193787,0.00689697,-1.00682068,0.183105,0.000000,-0.183105
2519983541,0.00093079,0.00669861,-1.00665283,0.427246,-0.061035,-0.061035
2524983833,0.00045776,0.00691223,-1.00622559,0.305176,0.061035,0.000000
2530012250,0.00071716,0.00740051,-1.00595093,0.305176,0.061035,-0.061035
2534981375,0.00126648,0.00746155,-1.00637817,0.488281,0.122070,-0.122070
2539990000,0.00141907,0.00694275,-1.00701904,0.244141,0.122070,-0.244141
2545004166,0.00105286,0.00642395,-1.00695801,0.427246,-0.061035,-0.061035
2550092250,0.00088501,0.00653076,-1.00646973,0.305176,0.122070,-0.183105
2554988750,0.00131226,0.00717163,-1.00608826,0.244141,0.061035,-0.183105
2559984791,0.00210571,0.00750732,-1.00595093,0.305176,0.061035,0.000000
2565056916,0.00277710,0.00721741,-1.00576782,0.244141,0.000000,-0.061035
2569974833,0.00291443,0.00683594,-1.00538635,0.244141,0.000000,0.000000
2574975875,0.00277710,0.00679016,-1.00544739,0.366211,0.061035,0.000000
2579989166,0.00262451,0.00685120,-1.00602722,0.305176,0.000000,-0.183105
2584982916,0.00253296,0.00685120,-1.00656128,0.305176,0.061035,-0.061035
2589989708,0.00273132,0.00682068,-1.00666809,0.305176,0.000000,-0.122070
2595000708,0.00314331,0.00671387,-1.00614929,0.427246,-0.061035,0.000000
2600007041,0.00340271,0.00643921,-1.00576782,0.366211,0.061035,-0.122070
2604995208,0.00305176,0.00608826,-1.00602722,0.305176,0.061035,0.000000
2609995083,0.00207520,0.00602722,-1.00637817,0.366211,0.000000,0.000000
2614985541,0.00117493,0.00622559,-1.00636292,0.305176,0.000000,-0.122070
2620001083,0.00083923,0.00642395,-1.00611877,0.366211,0.061035,-0.122070
2624998083,0.00093079,0.00654602,-1.00608826,0.305176,0.000000,0.000000
2629995291,0.00103760,0.00650024,-1.00637817,0.366211,0.061035,-0.122070
2634994958,0.00100708,0.00640869,-1.00689697,0.305176,0.183105,-0.183105
2640001291,0.00086975,0.00639343,-1.00714111,0.366211,-0.061035,-0.122070
2644987083,0.00071716,0.00662231,-1.00679016,0.427246,0.061035,-0.183105
2650005416,0.00102234,0.00709534,-1.00622559,0.305176,0.061035,-0.061035
2655009125,0.00164795,0.00741577,-1.00595093,0.244141,0.122070,-0.244141
2660009666,0.00196838,0.00749207,-1.00636292,0.244141,0.061035,-0.061035
2664983583,0.00224304,0.00729370,-1.00718689,0.366211,0.000000,0.000000
2670002375,0.00279236,0.00718689,-1.00729370,0.488281,0.061035,0.000000
2675003500,0.00274658,0.00746155,-1.00669861,0.305176,0.122070,-0.061035
2680000625,0.00193787,0.00778198,-1.00622559,0.305176,0.061035,-0.183105
2684971333,0.00119019,0.00785828,-1.00596619,0.427246,0.000000,0.000000
2689998750,0.00100708,0.00773621,-1.00575256,0.305176,0.000000,-0.061035
2695000083,0.00143433,0.00762939,-1.00590515,0.305176,0.122070,-0.061035
2700008708,0.00184631,0.00785828,-1.00631714,0.244141,0.183105,-0.061035
2705000375,0.00177002,0.00805664,-1.00660706,0.244141,-0.061035,-0.122070
2710006000,0.00154114,0.00781250,-1.00677490,0.244141,0.061035,-0.061035
2714997500,0.00169373,0.00743103,-1.00662231,0.366211,0.000000,-0.061035
2720010458,0.00213623,0.00704956,-1.00625610,0.488281,0.183105,0.000000
2725002291,0.00213623,0.00680542,-1.00636292,0.427246,0.183105,-0.122070
2730039166,0.00183105,0.00674438,-1.00698853,0.244141,0.000000,-0.061035
2735007875,0.00187683,0.00659180,-1.00741577,0.244141,-0.061035,-0.122070
2740017875,0.00196838,0.00625610,-1.00744629,0.244141,0.000000,-0.061035
2744996875,0.00173950,0.00598145,-1.00723267,0.427246,0.061035,0.061035
2750015833,0.00169373,0.00625610,-1.00677490,0.244141,0.061035,0.000000
2755005750,0.00212097,0.00717163,-1.00640869,0.244141,0.000000,-0.061035
2760034000,0.00259399,0.00799561,-1.00653076,0.427246,0.122070,0.000000
2764991375,0.00262451,0.00773621,-1.00700378,0.366211,-0.061035,-0.122070
2770025166,0.00225830,0.00675964,-1.00718689,0.366211,0.061035,0.061035
2774993416,0.00196838,0.00624084,-1.00694275,0.366211,0.000000,-0.183105
2780000333,0.00192261,0.00651550,-1.00646973,0.305176,0.000000,0.000000
2784992166,0.00184631,0.00704956,-1.00601196,0.244141,0.061035,0.000000
2790015083,0.00164795,0.00723267,-1.00596619,0.366211,0.122070,-0.122070
2794994041,0.00175476,0.00704956,-1.00645447,0.244141,0.061035,-0.061035
2800023291,0.00231934,0.00706482,-1.00683594,0.305176,0.244141,-0.122070
2805002375,0.00259399,0.00726318,-1.00646973,0.244141,0.000000,-0.122070
2810072583,0.00230408,0.00746155,-1.00581360,0.305176,0.000000,-0.061035
2815002833,0.00195312,0.00746155,-1.00578308,0.366211,0.183105,0.061035
2820029583,0.00180054,0.00724792,-1.00639343,0.244141,0.061035,-0.122070
2825015875,0.00157166,0.00735474,-1.00703430,0.305176,0.122070,-0.061035
2830011958,0.00135803,0.00769043,-1.00703430,0.305176,0.061035,-0.061035
2835064166,0.00149536,0.00785828,-1.00627136,0.366211,0.122070,0.000000
2840026583,0.00201416,0.00775146,-1.00546265,0.488281,0.122070,-0.061035
2845014166,0.00247192,0.00746155,-1.00552368,0.244141,0.000000,-0.183105
2850026500,0.00219727,0.00711060,-1.00593567,0.427246,0.000000,-0.183105
2854988875,0.00161743,0.00662231,-1.00622559,0.305176,-0.061035,-0.183105
2860013416,0.00129700,0.00614929,-1.00669861,0.244141,0.000000,-0.183105
2865009250,0.00115967,0.00614929,-1.00711060,0.366211,0.122070,0.000000
2870010333,0.00115967,0.00666809,-1.00682068,0.488281,0.000000,0.000000
2875011625,0.00126648,0.00714111,-1.00613403,0.244141,0.122070,-0.061035
2880077291,0.00148010,0.00712585,-1.00579834,0.427246,0.122070,0.000000
2885055916,0.00195312,0.00688171,-1.00598145,0.427246,0.061035,-0.122070
2890023833,0.00253296,0.00671387,-1.00630188,0.183105,0.122070,-0.061035
2894990125,0.00277710,0.00656128,-1.00621033,0.366211,0.061035,-0.061035
2900053333,0.00277710,0.00665283,-1.00559998,0.427246,0.000000,-0.122070
2905015791,0.00283813,0.00703430,-1.00527954,0.366211,0.061035,0.000000
2910049125,0.00291443,0.00715637,-1.00563049,0.427246,0.061035,-0.061035
2915202583,0.00280762,0.00691223,-1.00645447,0.305176,0.061035,-0.183105
2920043708,0.00218201,0.00662231,-1.00744629,0.244141,0.000000,-0.061035
2925015916,0.00119019,0.00656128,-1.00755310,0.305176,0.122070,0.000000
2930079458,0.00061035,0.00688171,-1.00668335,0.305176,-0.061035,-0.061035
2935066458,0.00094604,0.00730896,-1.00610352,0.488281,-0.061035,-0.122070
2940050041,0.00160217,0.00740051,-1.00601196,0.366211,0.061035,-0.122070
2945018875,0.00164795,0.00712585,-1.00610352,0.366211,0.061035,-0.122070
2950087625,0.00120544,0.00704956,-1.00637817,0.305176,0.000000,0.000000
2955013791,0.00091553,0.00723267,-1.00637817,0.183105,0.061035,-0.183105
2960023000,0.00090027,0.00733948,-1.00630188,0.427246,0.183105,-0.061035
2965138041,0.00096130,0.00735474,-1.00637817,0.305176,0.061035,0.000000
2970055791,0.00105286,0.00746155,-1.00628662,0.427246,0.061035,-0.061035
2975034250,0.00144958,0.00776672,-1.00634766,0.305176,0.000000,-0.061035
2980111833,0.00216675,0.00794983,-1.00675964,0.366211,0.122070,-0.122070
2985069500,0.00238037,0.00749207,-1.00701904,0.305176,0.122070,0.000000
2990076375,0.00198364,0.00666809,-1.00692749,0.427246,0.000000,-0.244141
2995203250,0.00204468,0.00621033,-1.00653076,0.305176,0.061035,-0.122070
3000083750,0.00276184,0.00643921,-1.00592041,0.427246,0.000000,-0.122070
3005008625,0.00331116,0.00700378,-1.00564575,0.427246,0.000000,-0.061035
3010034291,0.00303650,0.00717163,-1.00581360,0.183105,0.122070,-0.061035
3015149041,0.00228882,0.00668335,-1.00624084,0.305176,0.000000,-0.061035
3020072375,0.00209045,0.00619507,-1.00660706,0.305176,0.122070,-0.061035
3025060458,0.00239563,0.00617981,-1.00659180,0.244141,0.000000,-0.122070
3030082625,0.00215149,0.00631714,-1.00634766,0.366211,0.000000,-0.122070
3035102416,0.00119019,0.00636292,-1.00610352,0.366211,0.061035,-0.122070
3040048208,0.00073242,0.00634766,-1.00621033,0.488281,0.061035,0.061035
3045213416,0.00112915,0.00639343,-1.00695801,0.427246,0.000000,-0.061035
3050092375,0.00152588,0.00679016,-1.00761414,0.244141,0.000000,0.000000
3055086875,0.00149536,0.00746155,-1.00721741,0.366211,0.000000,-0.122070
3060053208,0.00134277,0.00785828,-1.00627136,0.305176,0.000000,0.000000
3065171916,0.00137329,0.00788879,-1.00578308,0.488281,0.000000,-0.122070
3070117333,0.00144958,0.00782776,-1.00587463,0.305176,0.061035,-0.122070
3075022500,0.00151062,0.00788879,-1.00613403,0.305176,0.122070,0.000000
3080319791,0.00175476,0.00787354,-1.00645447,0.244141,0.122070,0.000000
3085138000,0.00219727,0.00753784,-1.00675964,0.244141,0.000000,-0.122070
3090040625,0.00239563,0.00711060,-1.00669861,0.488281,0.183105,-0.061035
3095169708,0.00225830,0.00708008,-1.00608826,0.305176,0.122070,0.061035
3100123958,0.00178528,0.00735474,-1.00553894,0.366211,0.183105,0.000000
3105023791,0.00146484,0.00758362,-1.00567627,0.427246,0.061035,-0.122070
3110133333,0.00198364,0.00752258,-1.00599670,0.183105,0.000000,-0.122070
3115076583,0.00251770,0.00746155,-1.00572205,0.305176,0.122070,-0.183105
3120067375,0.00207520,0.00750732,-1.00532532,0.427246,0.122070,-0.122070
3125115708,0.00129700,0.00744629,-1.00547791,0.427246,0.183105,-0.183105
3130078958,0.00114441,0.00744629,-1.00614929,0.305176,0.122070,-0.122070
3135095166,0.00138855,0.00756836,-1.00665283,0.183105,0.183105,-0.122070
3140057083,0.00164795,0.00737000,-1.00689697,0.244141,0.122070,-0.122070
3145124666,0.00181580,0.00709534,-1.00701904,0.305176,0.061035,-0.122070
3150133625,0.00172424,0.00718689,-1.00663757,0.305176,0.061035,-0.061035
3155055875,0.00172424,0.00752258,-1.00605774,0.305176,-0.122070,-0.061035
3160073375,0.00225830,0.00753784,-1.00605774,0.244141,0.000000,-0.183105
3165147500,0.00280762,0.00698853,-1.00660706,0.305176,0.122070,-0.061035
3170076416,0.00268555,0.00662231,-1.00698853,0.366211,0.000000,-0.122070
3175074875,0.00212097,0.00677490,-1.00675964,0.366211,0.061035,-0.061035
3180091166,0.00154114,0.00708008,-1.00640869,0.427246,0.061035,0.000000
3185100750,0.00100708,0.00746155,-1.00630188,0.244141,0.183105,-0.122070
3190103875,0.00076294,0.00767517,-1.00645447,0.244141,0.061035,-0.122070
3195096916,0.00119019,0.00750732,-1.00656128,0.305176,0.000000,-0.122070
3200113500,0.00181580,0.00712585,-1.00651550,0.488281,0.122070,-0.122070
3205058458,0.00199890,0.00683594,-1.00648499,0.488281,0.061035,-0.183105
3210173416,0.00161743,0.00691223,-1.00619507,0.427246,0.061035,-0.122070
3215117750,0.00096130,0.00718689,-1.00573730,0.427246,0.061035,-0.061035
3220102833,0.00083923,0.00729370,-1.00587463,0.244141,0.000000,-0.061035
3225121833,0.00163269,0.00708008,-1.00679016,0.305176,0.000000,-0.183105
3230548791,0.00222778,0.00683594,-1.00744629,0.366211,0.122070,-0.183105
3235114750,0.00198364,0.00677490,-1.00697327,0.244141,0.061035,-0.122070
3240117333,0.00198364,0.00685120,-1.00599670,0.366211,0.061035,-0.061035
3245070541,0.00267029,0.00708008,-1.00575256,0.427246,-0.061035,-0.122070
3250077500,0.00283813,0.00706482,-1.00605774,0.305176,0.061035,-0.122070
3255055708,0.00196838,0.00668335,-1.00640869,0.366211,0.061035,-0.061035
3260071458,0.00144958,0.00672913,-1.00691223,0.122070,0.183105,-0.244141
3265244750,0.00189209,0.00750732,-1.00706482,0.244141,-0.122070,-0.122070
3270062125,0.00241089,0.00801086,-1.00663757,0.366211,0.000000,-0.122070
3275068875,0.00221252,0.00759888,-1.00627136,0.305176,0.122070,-0.122070
3280162916,0.00144958,0.00694275,-1.00619507,0.244141,0.061035,-0.061035
3285172208,0.00105286,0.00679016,-1.00608826,0.305176,0.000000,-0.122070
3290073375,0.00122070,0.00698853,-1.00598145,0.366211,0.122070,-0.061035
3295235291,0.00132751,0.00701904,-1.00636292,0.366211,0.000000,-0.122070
3300106666,0.00122070,0.00701904,-1.00723267,0.427246,0.122070,-0.061035
3305078833,0.00126648,0.00729370,-1.00759888,0.244141,0.061035,-0.244141
3310079625,0.00141907,0.00741577,-1.00692749,0.366211,0.122070,-0.122070
3315144500,0.00137329,0.00715637,-1.00613403,0.305176,0.000000,-0.061035
3320069250,0.00137329,0.00709534,-1.00622559,0.366211,0.122070,-0.122070
3325057791,0.00152588,0.00743103,-1.00675964,0.305176,0.061035,-0.061035
3330150625,0.00123596,0.00775146,-1.00720215,0.183105,0.061035,-0.183105
3335152916,0.00088501,0.00765991,-1.00750732,0.427246,0.122070,-0.061035
3340062208,0.00148010,0.00735474,-1.00733948,0.305176,0.000000,0.000000
3345160041,0.00273132,0.00704956,-1.00674438,0.305176,0.183105,-0.061035
3350143833,0.00331116,0.00686646,-1.00631714,0.427246,0.122070,-0.061035
3355098000,0.00280762,0.00703430,-1.00627136,0.366211,0.000000,0.061035
3360422875,0.00222778,0.00747681,-1.00646973,0.305176,0.000000,-0.061035
3365203833,0.00238037,0.00761414,-1.00656128,0.183105,0.122070,0.061035
3370144041,0.00274658,0.00726318,-1.00628662,0.488281,0.061035,-0.061035
3375072833,0.00268555,0.00672913,-1.00619507,0.549316,0.061035,-0.122070
3380162625,0.00250244,0.00662231,-1.00653076,0.366211,0.061035,-0.183105
3385084000,0.00241089,0.00714111,-1.00685120,0.305176,0.061035,0.000000
3390097791,0.00193787,0.00758362,-1.00692749,0.122070,-0.061035,-0.183105
3395105208,0.00125122,0.00752258,-1.00680542,0.305176,0.122070,-0.122070
3400140875,0.00117493,0.00738525,-1.00654602,0.366211,0.061035,-0.183105
3405062083,0.00193787,0.00767517,-1.00617981,0.305176,0.122070,-0.061035
3410087458,0.00273132,0.00805664,-1.00602722,0.366211,0.061035,-0.122070
3415170208,0.00297546,0.00799561,-1.00619507,0.366211,0.061035,-0.061035
3420109791,0.00305176,0.00759888,-1.00643921,0.427246,0.061035,-0.061035
3425070916,0.00288391,0.00744629,-1.00679016,0.244141,0.061035,-0.061035
3430149000,0.00219727,0.00749207,-1.00703430,0.305176,0.000000,-0.061035
3435206625,0.00167847,0.00759888,-1.00675964,0.366211,0.061035,-0.183105
3440115041,0.00173950,0.00791931,-1.00636292,0.305176,0.122070,0.000000
3445171250,0.00183105,0.00807190,-1.00593567,0.305176,-0.061035,-0.061035
3450153416,0.00189209,0.00778198,-1.00540161,0.305176,-0.122070,-0.061035
3455120583,0.00212097,0.00740051,-1.00563049,0.244141,0.122070,-0.061035
3460098958,0.00204468,0.00729370,-1.00659180,0.305176,0.061035,-0.122070
3465162041,0.00173950,0.00753784,-1.00672913,0.305176,0.183105,-0.122070
3470124833,0.00180054,0.00773621,-1.00595093,0.366211,0.122070,-0.122070
3475077625,0.00192261,0.00758362,-1.00593567,0.427246,0.061035,0.000000
3480121791,0.00173950,0.00730896,-1.00685120,0.366211,0.122070,-0.061035
3485140000,0.00161743,0.00688171,-1.00733948,0.366211,0.061035,0.000000
3490103458,0.00163269,0.00608826,-1.00682068,0.488281,0.122070,-0.183105
3495320666,0.00158691,0.00558472,-1.00605774,0.305176,0.183105,-0.061035
3500162875,0.00177002,0.00575256,-1.00593567,0.183105,-0.061035,-0.183105
3505111791,0.00225830,0.00633240,-1.00628662,0.305176,0.000000,-0.061035
3510114208,0.00262451,0.00701904,-1.00668335,0.244141,0.183105,-0.061035
3515162666,0.00247192,0.00740051,-1.00686646,0.244141,0.061035,0.000000
3520088000,0.00207520,0.00721741,-1.00683594,0.366211,0.061035,-0.061035
3525078958,0.00190735,0.00697327,-1.00675964,0.488281,0.061035,-0.122070
3530205083,0.00209045,0.00721741,-1.00628662,0.244141,0.000000,0.000000
3535138375,0.00224304,0.00759888,-1.00535583,0.366211,0.122070,-0.061035
3540140625,0.00210571,0.00769043,-1.00511169,0.366211,0.183105,0.000000
3545300166,0.00210571,0.00770569,-1.00599670,0.366211,0.122070,-0.061035
3550134708,0.00248718,0.00755310,-1.00688171,0.305176,0.061035,0.000000
3555082333,0.00288391,0.00730896,-1.00708008,0.305176,0.122070,0.000000
3560107875,0.00280762,0.00759888,-1.00674438,0.244141,-0.061035,-0.122070
3565177125,0.00230408,0.00823975,-1.00648499,0.244141,-0.061035,-0.061035
3570125625,0.00196838,0.00805664,-1.00666809,0.305176,0.000000,-0.061035
3575080916,0.00202942,0.00718689,-1.00711060,0.244141,0.183105,-0.061035
3580222333,0.00204468,0.00671387,-1.00724792,0.427246,-0.061035,0.000000
3585137875,0.00169373,0.00689697,-1.00672913,0.366211,0.061035,-0.061035
3590116875,0.00129700,0.00724792,-1.00605774,0.305176,0.000000,-0.061035
3595245750,0.00149536,0.00738525,-1.00596619,0.366211,0.061035,-0.061035
3600140875,0.00193787,0.00733948,-1.00648499,0.305176,0.000000,-0.061035
3605096458,0.00192261,0.00730896,-1.00706482,0.244141,0.000000,-0.122070
3610115541,0.00175476,0.00730896,-1.00698853,0.244141,0.000000,-0.122070
3615209291,0.00183105,0.00733948,-1.00614929,0.244141,0.122070,-0.122070
3620100666,0.00198364,0.00744629,-1.00563049,0.366211,0.061035,0.000000
3625106583,0.00225830,0.00733948,-1.00592041,0.244141,0.000000,-0.244141
3630184250,0.00259399,0.00704956,-1.00619507,0.244141,0.061035,-0.122070
3635127583,0.00283813,0.00689697,-1.00622559,0.305176,0.061035,-0.122070
3640119125,0.00309753,0.00692749,-1.00648499,0.305176,0.122070,-0.061035
3645260375,0.00296021,0.00712585,-1.00662231,0.183105,0.061035,0.000000
3650172625,0.00196838,0.00715637,-1.00639343,0.244141,0.061035,-0.061035
3655123791,0.00096130,0.00682068,-1.00593567,0.488281,0.183105,-0.122070
3660123333,0.00086975,0.00668335,-1.00572205,0.366211,0.122070,-0.122070
3665159750,0.00109863,0.00708008,-1.00619507,0.183105,0.000000,-0.183105
3670141458,0.00122070,0.00762939,-1.00672913,0.549316,0.183105,-0.122070
3675114583,0.00132751,0.00788879,-1.00657654,0.244141,0.000000,-0.183105
3680114833,0.00117493,0.00785828,-1.00631714,0.366211,0.122070,0.000000
3685084083,0.00070190,0.00779724,-1.00653076,0.305176,0.000000,-0.122070
3690127166,0.00038147,0.00785828,-1.00671387,0.366211,0.000000,-0.061035
3695147708,0.00056458,0.00785828,-1.00645447,0.305176,0.000000,-0.061035
3700112000,0.00108337,0.00738525,-1.00604248,0.305176,0.061035,-0.183105
3705113791,0.00120544,0.00692749,-1.00605774,0.244141,-0.061035,-0.122070
3710125791,0.00079346,0.00711060,-1.00651550,0.366211,0.061035,0.000000
3715111291,0.00064087,0.00749207,-1.00685120,0.427246,0.122070,-0.061035
3720136958,0.00119019,0.00749207,-1.00668335,0.183105,0.000000,-0.061035
3725124000,0.00184631,0.00720215,-1.00621033,0.305176,0.183105,0.000000
3730116458,0.00198364,0.00697327,-1.00607300,0.305176,0.183105,-0.061035
3735106750,0.00169373,0.00689697,-1.00639343,0.366211,0.122070,-0.122070
3740121125,0.00172424,0.00665283,-1.00657654,0.244141,0.183105,0.000000
3745110791,0.00236511,0.00653076,-1.00646973,0.366211,0.122070,-0.122070
3750121000,0.00280762,0.00691223,-1.00634766,0.366211,0.122070,-0.183105
3755123791,0.00277710,0.00752258,-1.00621033,0.244141,0.061035,-0.183105
3760144041,0.00288391,0.00776672,-1.00601196,0.305176,0.122070,-0.183105
3765087416,0.00291443,0.00737000,-1.00605774,0.305176,0.061035,-0.122070
3770127333,0.00265503,0.00656128,-1.00636292,0.366211,0.122070,-0.122070
3775120500,0.00259399,0.00559998,-1.00662231,0.366211,0.122070,-0.061035
3780149875,0.00279236,0.00517273,-1.00677490,0.305176,0.061035,-0.061035
3785119750,0.00279236,0.00578308,-1.00700378,0.366211,0.000000,-0.122070
3790170250,0.00236511,0.00691223,-1.00685120,0.427246,0.061035,-0.061035
3795126583,0.00181580,0.00746155,-1.00633240,0.366211,0.000000,-0.061035
3800119458,0.00138855,0.00701904,-1.00625610,0.366211,0.122070,-0.183105
3805096916,0.00106812,0.00631714,-1.00645447,0.244141,0.000000,-0.061035
3810139000,0.00105286,0.00639343,-1.00625610,0.366211,0.183105,-0.122070
3815099666,0.00144958,0.00724792,-1.00599670,0.366211,0.000000,-0.122070
3820147416,0.00181580,0.00778198,-1.00637817,0.488281,0.122070,-0.061035
3825101958,0.00180054,0.00759888,-1.00733948,0.305176,0.061035,-0.183105
3830111041,0.00137329,0.00718689,-1.00767517,0.305176,0.061035,-0.061035
3835127375,0.00091553,0.00706482,-1.00694275,0.366211,0.122070,-0.061035
3840132208,0.00141907,0.00755310,-1.00634766,0.427246,-0.122070,-0.122070
3845128833,0.00251770,0.00817871,-1.00665283,0.244141,0.000000,-0.061035
3850159625,0.00311279,0.00840759,-1.00723267,0.366211,-0.122070,-0.061035
3855146958,0.00311279,0.00834656,-1.00735474,0.366211,0.061035,-0.061035
3860132416,0.00276184,0.00817871,-1.00700378,0.488281,0.061035,-0.122070
3865143375,0.00216675,0.00794983,-1.00656128,0.305176,0.122070,-0.122070
3870126875,0.00181580,0.00778198,-1.00640869,0.244141,0.061035,-0.122070
3875101583,0.00199890,0.00765991,-1.00660706,0.305176,0.122070,-0.122070
3880131875,0.00230408,0.00732422,-1.00682068,0.366211,0.061035,-0.183105
3885136208,0.00234985,0.00691223,-1.00694275,0.549316,0.061035,-0.061035
3890143958,0.00205994,0.00674438,-1.00668335,0.122070,-0.061035,-0.122070
3895123500,0.00180054,0.00668335,-1.00621033,0.305176,0.122070,-0.061035
3900174458,0.00169373,0.00656128,-1.00611877,0.305176,0.000000,0.061035
3905134291,0.00160217,0.00659180,-1.00630188,0.366211,0.122070,0.061035
3910247083,0.00161743,0.00668335,-1.00642395,0.366211,0.000000,-0.061035
3915148791,0.00158691,0.00657654,-1.00657654,0.305176,0.061035,-0.183105
3920188250,0.00160217,0.00654602,-1.00695801,0.488281,-0.061035,-0.061035
3925103083,0.00198364,0.00636292,-1.00721741,0.366211,0.000000,-0.061035
3930133875,0.00257874,0.00602722,-1.00689697,0.305176,0.000000,-0.061035
3935136333,0.00294495,0.00610352,-1.00628662,0.488281,0.061035,-0.061035
3940149083,0.00286865,0.00674438,-1.00610352,0.366211,0.000000,0.000000
3945124291,0.00213623,0.00752258,-1.00645447,0.366211,0.061035,-0.122070
3950169333,0.00132751,0.00779724,-1.00701904,0.366211,0.061035,0.000000
3955139291,0.00166321,0.00755310,-1.00724792,0.366211,0.122070,-0.061035
3960142208,0.00248718,0.00730896,-1.00703430,0.366211,0.061035,-0.122070
3965151250,0.00247192,0.00741577,-1.00669861,0.366211,0.122070,-0.122070
3970148333,0.00199890,0.00772095,-1.00660706,0.366211,0.061035,-0.122070
3975138708,0.00175476,0.00767517,-1.00685120,0.244141,0.122070,-0.122070
3980182708,0.00152588,0.00701904,-1.00666809,0.366211,0.000000,-0.122070
3985153750,0.00138855,0.00637817,-1.00593567,0.305176,-0.061035,-0.061035
3990172166,0.00154114,0.00657654,-1.00569153,0.183105,0.183105,0.000000
3995155958,0.00132751,0.00708008,-1.00627136,0.305176,0.061035,-0.061035
4000149666,0.00085449,0.00715637,-1.00680542,0.366211,0.061035,-0.122070
4005117625,0.00086975,0.00714111,-1.00672913,0.366211,0.000000,0.000000
4010149250,0.00132751,0.00729370,-1.00656128,0.305176,0.061035,0.061035
4015163250,0.00167847,0.00761414,-1.00668335,0.183105,0.122070,-0.183105
4020175708,0.00152588,0.00799561,-1.00686646,0.366211,0.000000,0.000000
4025128666,0.00109863,0.00816345,-1.00689697,0.305176,0.183105,-0.061035
4030181958,0.00093079,0.00781250,-1.00683594,0.183105,0.061035,-0.122070
4035146666,0.00099182,0.00737000,-1.00674438,0.366211,0.000000,-0.061035
4040133833,0.00114441,0.00721741,-1.00674438,0.366211,0.000000,-0.061035
4045137750,0.00135803,0.00735474,-1.00683594,0.305176,0.061035,-0.122070
4050183166,0.00160217,0.00750732,-1.00686646,0.366211,0.061035,0.000000
4055209750,0.00195312,0.00743103,-1.00677490,0.366211,-0.061035,-0.061035
4060164250,0.00198364,0.00726318,-1.00654602,0.427246,0.061035,-0.061035
4065128666,0.00167847,0.00689697,-1.00648499,0.427246,0.122070,-0.122070
4070164708,0.00158691,0.00631714,-1.00671387,0.183105,0.061035,-0.183105
4075135666,0.00154114,0.00599670,-1.00686646,0.366211,0.061035,-0.061035
4080139791,0.00135803,0.00627136,-1.00679016,0.244141,0.000000,-0.061035
4085179791,0.00166321,0.00672913,-1.00672913,0.366211,0.061035,-0.122070
4090167625,0.00231934,0.00695801,-1.00677490,0.244141,0.061035,-0.122070
4095184333,0.00245667,0.00708008,-1.00677490,0.305176,0.000000,-0.061035
4100161833,0.00248718,0.00701904,-1.00683594,0.427246,0.000000,-0.183105
4105157333,0.00286865,0.00686646,-1.00694275,0.305176,0.122070,-0.183105
4110173083,0.00306702,0.00679016,-1.00680542,0.244141,0.000000,-0.183105
4115176583,0.00268555,0.00680542,-1.00633240,0.305176,0.061035,-0.183105
4120184083,0.00184631,0.00682068,-1.00592041,0.488281,0.061035,-0.061035
4125137541,0.00112915,0.00682068,-1.00605774,0.244141,0.122070,-0.122070
4130132583,0.00109863,0.00682068,-1.00685120,0.366211,-0.061035,-0.122070
4135161541,0.00160217,0.00685120,-1.00750732,0.244141,0.061035,-0.122070
4140156375,0.00192261,0.00709534,-1.00709534,0.305176,0.122070,-0.061035
4145136708,0.00175476,0.00738525,-1.00582886,0.366211,0.061035,-0.061035
4150180750,0.00138855,0.00741577,-1.00486755,0.366211,0.122070,-0.122070
4155169791,0.00112915,0.00738525,-1.00514221,0.366211,0.183105,-0.061035
4160153750,0.00122070,0.00753784,-1.00631714,0.305176,0.061035,-0.122070
4165132541,0.00160217,0.00762939,-1.00741577,0.244141,0.061035,-0.122070
4170154125,0.00190735,0.00750732,-1.00779724,0.244141,0.122070,-0.061035
4175145666,0.00183105,0.00755310,-1.00740051,0.244141,0.122070,0.000000
4180152916,0.00177002,0.00772095,-1.00671387,0.244141,0.183105,0.000000
4185159083,0.00213623,0.00762939,-1.00651550,0.244141,0.061035,-0.122070
4190156500,0.00265503,0.00738525,-1.00712585,0.305176,-0.061035,-0.061035
4195144708,0.00256348,0.00726318,-1.00762939,0.366211,0.061035,-0.061035
4200186458,0.00196838,0.00727844,-1.00717163,0.183105,0.000000,-0.061035
4205149333,0.00172424,0.00726318,-1.00636292,0.244141,-0.061035,-0.183105
4210184291,0.00210571,0.00701904,-1.00627136,0.366211,0.122070,-0.061035
4215145458,0.00234985,0.00668335,-1.00685120,0.305176,0.122070,-0.122070
4220175500,0.00195312,0.00662231,-1.00694275,0.122070,0.061035,-0.061035
4225191208,0.00125122,0.00683594,-1.00633240,0.305176,0.122070,-0.183105
4230184958,0.00100708,0.00715637,-1.00579834,0.366211,0.122070,-0.122070
4235162541,0.00126648,0.00752258,-1.00546265,0.366211,0.061035,-0.122070
4240159875,0.00158691,0.00749207,-1.00514221,0.366211,0.061035,-0.122070
4245159583,0.00186157,0.00689697,-1.00517273,0.305176,0.061035,-0.122070
4250193333,0.00178528,0.00634766,-1.00564575,0.366211,0.000000,-0.061035
4255163666,0.00131226,0.00636292,-1.00636292,0.305176,0.122070,-0.122070
4260201708,0.00111389,0.00671387,-1.00708008,0.366211,0.061035,-0.183105
4265281791,0.00126648,0.00708008,-1.00733948,0.244141,0.122070,-0.061035
4270177166,0.00141907,0.00732422,-1.00711060,0.305176,0.000000,-0.061035
4275146750,0.00160217,0.00755310,-1.00685120,0.183105,-0.122070,-0.061035
4280190333,0.00151062,0.00775146,-1.00680542,0.183105,0.122070,0.061035
4285174833,0.00114441,0.00765991,-1.00675964,0.305176,0.183105,0.000000
4290207416,0.00091553,0.00729370,-1.00640869,0.427246,0.122070,0.000000
4295146250,0.00111389,0.00724792,-1.00619507,0.366211,0.000000,-0.061035
4300176583,0.00158691,0.00750732,-1.00668335,0.366211,0.122070,0.000000
4305148250,0.00164795,0.00752258,-1.00724792,0.427246,0.061035,-0.061035
4310179375,0.00112915,0.00741577,-1.00730896,0.305176,0.000000,-0.061035
4315173041,0.00090027,0.00752258,-1.00714111,0.244141,-0.061035,0.000000
4320200958,0.00126648,0.00761414,-1.00680542,0.427246,0.061035,-0.122070
4325175541,0.00175476,0.00747681,-1.00634766,0.244141,0.000000,-0.122070
4330255333,0.00201416,0.00741577,-1.00611877,0.366211,0.061035,-0.061035
4335163875,0.00213623,0.00744629,-1.00619507,0.366211,0.000000,-0.122070
4340178791,0.00230408,0.00718689,-1.00628662,0.305176,0.122070,-0.122070
4345169333,0.00215149,0.00668335,-1.00660706,0.305176,0.061035,-0.061035
4350187875,0.00158691,0.00659180,-1.00712585,0.366211,0.183105,-0.061035
4355165000,0.00122070,0.00698853,-1.00741577,0.366211,0.122070,-0.122070
4360179791,0.00141907,0.00715637,-1.00733948,0.305176,0.122070,-0.183105
4365161708,0.00198364,0.00695801,-1.00697327,0.366211,0.061035,0.000000
4370193250,0.00231934,0.00675964,-1.00646973,0.305176,0.061035,-0.061035
4375164875,0.00205994,0.00648499,-1.00639343,0.366211,0.183105,-0.061035
4380195833,0.00158691,0.00602722,-1.00675964,0.305176,0.061035,-0.122070
4385185291,0.00154114,0.00573730,-1.00695801,0.305176,0.000000,-0.183105
4390219958,0.00198364,0.00575256,-1.00659180,0.366211,0.061035,-0.061035
4395202083,0.00236511,0.00593567,-1.00604248,0.427246,0.122070,-0.122070
4400192791,0.00248718,0.00628662,-1.00578308,0.366211,0.061035,-0.122070
4405181500,0.00260925,0.00677490,-1.00584412,0.244141,0.061035,-0.061035
4410192375,0.00250244,0.00726318,-1.00627136,0.244141,0.122070,-0.061035
4415243291,0.00181580,0.00782776,-1.00683594,0.427246,0.000000,-0.122070
4420200208,0.00125122,0.00831604,-1.00663757,0.488281,0.000000,-0.061035
4425185208,0.00126648,0.00805664,-1.00588989,0.366211,0.061035,-0.061035
4430207166,0.00164795,0.00738525,-1.00598145,0.305176,0.122070,-0.061035
4435182541,0.00228882,0.00724792,-1.00679016,0.305176,-0.061035,-0.061035
4440183208,0.00267029,0.00758362,-1.00691223,0.366211,0.122070,0.000000
4445203958,0.00215149,0.00764465,-1.00602722,0.366211,0.061035,-0.061035
4450217833,0.00155640,0.00741577,-1.00509644,0.305176,-0.061035,-0.183105
4455208750,0.00207520,0.00721741,-1.00506592,0.366211,0.000000,-0.061035
4460191958,0.00297546,0.00700378,-1.00595093,0.305176,0.061035,-0.122070
4465177875,0.00317383,0.00680542,-1.00682068,0.427246,0.000000,-0.183105
4470209541,0.00279236,0.00659180,-1.00697327,0.305176,0.183105,0.000000
4475187333,0.00228882,0.00650024,-1.00675964,0.366211,0.000000,-0.061035
4480219083,0.00183105,0.00680542,-1.00653076,0.427246,-0.061035,0.000000
4485217375,0.00160217,0.00711060,-1.00645447,0.305176,0.000000,-0.061035
4490209500,0.00177002,0.00708008,-1.00663757,0.305176,0.000000,-0.122070
4495203500,0.00213623,0.00723267,-1.00665283,0.244141,0.000000,-0.122070
4500202333,0.00219727,0.00761414,-1.00633240,0.366211,0.000000,-0.122070
4505195958,0.00201416,0.00765991,-1.00619507,0.183105,0.061035,-0.183105
4510207791,0.00186157,0.00741577,-1.00617981,0.305176,0.061035,-0.122070
4515220208,0.00166321,0.00726318,-1.00596619,0.366211,0.122070,0.061035
4520284666,0.00160217,0.00727844,-1.00578308,0.305176,0.061035,-0.122070
4525201708,0.00213623,0.00730896,-1.00596619,0.488281,0.122070,-0.122070
4530197083,0.00300598,0.00730896,-1.00625610,0.305176,0.000000,-0.061035
4535186750,0.00337219,0.00714111,-1.00665283,0.244141,0.061035,-0.122070
4540202583,0.00303650,0.00672913,-1.00732422,0.305176,0.061035,0.061035
4545180833,0.00242615,0.00636292,-1.00747681,0.305176,0.122070,0.000000
4550246250,0.00204468,0.00634766,-1.00688171,0.244141,0.061035,0.000000
4555224833,0.00219727,0.00668335,-1.00628662,0.366211,0.122070,-0.122070
4560241000,0.00230408,0.00711060,-1.00605774,0.366211,0.183105,-0.061035
4565219041,0.00189209,0.00740051,-1.00633240,0.427246,0.122070,-0.061035
4570207833,0.00146484,0.00762939,-1.00680542,0.366211,0.061035,-0.183105
4575190833,0.00149536,0.00769043,-1.00660706,0.366211,0.061035,0.061035
4580234958,0.00183105,0.00741577,-1.00585938,0.427246,0.122070,-0.061035
4585194083,0.00213623,0.00723267,-1.00559998,0.305176,0.122070,-0.183105
4590238708,0.00227356,0.00727844,-1.00602722,0.427246,0.122070,-0.061035
4595203000,0.00213623,0.00733948,-1.00633240,0.244141,0.061035,-0.122070
4600211458,0.00186157,0.00732422,-1.00646973,0.305176,0.000000,-0.122070
4605206916,0.00183105,0.00733948,-1.00645447,0.427246,0.122070,-0.061035
4610216000,0.00215149,0.00750732,-1.00588989,0.366211,0.061035,-0.122070
4615247250,0.00236511,0.00769043,-1.00518799,0.183105,0.000000,-0.183105
4620242958,0.00209045,0.00747681,-1.00531006,0.244141,0.122070,-0.061035
4625286166,0.00164795,0.00688171,-1.00619507,0.305176,0.122070,-0.122070
4630208916,0.00157166,0.00637817,-1.00671387,0.244141,0.122070,-0.061035
4635191708,0.00151062,0.00624084,-1.00648499,0.366211,0.000000,-0.122070
4640202666,0.00109863,0.00634766,-1.00648499,0.305176,0.122070,0.000000
4645203250,0.00057983,0.00662231,-1.00675964,0.305176,0.000000,-0.183105
4650240291,0.00054932,0.00695801,-1.00646973,0.244141,0.061035,-0.122070
4655222041,0.00114441,0.00724792,-1.00573730,0.305176,0.000000,-0.122070
4660220625,0.00178528,0.00726318,-1.00559998,0.366211,-0.061035,-0.061035
4665204166,0.00186157,0.00701904,-1.00634766,0.183105,0.061035,-0.122070
4670221416,0.00189209,0.00680542,-1.00715637,0.244141,0.000000,-0.122070
4675208375,0.00244141,0.00677490,-1.00712585,0.305176,0.000000,0.000000
4680231291,0.00259399,0.00680542,-1.00625610,0.427246,0.122070,-0.061035
4685252541,0.00202942,0.00682068,-1.00564575,0.366211,0.061035,-0.122070
4690245208,0.00186157,0.00672913,-1.00604248,0.183105,0.000000,-0.122070
4695239208,0.00230408,0.00640869,-1.00692749,0.366211,0.000000,0.000000
4700226791,0.00279236,0.00602722,-1.00741577,0.427246,0.122070,-0.061035
4705216541,0.00277710,0.00604248,-1.00729370,0.305176,0.061035,-0.061035
4710232041,0.00227356,0.00650024,-1.00686646,0.305176,0.061035,-0.061035
4715217500,0.00175476,0.00685120,-1.00683594,0.366211,0.061035,-0.061035
4720272500,0.00151062,0.00698853,-1.00715637,0.427246,0.061035,-0.061035
4725223291,0.00148010,0.00721741,-1.00708008,0.366211,0.000000,-0.061035
4730285291,0.00164795,0.00756836,-1.00624084,0.305176,0.183105,-0.061035
4735217625,0.00189209,0.00761414,-1.00529480,0.305176,0.000000,-0.061035
4740228666,0.00204468,0.00711060,-1.00514221,0.427246,0.183105,-0.061035
4745194958,0.00221252,0.00654602,-1.00582886,0.244141,0.000000,-0.122070
4750245083,0.00227356,0.00646973,-1.00645447,0.305176,0.061035,-0.061035
4755249708,0.00244141,0.00654602,-1.00642395,0.244141,0.122070,-0.061035
4760219416,0.00268555,0.00643921,-1.00624084,0.366211,0.061035,-0.122070
4765205541,0.00267029,0.00637817,-1.00617981,0.244141,0.061035,0.000000
4770225125,0.00267029,0.00662231,-1.00599670,0.366211,-0.061035,-0.122070
4775221166,0.00279236,0.00694275,-1.00576782,0.183105,-0.061035,-0.122070
4780228500,0.00274658,0.00672913,-1.00607300,0.366211,0.000000,-0.061035
4785222875,0.00251770,0.00624084,-1.00685120,0.244141,0.122070,0.000000
4790256708,0.00230408,0.00637817,-1.00720215,0.305176,0.061035,0.000000
4795221500,0.00207520,0.00691223,-1.00683594,0.183105,0.061035,-0.183105
4800236333,0.00195312,0.00694275,-1.00650024,0.183105,0.061035,-0.061035
4805223833,0.00222778,0.00665283,-1.00674438,0.305176,0.122070,-0.061035
4810236958,0.00280762,0.00653076,-1.00711060,0.366211,0.000000,-0.183105
4815241125,0.00308228,0.00662231,-1.00741577,0.305176,0.000000,-0.183105
4820262583,0.00289917,0.00692749,-1.00752258,0.305176,0.000000,0.000000
4825205958,0.00228882,0.00735474,-1.00695801,0.305176,0.061035,-0.061035
4830238791,0.00172424,0.00755310,-1.00596619,0.488281,0.061035,-0.061035
4835280791,0.00173950,0.00727844,-1.00546265,0.305176,0.061035,-0.061035
4840228041,0.00216675,0.00708008,-1.00567627,0.427246,0.061035,0.122070
4845224791,0.00253296,0.00709534,-1.00595093,0.488281,0.122070,0.061035
4850252291,0.00233459,0.00708008,-1.00605774,0.366211,0.061035,-0.183105
4855254625,0.00152588,0.00698853,-1.00628662,0.305176,0.061035,-0.183105
4860232833,0.00102234,0.00724792,-1.00648499,0.305176,0.000000,0.000000
4865203500,0.00131226,0.00784302,-1.00614929,0.366211,0.000000,0.000000
4870213916,0.00195312,0.00813293,-1.00593567,0.305176,0.061035,-0.061035
4875222166,0.00227356,0.00778198,-1.00651550,0.366211,0.061035,-0.061035
4880238000,0.00195312,0.00721741,-1.00721741,0.366211,0.061035,-0.061035
4885226333,0.00122070,0.00692749,-1.00718689,0.244141,0.000000,-0.122070
4890278333,0.00079346,0.00706482,-1.00634766,0.305176,0.061035,-0.122070
4895259041,0.00129700,0.00715637,-1.00555420,0.305176,0.061035,-0.061035
4900250041,0.00209045,0.00689697,-1.00561523,0.244141,0.061035,-0.244141
4905233875,0.00219727,0.00665283,-1.00639343,0.366211,0.183105,-0.122070
4910239083,0.00175476,0.00686646,-1.00706482,0.427246,0.061035,-0.061035
4915276583,0.00137329,0.00712585,-1.00694275,0.305176,0.122070,-0.061035
4920267375,0.00135803,0.00685120,-1.00650024,0.427246,0.061035,-0.061035
4925240041,0.00172424,0.00646973,-1.00631714,0.305176,0.061035,-0.244141
4930246291,0.00219727,0.00662231,-1.00650024,0.366211,0.122070,0.000000
4935232250,0.00218201,0.00720215,-1.00663757,0.183105,0.000000,0.000000
4940253583,0.00157166,0.00747681,-1.00625610,0.427246,0.061035,-0.061035
4945225083,0.00126648,0.00727844,-1.00582886,0.305176,0.000000,0.000000
4950245666,0.00180054,0.00704956,-1.00593567,0.305176,0.122070,-0.122070
4955268041,0.00259399,0.00714111,-1.00628662,0.427246,0.000000,-0.122070
4960254750,0.00282288,0.00737000,-1.00643921,0.305176,0.183105,-0.122070
4965258625,0.00257874,0.00770569,-1.00642395,0.488281,0.000000,-0.061035
4970252958,0.00227356,0.00808716,-1.00645447,0.366211,0.122070,-0.061035
4975245000,0.00181580,0.00808716,-1.00665283,0.305176,0.122070,-0.122070
4980271125,0.00144958,0.00762939,-1.00656128,0.427246,0.061035,-0.061035
4985257500,0.00181580,0.00708008,-1.00599670,0.244141,-0.061035,0.000000
4990246125,0.00254822,0.00659180,-1.00556946,0.305176,0.061035,-0.061035
4995262083,0.00271606,0.00639343,-1.00592041,0.305176,0.122070,-0.122070
5000258375,0.00225830,0.00668335,-1.00674438,0.305176,0.061035,0.000000
5005242958,0.00189209,0.00715637,-1.00712585,0.488281,0.244141,0.000000
5010269708,0.00198364,0.00743103,-1.00653076,0.305176,0.061035,-0.061035
5015240000,0.00257874,0.00759888,-1.00579834,0.427246,0.183105,-0.122070
5020287000,0.00338745,0.00749207,-1.00608826,0.244141,0.122070,-0.183105
5025241541,0.00357056,0.00706482,-1.00712585,0.427246,0.061035,-0.061035
5030241250,0.00263977,0.00672913,-1.00785828,0.488281,0.183105,-0.061035
5035232375,0.00138855,0.00669861,-1.00796509,0.305176,-0.061035,-0.122070
5040257291,0.00082397,0.00712585,-1.00769043,0.366211,-0.061035,-0.183105
5045314500,0.00102234,0.00758362,-1.00712585,0.427246,0.183105,-0.122070
5050262458,0.00129700,0.00765991,-1.00650024,0.305176,-0.061035,-0.183105
5055269041,0.00111389,0.00753784,-1.00639343,0.366211,-0.061035,-0.122070
5060287333,0.00088501,0.00738525,-1.00682068,0.305176,0.061035,0.000000
5065239083,0.00108337,0.00724792,-1.00706482,0.427246,0.000000,-0.061035
5070248083,0.00154114,0.00703430,-1.00695801,0.366211,0.122070,-0.244141
5075254833,0.00190735,0.00695801,-1.00672913,0.244141,0.000000,0.000000
5080258916,0.00195312,0.00744629,-1.00634766,0.244141,0.061035,-0.183105
5085322958,0.00180054,0.00807190,-1.00601196,0.305176,0.061035,-0.244141
5090282791,0.00175476,0.00814819,-1.00616455,0.244141,0.122070,-0.122070
5095259000,0.00160217,0.00796509,-1.00663757,0.183105,0.122070,-0.122070
5100257583,0.00108337,0.00784302,-1.00677490,0.244141,0.122070,-0.061035
5105256166,0.00073242,0.00738525,-1.00648499,0.427246,0.061035,0.000000
5110278041,0.00103760,0.00669861,-1.00633240,0.366211,-0.061035,-0.122070
5115274958,0.00158691,0.00640869,-1.00671387,0.366211,0.061035,0.000000
5120267083,0.00238037,0.00677490,-1.00743103,0.427246,0.061035,0.061035
5125236166,0.00314331,0.00724792,-1.00770569,0.427246,0.183105,0.000000
5130262208,0.00296021,0.00738525,-1.00741577,0.305176,0.000000,-0.061035
5135249333,0.00209045,0.00704956,-1.00697327,0.244141,-0.061035,0.000000
5140262875,0.00190735,0.00654602,-1.00665283,0.366211,0.061035,-0.061035
5145245458,0.00241089,0.00633240,-1.00613403,0.244141,0.122070,0.000000
5150346958,0.00242615,0.00669861,-1.00556946,0.366211,0.000000,-0.122070
5155273000,0.00186157,0.00735474,-1.00592041,0.305176,0.000000,-0.061035
5160264750,0.00172424,0.00752258,-1.00689697,0.183105,-0.061035,-0.122070
5165261833,0.00230408,0.00694275,-1.00727844,0.305176,0.061035,-0.122070
5170268625,0.00271606,0.00633240,-1.00698853,0.366211,0.061035,-0.061035
5175258958,0.00239563,0.00630188,-1.00656128,0.366211,-0.122070,-0.122070
5180294625,0.00196838,0.00639343,-1.00642395,0.305176,0.061035,0.000000
5185289041,0.00186157,0.00636292,-1.00656128,0.549316,0.061035,-0.122070
5190298500,0.00205994,0.00648499,-1.00665283,0.244141,0.061035,-0.122070
5195255250,0.00233459,0.00680542,-1.00657654,0.366211,0.122070,-0.122070
5200286000,0.00247192,0.00714111,-1.00627136,0.427246,0.122070,-0.061035
5205255375,0.00244141,0.00737000,-1.00595093,0.366211,-0.061035,-0.061035
5210357333,0.00222778,0.00749207,-1.00582886,0.366211,0.122070,-0.122070
5215298625,0.00198364,0.00720215,-1.00596619,0.244141,0.000000,-0.122070
5220279166,0.00184631,0.00683594,-1.00645447,0.427246,0.122070,-0.061035
5225279833,0.00166321,0.00694275,-1.00704956,0.366211,0.000000,-0.061035
5230267375,0.00148010,0.00726318,-1.00703430,0.366211,0.000000,-0.122070
5235252541,0.00135803,0.00740051,-1.00611877,0.244141,0.000000,0.000000
5240278958,0.00119019,0.00753784,-1.00538635,0.244141,0.061035,-0.122070
5245264416,0.00115967,0.00758362,-1.00593567,0.488281,0.183105,0.061035
5250307083,0.00157166,0.00712585,-1.00701904,0.427246,0.183105,-0.061035
5255334125,0.00216675,0.00666809,-1.00749207,0.305176,0.061035,0.000000
5260269416,0.00247192,0.00682068,-1.00724792,0.366211,0.061035,-0.183105
5265283916,0.00230408,0.00741577,-1.00674438,0.366211,0.061035,-0.122070
5270272083,0.00199890,0.00794983,-1.00625610,0.305176,0.000000,-0.061035
5275259875,0.00189209,0.00785828,-1.00592041,0.427246,0.000000,-0.061035
5280316458,0.00186157,0.00717163,-1.00588989,0.244141,0.061035,-0.061035
5285281458,0.00173950,0.00653076,-1.00598145,0.305176,0.000000,0.000000
5290291958,0.00173950,0.00645447,-1.00592041,0.305176,0.122070,-0.061035
5295293958,0.00183105,0.00680542,-1.00569153,0.366211,0.000000,0.000000
5300288125,0.00170898,0.00733948,-1.00556946,0.366211,0.061035,-0.061035
5305286000,0.00158691,0.00764465,-1.00573730,0.366211,0.061035,-0.061035
5310284375,0.00173950,0.00744629,-1.00595093,0.305176,0.000000,-0.061035
5315288083,0.00193787,0.00700378,-1.00624084,0.549316,0.061035,-0.122070
5320303916,0.00192261,0.00675964,-1.00662231,0.366211,-0.061035,0.122070
5325260791,0.00184631,0.00675964,-1.00672913,0.183105,0.122070,0.000000
5330287166,0.00205994,0.00685120,-1.00625610,0.488281,0.122070,0.122070
5335279666,0.00251770,0.00712585,-1.00588989,0.427246,0.000000,-0.122070
5340283291,0.00242615,0.00753784,-1.00633240,0.488281,0.183105,-0.122070
5345264833,0.00157166,0.00775146,-1.00703430,0.427246,0.122070,-0.061035
5350308000,0.00073242,0.00781250,-1.00714111,0.427246,0.061035,-0.061035
5355304500,0.00070190,0.00743103,-1.00682068,0.366211,0.122070,-0.244141
5360324375,0.00126648,0.00694275,-1.00646973,0.244141,-0.122070,-0.122070
5365267625,0.00199890,0.00698853,-1.00631714,0.305176,0.061035,-0.122070
5370280500,0.00276184,0.00721741,-1.00639343,0.305176,0.061035,-0.061035
5375283541,0.00308228,0.00704956,-1.00672913,0.183105,0.061035,-0.122070
5380281916,0.00273132,0.00665283,-1.00689697,0.305176,0.000000,-0.183105
5385306375,0.00221252,0.00671387,-1.00645447,0.305176,0.061035,-0.244141
5390328541,0.00196838,0.00744629,-1.00595093,0.488281,0.061035,0.000000
5395317750,0.00213623,0.00788879,-1.00595093,0.366211,0.061035,-0.122070
5400300625,0.00231934,0.00746155,-1.00602722,0.244141,0.122070,-0.122070
5405285375,0.00216675,0.00672913,-1.00573730,0.122070,0.000000,-0.183105
5410298916,0.00198364,0.00640869,-1.00555420,0.366211,0.061035,-0.122070
5415310041,0.00209045,0.00657654,-1.00573730,0.366211,0.061035,-0.061035
5420317916,0.00216675,0.00675964,-1.00608826,0.244141,0.122070,-0.122070
5425279708,0.00181580,0.00666809,-1.00621033,0.122070,0.122070,-0.122070
5430292916,0.00129700,0.00660706,-1.00576782,0.244141,0.000000,-0.122070
5435285875,0.00079346,0.00660706,-1.00537109,0.488281,0.000000,-0.183105
5440299458,0.00057983,0.00675964,-1.00564575,0.244141,0.061035,-0.183105
5445283916,0.00077820,0.00698853,-1.00611877,0.244141,0.122070,-0.122070
5450330375,0.00082397,0.00677490,-1.00595093,0.244141,0.061035,-0.183105
5455294625,0.00074768,0.00633240,-1.00552368,0.244141,0.122070,-0.061035
5460581583,0.00097656,0.00639343,-1.00592041,0.488281,0.000000,-0.061035
5465298375,0.00140381,0.00691223,-1.00674438,0.244141,-0.061035,-0.061035
5470316291,0.00178528,0.00724792,-1.00685120,0.305176,0.061035,-0.183105
5475296291,0.00196838,0.00695801,-1.00650024,0.305176,0.122070,-0.183105
5480320500,0.00193787,0.00654602,-1.00648499,0.305176,0.000000,-0.244141
5485297791,0.00172424,0.00686646,-1.00674438,0.244141,0.061035,-0.061035
5490335291,0.00175476,0.00750732,-1.00701904,0.366211,0.122070,-0.061035
5495343666,0.00212097,0.00755310,-1.00733948,0.305176,0.061035,-0.061035
5500300708,0.00221252,0.00708008,-1.00726318,0.305176,0.000000,-0.122070
5505310000,0.00202942,0.00659180,-1.00653076,0.305176,0.000000,0.000000
5510422125,0.00192261,0.00634766,-1.00604248,0.244141,0.122070,0.061035
5515341208,0.00210571,0.00653076,-1.00633240,0.488281,0.000000,-0.061035
5520332500,0.00256348,0.00701904,-1.00674438,0.244141,0.000000,-0.061035
5525275291,0.00262451,0.00737000,-1.00675964,0.244141,-0.061035,-0.122070
5530306541,0.00195312,0.00753784,-1.00686646,0.305176,0.061035,-0.061035
5535349625,0.00120544,0.00746155,-1.00723267,0.366211,0.061035,0.000000
5540294500,0.00114441,0.00708008,-1.00717163,0.366211,0.183105,-0.183105
5545290458,0.00167847,0.00646973,-1.00679016,0.305176,0.061035,-0.061035
5550326666,0.00227356,0.00616455,-1.00651550,0.244141,0.061035,-0.183105
5555349125,0.00270081,0.00642395,-1.00640869,0.305176,0.061035,0.000000
5560316291,0.00292969,0.00665283,-1.00648499,0.366211,0.122070,-0.122070
5565349791,0.00296021,0.00643921,-1.00654602,0.305176,0.000000,0.000000
5570326416,0.00276184,0.00633240,-1.00646973,0.488281,0.122070,-0.122070
5575300500,0.00230408,0.00675964,-1.00624084,0.244141,0.061035,-0.183105
5580334208,0.00175476,0.00706482,-1.00596619,0.488281,0.122070,0.000000
5585299166,0.00152588,0.00672913,-1.00588989,0.305176,0.183105,-0.061035
5590380208,0.00167847,0.00643921,-1.00605774,0.183105,0.000000,-0.122070
5595320291,0.00175476,0.00660706,-1.00610352,0.427246,0.000000,-0.122070
5600320333,0.00170898,0.00683594,-1.00610352,0.366211,0.122070,-0.061035
5605306708,0.00180054,0.00682068,-1.00663757,0.244141,-0.122070,0.000000
5610326083,0.00183105,0.00659180,-1.00746155,0.366211,0.122070,0.000000
5615394166,0.00181580,0.00654602,-1.00782776,0.244141,0.122070,-0.122070
5620347416,0.00212097,0.00671387,-1.00752258,0.244141,0.061035,-0.183105
5625321875,0.00260925,0.00685120,-1.00689697,0.305176,0.122070,0.000000
5630322750,0.00263977,0.00682068,-1.00625610,0.244141,0.061035,-0.122070
5635314291,0.00210571,0.00659180,-1.00584412,0.366211,0.000000,-0.122070
5640313541,0.00192261,0.00624084,-1.00595093,0.366211,0.122070,-0.122070
5645302833,0.00244141,0.00617981,-1.00619507,0.366211,0.183105,-0.183105
5650324958,0.00280762,0.00651550,-1.00614929,0.305176,0.061035,-0.061035
5655386791,0.00263977,0.00682068,-1.00617981,0.366211,0.122070,-0.061035
5660326375,0.00230408,0.00671387,-1.00660706,0.244141,0.122070,-0.122070
5665298000,0.00175476,0.00625610,-1.00688171,0.366211,0.122070,-0.061035
5670318500,0.00117493,0.00592041,-1.00637817,0.305176,-0.061035,-0.061035
5675303000,0.00117493,0.00619507,-1.00564575,0.305176,0.061035,-0.061035
5680346541,0.00201416,0.00697327,-1.00556946,0.305176,0.122070,-0.061035
5685297791,0.00282288,0.00758362,-1.00605774,0.366211,0.061035,-0.122070
5690358125,0.00288391,0.00758362,-1.00628662,0.244141,0.122070,-0.061035
5695340458,0.00251770,0.00735474,-1.00614929,0.366211,0.000000,-0.061035
5700325500,0.00210571,0.00724792,-1.00634766,0.488281,0.122070,-0.122070
5705302083,0.00155640,0.00714111,-1.00714111,0.305176,0.122070,0.000000
5710352875,0.00123596,0.00695801,-1.00765991,0.305176,0.122070,-0.061035
5715342041,0.00164795,0.00698853,-1.00773621,0.244141,0.061035,-0.183105
5720388708,0.00241089,0.00711060,-1.00773621,0.305176,0.122070,-0.122070
5725339250,0.00245667,0.00689697,-1.00753784,0.183105,0.061035,0.000000
5730344500,0.00198364,0.00666809,-1.00689697,0.305176,0.061035,0.000000
5735308833,0.00178528,0.00704956,-1.00613403,0.305176,0.000000,-0.122070
5740333833,0.00196838,0.00753784,-1.00596619,0.366211,0.183105,0.000000
5745314750,0.00228882,0.00729370,-1.00642395,0.183105,-0.061035,-0.183105
5750367500,0.00241089,0.00660706,-1.00679016,0.366211,0.000000,-0.183105
5755350958,0.00212097,0.00642395,-1.00695801,0.427246,0.061035,-0.061035
5760329208,0.00163269,0.00689697,-1.00698853,0.366211,0.122070,-0.061035
5765311833,0.00138855,0.00732422,-1.00650024,0.366211,0.000000,-0.183105
5770332458,0.00140381,0.00740051,-1.00611877,0.305176,0.000000,0.000000
5775331666,0.00167847,0.00730896,-1.00642395,0.366211,0.061035,0.000000
5780369500,0.00230408,0.00703430,-1.00657654,0.244141,0.122070,-0.061035
5785327541,0.00268555,0.00654602,-1.00608826,0.366211,0.000000,-0.122070
5790358375,0.00233459,0.00605774,-1.00558472,0.366211,0.061035,0.061035
5795326625,0.00216675,0.00596619,-1.00569153,0.488281,0.000000,-0.305176
5800340916,0.00270081,0.00646973,-1.00625610,0.366211,0.122070,-0.061035
5805320000,0.00297546,0.00712585,-1.00677490,0.244141,0.122070,-0.061035
5810333666,0.00259399,0.00730896,-1.00703430,0.305176,0.061035,0.000000
5815347958,0.00207520,0.00691223,-1.00711060,0.244141,0.000000,0.000000
5820379125,0.00186157,0.00642395,-1.00682068,0.305176,-0.061035,-0.122070
5825405708,0.00196838,0.00634766,-1.00642395,0.183105,0.000000,-0.183105
5830334708,0.00207520,0.00679016,-1.00628662,0.244141,0.183105,0.000000
5835333791,0.00181580,0.00743103,-1.00633240,0.366211,0.061035,0.000000
5840351833,0.00158691,0.00782776,-1.00650024,0.366211,0.061035,-0.061035
5845316250,0.00151062,0.00781250,-1.00663757,0.244141,0.000000,-0.122070
5850363666,0.00131226,0.00740051,-1.00640869,0.366211,0.061035,-0.122070
5855348250,0.00125122,0.00686646,-1.00598145,0.366211,0.000000,-0.183105
5860336708,0.00155640,0.00648499,-1.00561523,0.366211,0.061035,-0.122070
5865328125,0.00205994,0.00646973,-1.00553894,0.427246,0.000000,-0.122070
5870332375,0.00244141,0.00685120,-1.00584412,0.305176,0.000000,-0.061035
5875311458,0.00250244,0.00708008,-1.00643921,0.305176,0.000000,-0.122070
5880339708,0.00238037,0.00701904,-1.00703430,0.244141,0.000000,-0.061035
5885353208,0.00201416,0.00721741,-1.00700378,0.549316,0.061035,-0.061035
5890370500,0.00158691,0.00765991,-1.00627136,0.488281,0.122070,-0.061035
5895360375,0.00164795,0.00798035,-1.00575256,0.244141,-0.061035,-0.061035
5900350166,0.00231934,0.00798035,-1.00596619,0.244141,-0.122070,-0.122070
5905322625,0.00291443,0.00761414,-1.00637817,0.366211,0.061035,-0.061035
5910347291,0.00317383,0.00730896,-1.00677490,0.244141,0.000000,-0.122070
5915367208,0.00350952,0.00733948,-1.00695801,0.305176,0.000000,-0.122070
5920378958,0.00369263,0.00759888,-1.00646973,0.183105,0.000000,-0.122070
5925341083,0.00308228,0.00758362,-1.00585938,0.305176,0.000000,0.000000
5930396583,0.00201416,0.00712585,-1.00588989,0.183105,0.000000,-0.183105
5935333291,0.00137329,0.00668335,-1.00625610,0.427246,-0.061035,-0.183105
5940349041,0.00141907,0.00633240,-1.00645447,0.427246,0.061035,0.000000
5945337375,0.00161743,0.00627136,-1.00636292,0.366211,0.122070,-0.183105
5950338708,0.00157166,0.00653076,-1.00611877,0.366211,0.061035,-0.122070
5955346250,0.00152588,0.00659180,-1.00611877,0.366211,-0.061035,-0.183105
5960365541,0.00186157,0.00650024,-1.00651550,0.244141,0.061035,0.000000
5965374333,0.00224304,0.00663757,-1.00672913,0.244141,0.122070,-0.122070
5970354875,0.00196838,0.00688171,-1.00654602,0.427246,0.061035,0.000000
5975356333,0.00131226,0.00708008,-1.00625610,0.305176,0.000000,0.061035
5980356166,0.00114441,0.00737000,-1.00599670,0.366211,0.000000,-0.183105
5985338375,0.00166321,0.00741577,-1.00596619,0.366211,0.061035,-0.122070
5990344958,0.00202942,0.00720215,-1.00636292,0.305176,0.061035,0.000000
5995339708,0.00175476,0.00738525,-1.00688171,0.305176,0.122070,0.000000
6000380958,0.00123596,0.00758362,-1.00663757,0.305176,0.000000,-0.122070
6005353375,0.00112915,0.00733948,-1.00585938,0.366211,0.061035,-0.061035
6010450083,0.00160217,0.00714111,-1.00558472,0.305176,-0.061035,-0.061035
6015348541,0.00239563,0.00718689,-1.00567627,0.366211,0.061035,-0.061035
6020358916,0.00267029,0.00715637,-1.00559998,0.427246,0.122070,-0.061035
6025351166,0.00198364,0.00674438,-1.00556946,0.366211,0.183105,-0.061035
6030418041,0.00123596,0.00643921,-1.00595093,0.427246,0.122070,0.000000
6035351916,0.00141907,0.00666809,-1.00634766,0.366211,-0.061035,0.000000
6040362125,0.00209045,0.00712585,-1.00634766,0.366211,0.183105,0.061035
6045342166,0.00224304,0.00723267,-1.00607300,0.305176,-0.061035,-0.122070
6050379083,0.00192261,0.00698853,-1.00590515,0.305176,0.061035,-0.061035
6055333833,0.00167847,0.00682068,-1.00596619,0.366211,0.061035,-0.122070
6060359208,0.00167847,0.00683594,-1.00587463,0.244141,0.122070,-0.061035
6065353125,0.00202942,0.00689697,-1.00575256,0.244141,0.061035,-0.122070
6070365750,0.00233459,0.00680542,-1.00588989,0.366211,0.061035,-0.244141
6075359666,0.00224304,0.00654602,-1.00625610,0.305176,0.061035,-0.122070
6080414625,0.00204468,0.00663757,-1.00671387,0.366211,0.122070,-0.122070
6085350833,0.00215149,0.00718689,-1.00712585,0.305176,0.000000,-0.061035
6090355750,0.00244141,0.00738525,-1.00717163,0.305176,0.000000,0.000000
6095364416,0.00259399,0.00704956,-1.00660706,0.427246,0.000000,-0.061035
6100366291,0.00239563,0.00677490,-1.00585938,0.488281,0.122070,-0.061035
6105345958,0.00205994,0.00675964,-1.00564575,0.366211,0.000000,-0.061035
6110362208,0.00181580,0.00682068,-1.00610352,0.488281,0.061035,-0.061035
6115343875,0.00149536,0.00683594,-1.00672913,0.305176,0.122070,-0.061035
6120368583,0.00111389,0.00685120,-1.00714111,0.427246,0.061035,-0.122070
6125358833,0.00112915,0.00708008,-1.00715637,0.366211,0.000000,-0.122070
6130365333,0.00154114,0.00750732,-1.00669861,0.488281,0.183105,-0.061035
6135425291,0.00177002,0.00762939,-1.00639343,0.244141,0.061035,-0.122070
6140378625,0.00158691,0.00730896,-1.00657654,0.305176,0.183105,-0.122070
6145359625,0.00157166,0.00727844,-1.00682068,0.244141,0.061035,0.000000
6150403666,0.00198364,0.00762939,-1.00672913,0.366211,0.061035,-0.061035
6155343416,0.00241089,0.00772095,-1.00657654,0.305176,0.061035,-0.061035
6160376875,0.00251770,0.00737000,-1.00663757,0.305176,0.061035,0.000000
6165364416,0.00242615,0.00694275,-1.00645447,0.183105,0.000000,-0.061035
6170362250,0.00212097,0.00675964,-1.00610352,0.305176,0.061035,-0.122070
6175376625,0.00166321,0.00683594,-1.00630188,0.244141,0.122070,-0.061035
6180397916,0.00137329,0.00695801,-1.00700378,0.305176,0.000000,0.000000
6185628625,0.00125122,0.00709534,-1.00737000,0.244141,0.061035,-0.061035
6190406750,0.00137329,0.00738525,-1.00709534,0.366211,0.000000,-0.061035
6195374833,0.00175476,0.00738525,-1.00656128,0.366211,0.061035,-0.061035
6200376583,0.00215149,0.00721741,-1.00628662,0.183105,-0.061035,-0.122070
6205372416,0.00253296,0.00703430,-1.00624084,0.366211,0.000000,-0.061035
6210378041,0.00257874,0.00666809,-1.00613403,0.366211,0.122070,-0.061035
6215383666,0.00216675,0.00650024,-1.00619507,0.305176,0.122070,-0.183105
6220374791,0.00178528,0.00685120,-1.00674438,0.427246,0.061035,0.000000
6225351291,0.00207520,0.00726318,-1.00724792,0.366211,-0.061035,-0.061035
6230377916,0.00280762,0.00729370,-1.00717163,0.366211,-0.061035,-0.061035
6235373125,0.00291443,0.00692749,-1.00669861,0.305176,0.061035,-0.122070
6240389625,0.00213623,0.00646973,-1.00636292,0.305176,0.061035,-0.061035
6245376583,0.00129700,0.00627136,-1.00627136,0.244141,0.000000,-0.183105
6250427083,0.00091553,0.00643921,-1.00613403,0.305176,0.122070,0.000000
6255376916,0.00099182,0.00691223,-1.00584412,0.366211,0.061035,-0.061035
6260371875,0.00125122,0.00712585,-1.00552368,0.427246,0.061035,-0.061035
6265412083,0.00131226,0.00675964,-1.00550842,0.427246,0.122070,-0.183105
6270389875,0.00132751,0.00648499,-1.00598145,0.183105,0.122070,-0.183105
6275366500,0.00163269,0.00668335,-1.00663757,0.305176,-0.061035,-0.183105
6280393708,0.00193787,0.00714111,-1.00695801,0.244141,0.061035,0.000000
6285366208,0.00201416,0.00762939,-1.00671387,0.366211,0.061035,-0.183105
6290436208,0.00207520,0.00810242,-1.00582886,0.366211,0.183105,0.000000
6295386500,0.00239563,0.00830078,-1.00505066,0.244141,0.061035,-0.061035
6300393750,0.00280762,0.00793457,-1.00546265,0.183105,-0.061035,-0.122070
6305382916,0.00279236,0.00741577,-1.00683594,0.244141,0.000000,-0.061035
6310405416,0.00216675,0.00721741,-1.00764465,0.427246,0.061035,-0.122070
6315424708,0.00152588,0.00726318,-1.00704956,0.244141,0.122070,-0.244141
6320427375,0.00117493,0.00732422,-1.00592041,0.488281,0.000000,0.000000
6325399458,0.00097656,0.00733948,-1.00555420,0.366211,0.122070,-0.122070
6330408208,0.00103760,0.00724792,-1.00613403,0.549316,0.122070,-0.061035
6335385666,0.00144958,0.00685120,-1.00692749,0.427246,0.122070,-0.183105
6340390625,0.00212097,0.00662231,-1.00697327,0.183105,0.000000,-0.122070
6345375291,0.00262451,0.00691223,-1.00631714,0.305176,0.122070,-0.061035
6350423875,0.00228882,0.00700378,-1.00587463,0.427246,0.183105,-0.061035
6355371583,0.00140381,0.00663757,-1.00604248,0.305176,0.122070,-0.122070
6360399041,0.00085449,0.00630188,-1.00639343,0.427246,0.122070,-0.122070
6365372750,0.00086975,0.00625610,-1.00660706,0.366211,0.061035,0.000000
6370399000,0.00128174,0.00640869,-1.00645447,0.305176,0.000000,-0.122070
6375386208,0.00195312,0.00668335,-1.00607300,0.305176,0.061035,-0.061035
6380402541,0.00238037,0.00708008,-1.00582886,0.305176,0.122070,-0.122070
6385372791,0.00213623,0.00744629,-1.00578308,0.305176,0.061035,-0.122070
6390434250,0.00180054,0.00732422,-1.00587463,0.183105,0.122070,-0.061035
6395460458,0.00207520,0.00698853,-1.00627136,0.305176,0.061035,-0.061035
6400406708,0.00245667,0.00692749,-1.00668335,0.305176,-0.061035,-0.061035
6405380041,0.00219727,0.00720215,-1.00653076,0.305176,0.061035,-0.061035
6410397375,0.00152588,0.00772095,-1.00595093,0.366211,0.122070,-0.061035
6415408000,0.00134277,0.00808716,-1.00550842,0.183105,0.061035,0.000000
6420406000,0.00170898,0.00801086,-1.00570679,0.427246,0.183105,-0.122070
6425415625,0.00186157,0.00753784,-1.00643921,0.488281,0.000000,-0.122070
6430431833,0.00135803,0.00680542,-1.00703430,0.305176,0.061035,-0.061035
6435394750,0.00082397,0.00660706,-1.00738525,0.366211,0.183105,0.061035
6440406625,0.00099182,0.00717163,-1.00765991,0.366211,0.244141,-0.122070
6445390333,0.00146484,0.00759888,-1.00749207,0.366211,0.061035,0.000000
6450435166,0.00193787,0.00724792,-1.00656128,0.488281,0.061035,0.000000
6455416083,0.00209045,0.00666809,-1.00561523,0.366211,0.061035,-0.061035
6460409041,0.00158691,0.00679016,-1.00566101,0.305176,0.061035,-0.061035
6465383791,0.00099182,0.00744629,-1.00639343,0.366211,0.061035,-0.122070
6470404750,0.00064087,0.00772095,-1.00659180,0.427246,0.122070,-0.122070
6475402083,0.00057983,0.00772095,-1.00605774,0.427246,0.061035,-0.122070
6480412500,0.00103760,0.00784302,-1.00556946,0.427246,0.122070,-0.122070
6485399875,0.00190735,0.00753784,-1.00590515,0.305176,0.122070,-0.183105
6490404750,0.00253296,0.00677490,-1.00711060,0.244141,-0.061035,-0.061035
6495382833,0.00274658,0.00631714,-1.00785828,0.244141,0.122070,0.000000
6500418750,0.00274658,0.00657654,-1.00746155,0.305176,0.122070,-0.244141
6505405916,0.00282288,0.00706482,-1.00680542,0.427246,-0.061035,0.000000
6510424958,0.00291443,0.00709534,-1.00645447,0.122070,0.183105,-0.183105
6515414250,0.00297546,0.00669861,-1.00637817,0.366211,0.122070,-0.061035
6520431291,0.00311279,0.00634766,-1.00671387,0.427246,0.061035,-0.122070
6525438583,0.00302124,0.00628662,-1.00747681,0.366211,0.000000,-0.061035
6530424291,0.00216675,0.00651550,-1.00761414,0.305176,-0.061035,-0.061035
6535405625,0.00115967,0.00672913,-1.00656128,0.549316,0.061035,-0.061035
6540410833,0.00108337,0.00656128,-1.00570679,0.427246,0.061035,-0.183105
6545421041,0.00186157,0.00619507,-1.00587463,0.244141,0.122070,-0.122070
6550449625,0.00219727,0.00636292,-1.00633240,0.305176,0.000000,-0.183105
6555388666,0.00146484,0.00695801,-1.00660706,0.427246,0.183105,-0.122070
6560424375,0.00083923,0.00714111,-1.00677490,0.183105,0.122070,-0.061035
6565391500,0.00120544,0.00708008,-1.00686646,0.366211,0.122070,0.000000
6570412583,0.00173950,0.00717163,-1.00688171,0.244141,0.000000,-0.122070
6575416875,0.00186157,0.00730896,-1.00691223,0.366211,0.061035,-0.122070
6580460833,0.00199890,0.00735474,-1.00691223,0.305176,-0.061035,-0.061035
6585408708,0.00186157,0.00749207,-1.00677490,0.244141,0.000000,-0.183105
6590423666,0.00143433,0.00785828,-1.00695801,0.427246,0.061035,-0.061035
6595418458,0.00152588,0.00807190,-1.00730896,0.244141,0.061035,-0.122070
6600418208,0.00233459,0.00805664,-1.00714111,0.366211,0.244141,0.000000
6605403125,0.00285339,0.00801086,-1.00646973,0.305176,0.122070,0.061035
6610424541,0.00216675,0.00775146,-1.00567627,0.366211,0.061035,-0.183105
6615452458,0.00129700,0.00741577,-1.00526428,0.366211,0.122070,0.000000
6620438958,0.00180054,0.00724792,-1.00587463,0.244141,0.122070,-0.122070
6625426000,0.00309753,0.00717163,-1.00692749,0.305176,-0.061035,-0.122070
6630426041,0.00332642,0.00685120,-1.00711060,0.427246,-0.061035,0.000000
6635420250,0.00244141,0.00653076,-1.00622559,0.427246,0.000000,0.000000
6640416791,0.00141907,0.00663757,-1.00531006,0.427246,0.061035,-0.061035
6645426916,0.00090027,0.00711060,-1.00537109,0.244141,0.061035,-0.183105
6650429791,0.00096130,0.00753784,-1.00617981,0.122070,-0.061035,-0.183105
6655441875,0.00144958,0.00744629,-1.00700378,0.244141,-0.061035,-0.244141
6660416791,0.00207520,0.00698853,-1.00747681,0.183105,0.000000,0.000000
6665416125,0.00244141,0.00665283,-1.00755310,0.305176,0.122070,-0.183105
6670415500,0.00231934,0.00653076,-1.00701904,0.366211,0.122070,0.000000
6675423458,0.00180054,0.00697327,-1.00630188,0.427246,0.061035,0.000000
6680422875,0.00154114,0.00779724,-1.00601196,0.610352,0.122070,-0.122070
6685409166,0.00198364,0.00799561,-1.00598145,0.305176,0.061035,-0.061035
6690468750,0.00248718,0.00772095,-1.00619507,0.305176,0.000000,-0.183105
6695406500,0.00225830,0.00776672,-1.00654602,0.305176,0.122070,-0.122070
6700429000,0.00177002,0.00779724,-1.00634766,0.244141,0.061035,-0.122070
6705457375,0.00169373,0.00729370,-1.00572205,0.244141,0.061035,-0.061035
6710451833,0.00167847,0.00691223,-1.00559998,0.305176,0.061035,-0.122070
6715427375,0.00151062,0.00743103,-1.00619507,0.366211,0.061035,-0.244141
6720440500,0.00154114,0.00810242,-1.00674438,0.427246,0.061035,-0.122070
6725417291,0.00160217,0.00805664,-1.00659180,0.305176,0.061035,-0.122070
6730485250,0.00169373,0.00747681,-1.00595093,0.366211,0.061035,-0.122070
6735396500,0.00196838,0.00677490,-1.00579834,0.244141,0.000000,-0.061035
6740440375,0.00212097,0.00625610,-1.00613403,0.366211,0.061035,-0.122070
6745435458,0.00196838,0.00630188,-1.00625610,0.488281,0.061035,-0.183105
6750462666,0.00152588,0.00683594,-1.00628662,0.244141,-0.061035,-0.183105
6755448208,0.00106812,0.00740051,-1.00610352,0.427246,0.000000,0.000000
6760456625,0.00094604,0.00740051,-1.00555420,0.305176,0.000000,-0.061035
6765416708,0.00138855,0.00694275,-1.00529480,0.305176,0.061035,-0.244141
6770447708,0.00222778,0.00685120,-1.00556946,0.305176,0.122070,-0.061035
6775430416,0.00271606,0.00715637,-1.00602722,0.427246,0.122070,-0.061035
6780434000,0.00241089,0.00727844,-1.00640869,0.244141,-0.061035,-0.122070
6785421333,0.00186157,0.00706482,-1.00650024,0.427246,0.061035,-0.122070
6790469125,0.00190735,0.00703430,-1.00656128,0.549316,0.122070,-0.061035
6795434250,0.00218201,0.00714111,-1.00679016,0.427246,0.122070,0.000000
6800440500,0.00198364,0.00677490,-1.00711060,0.305176,0.061035,-0.122070
6805432333,0.00166321,0.00624084,-1.00717163,0.366211,0.000000,-0.122070
6810440416,0.00189209,0.00634766,-1.00709534,0.305176,-0.061035,-0.061035
6815438041,0.00222778,0.00708008,-1.00708008,0.244141,0.000000,-0.122070
6820446708,0.00201416,0.00747681,-1.00677490,0.305176,0.061035,-0.183105
6825441166,0.00170898,0.00720215,-1.00621033,0.427246,-0.061035,0.061035
6830437583,0.00189209,0.00677490,-1.00579834,0.366211,0.061035,-0.061035
6835424125,0.00210571,0.00650024,-1.00582886,0.305176,0.000000,-0.244141
6840449500,0.00213623,0.00654602,-1.00627136,0.366211,0.000000,-0.122070
6845442125,0.00225830,0.00694275,-1.00674438,0.305176,0.061035,-0.061035
6850460500,0.00225830,0.00729370,-1.00688171,0.244141,0.122070,-0.061035
6855432375,0.00189209,0.00749207,-1.00663757,0.244141,0.061035,-0.122070
6860508500,0.00157166,0.00779724,-1.00637817,0.244141,0.183105,-0.122070
6865434333,0.00135803,0.00813293,-1.00631714,0.244141,0.183105,-0.061035
6870446333,0.00111389,0.00802612,-1.00654602,0.488281,0.061035,-0.061035
6875435791,0.00123596,0.00750732,-1.00679016,0.366211,0.000000,-0.122070
6880451291,0.00173950,0.00715637,-1.00651550,0.366211,0.183105,-0.183105
6885451458,0.00222778,0.00746155,-1.00581360,0.305176,0.000000,-0.122070
6890481583,0.00224304,0.00761414,-1.00549316,0.366211,0.000000,-0.122070
6895444000,0.00195312,0.00689697,-1.00593567,0.427246,0.000000,0.061035
6900476666,0.00199890,0.00633240,-1.00639343,0.305176,0.000000,-0.122070
6905465750,0.00219727,0.00688171,-1.00653076,0.183105,0.122070,-0.061035
6910731125,0.00224304,0.00781250,-1.00659180,0.366211,0.122070,-0.183105
6915479083,0.00227356,0.00785828,-1.00631714,0.305176,0.000000,0.000000
6920461333,0.00205994,0.00704956,-1.00578308,0.244141,0.122070,0.000000
6925446500,0.00163269,0.00640869,-1.00587463,0.305176,0.122070,-0.122070
6930464041,0.00164795,0.00645447,-1.00654602,0.427246,0.000000,-0.061035
6935436333,0.00213623,0.00674438,-1.00665283,0.366211,0.000000,-0.122070
6940457541,0.00248718,0.00668335,-1.00617981,0.305176,0.061035,-0.122070
6945451791,0.00238037,0.00636292,-1.00598145,0.305176,0.122070,-0.122070
6950444375,0.00218201,0.00605774,-1.00604248,0.305176,-0.061035,-0.183105
6955435458,0.00250244,0.00611877,-1.00611877,0.305176,0.000000,-0.122070
6960457708,0.00294495,0.00657654,-1.00621033,0.366211,0.122070,-0.122070
6965490125,0.00267029,0.00700378,-1.00616455,0.366211,0.000000,0.061035
6970464000,0.00222778,0.00714111,-1.00630188,0.549316,0.122070,-0.122070
6975436375,0.00239563,0.00697327,-1.00683594,0.366211,0.061035,-0.061035
6980484750,0.00267029,0.00688171,-1.00701904,0.366211,0.061035,-0.122070
6985458375,0.00242615,0.00691223,-1.00627136,0.305176,0.061035,-0.122070
6990460750,0.00215149,0.00695801,-1.00553894,0.366211,0.061035,-0.061035
6995445791,0.00207520,0.00729370,-1.00555420,0.427246,0.061035,-0.122070
7000460333,0.00166321,0.00759888,-1.00596619,0.366211,0.061035,-0.061035
7005459791,0.00135803,0.00738525,-1.00631714,0.305176,-0.061035,-0.122070
7010473916,0.00161743,0.00711060,-1.00642395,0.427246,0.061035,0.000000
7015491333,0.00205994,0.00717163,-1.00651550,0.244141,0.061035,-0.122070
7020470333,0.00218201,0.00738525,-1.00698853,0.244141,0.061035,-0.122070
7025446375,0.00184631,0.00747681,-1.00762939,0.366211,0.061035,0.000000
7030488375,0.00149536,0.00721741,-1.00784302,0.305176,0.122070,0.000000
7035443416,0.00148010,0.00723267,-1.00747681,0.366211,0.000000,-0.061035
7040481708,0.00175476,0.00779724,-1.00688171,0.305176,0.000000,0.000000
7045484125,0.00201416,0.00805664,-1.00625610,0.305176,0.000000,-0.122070
7050468833,0.00228882,0.00761414,-1.00588989,0.427246,0.061035,-0.061035
7055475250,0.00257874,0.00712585,-1.00593567,0.305176,0.000000,-0.183105
7060480208,0.00257874,0.00708008,-1.00624084,0.244141,0.122070,-0.122070
7065474250,0.00209045,0.00709534,-1.00634766,0.244141,0.122070,-0.122070
7070478041,0.00155640,0.00706482,-1.00602722,0.488281,0.122070,-0.061035
7075466416,0.00129700,0.00715637,-1.00578308,0.305176,0.183105,-0.061035
7080481125,0.00103760,0.00712585,-1.00607300,0.427246,0.061035,-0.061035
7085450541,0.00112915,0.00708008,-1.00671387,0.305176,0.000000,-0.183105
7090478625,0.00201416,0.00733948,-1.00726318,0.427246,0.061035,-0.183105
7095443750,0.00270081,0.00741577,-1.00741577,0.366211,0.000000,-0.122070
7100485916,0.00253296,0.00685120,-1.00715637,0.244141,0.000000,-0.122070
7105452541,0.00239563,0.00639343,-1.00669861,0.305176,0.122070,-0.061035
7110487833,0.00270081,0.00672913,-1.00642395,0.305176,0.061035,-0.061035
7115447041,0.00294495,0.00712585,-1.00650024,0.244141,0.061035,0.122070
7120481250,0.00277710,0.00704956,-1.00636292,0.305176,0.061035,-0.061035
7125458958,0.00207520,0.00683594,-1.00579834,0.244141,0.061035,-0.183105
7130474875,0.00128174,0.00677490,-1.00540161,0.305176,0.061035,-0.183105
7135464125,0.00097656,0.00680542,-1.00559998,0.305176,0.122070,-0.061035
7140472875,0.00096130,0.00692749,-1.00613403,0.427246,0.061035,-0.122070
7145459833,0.00091553,0.00709534,-1.00651550,0.305176,-0.122070,-0.183105
7150497125,0.00143433,0.00706482,-1.00640869,0.244141,0.000000,-0.061035
7155465041,0.00224304,0.00686646,-1.00604248,0.305176,0.183105,-0.183105
7160485041,0.00241089,0.00671387,-1.00607300,0.366211,0.061035,-0.061035
7165460000,0.00195312,0.00688171,-1.00672913,0.305176,0.061035,-0.061035
7170495000,0.00152588,0.00743103,-1.00711060,0.122070,0.061035,-0.122070
7175474500,0.00163269,0.00782776,-1.00653076,0.305176,0.000000,-0.122070
7180472250,0.00212097,0.00784302,-1.00599670,0.427246,0.061035,0.122070
7185457166,0.00234985,0.00764465,-1.00646973,0.244141,0.061035,0.000000
7190478791,0.00198364,0.00772095,-1.00697327,0.244141,0.183105,-0.122070
7195466083,0.00151062,0.00791931,-1.00674438,0.427246,0.000000,-0.122070
7200488125,0.00135803,0.00764465,-1.00637817,0.244141,0.000000,-0.305176
7205472500,0.00141907,0.00708008,-1.00634766,0.305176,0.000000,-0.061035
7210499875,0.00146484,0.00688171,-1.00675964,0.366211,0.000000,-0.061035
7215466500,0.00146484,0.00691223,-1.00712585,0.427246,0.061035,-0.122070
7220498583,0.00149536,0.00679016,-1.00692749,0.244141,-0.122070,-0.122070
7225486708,0.00189209,0.00654602,-1.00630188,0.244141,0.000000,-0.061035
7230486958,0.00259399,0.00659180,-1.00605774,0.366211,0.000000,-0.061035
7235475583,0.00286865,0.00698853,-1.00648499,0.305176,0.061035,0.000000
7240491291,0.00263977,0.00730896,-1.00692749,0.305176,0.061035,-0.122070
7245467166,0.00239563,0.00698853,-1.00704956,0.305176,0.000000,-0.122070
7250487083,0.00224304,0.00622559,-1.00680542,0.183105,0.000000,-0.122070
7255500791,0.00175476,0.00599670,-1.00622559,0.244141,0.061035,-0.122070
7260490916,0.00114441,0.00648499,-1.00592041,0.366211,0.183105,-0.061035
7265484583,0.00111389,0.00709534,-1.00634766,0.366211,0.000000,-0.122070
7270491791,0.00154114,0.00724792,-1.00706482,0.366211,0.000000,-0.061035
7275468625,0.00163269,0.00700378,-1.00718689,0.366211,0.000000,-0.061035
7280479291,0.00135803,0.00691223,-1.00685120,0.244141,0.122070,-0.061035
7285480333,0.00154114,0.00695801,-1.00656128,0.244141,-0.061035,-0.122070
7290496708,0.00215149,0.00697327,-1.00639343,0.305176,0.061035,-0.122070
7295480583,0.00247192,0.00695801,-1.00643921,0.305176,0.061035,0.000000
7300495166,0.00225830,0.00703430,-1.00668335,0.305176,0.000000,0.000000
7305479416,0.00205994,0.00740051,-1.00692749,0.305176,0.000000,-0.061035
7310513708,0.00219727,0.00770569,-1.00711060,0.427246,0.000000,-0.122070
7315466208,0.00233459,0.00765991,-1.00691223,0.183105,0.000000,-0.122070
7320496458,0.00234985,0.00756836,-1.00640869,0.305176,-0.061035,-0.122070
7325526291,0.00227356,0.00744629,-1.00610352,0.244141,0.000000,-0.305176
7330498666,0.00196838,0.00727844,-1.00598145,0.427246,0.061035,-0.061035
7335505416,0.00193787,0.00733948,-1.00604248,0.549316,0.122070,-0.122070
7340496375,0.00242615,0.00749207,-1.00624084,0.305176,0.122070,0.122070
7345483583,0.00268555,0.00727844,-1.00628662,0.427246,0.183105,0.000000
7350500500,0.00219727,0.00685120,-1.00593567,0.427246,0.061035,-0.183105
7355482541,0.00181580,0.00669861,-1.00549316,0.305176,-0.061035,-0.061035
7360499125,0.00195312,0.00682068,-1.00534058,0.366211,0.122070,-0.061035
7365473916,0.00187683,0.00715637,-1.00555420,0.305176,0.061035,0.000000
7370500000,0.00151062,0.00756836,-1.00602722,0.244141,0.122070,-0.122070
7375493458,0.00144958,0.00773621,-1.00648499,0.427246,0.122070,-0.061035
7380488250,0.00173950,0.00724792,-1.00643921,0.305176,0.122070,-0.061035
7385501083,0.00196838,0.00660706,-1.00604248,0.366211,0.122070,0.000000
7390506583,0.00210571,0.00683594,-1.00587463,0.366211,0.000000,-0.061035
7395481791,0.00241089,0.00759888,-1.00610352,0.183105,0.244141,-0.061035
7400495083,0.00260925,0.00779724,-1.00636292,0.427246,0.061035,-0.061035
7405497958,0.00225830,0.00730896,-1.00646973,0.488281,0.122070,0.000000
7410510041,0.00204468,0.00683594,-1.00663757,0.366211,0.061035,0.061035
7415490416,0.00245667,0.00672913,-1.00679016,0.366211,0.183105,-0.122070
7420497833,0.00291443,0.00688171,-1.00669861,0.183105,0.000000,0.000000
7425489000,0.00286865,0.00715637,-1.00646973,0.305176,0.122070,0.000000
7430509541,0.00247192,0.00732422,-1.00633240,0.366211,0.061035,0.061035
7435510666,0.00210571,0.00724792,-1.00619507,0.183105,0.000000,-0.061035
7440514958,0.00215149,0.00679016,-1.00614929,0.366211,0.061035,-0.061035
7445497625,0.00236511,0.00625610,-1.00633240,0.305176,0.122070,-0.061035
7450518750,0.00234985,0.00625610,-1.00645447,0.366211,0.061035,-0.061035
7455516541,0.00183105,0.00665283,-1.00640869,0.366211,0.122070,0.000000
7460501000,0.00117493,0.00697327,-1.00633240,0.305176,0.000000,-0.183105
7465487958,0.00096130,0.00720215,-1.00621033,0.366211,0.122070,-0.061035
7470516083,0.00119019,0.00730896,-1.00619507,0.244141,0.061035,0.000000
7475488000,0.00132751,0.00720215,-1.00631714,0.244141,0.183105,-0.061035
7480573583,0.00143433,0.00698853,-1.00651550,0.244141,-0.061035,-0.061035
7485496583,0.00164795,0.00704956,-1.00672913,0.427246,0.061035,-0.061035
7490527250,0.00166321,0.00735474,-1.00668335,0.427246,0.061035,0.000000
7495494916,0.00170898,0.00767517,-1.00642395,0.427246,0.122070,-0.122070
7500502041,0.00199890,0.00778198,-1.00611877,0.427246,0.183105,0.000000
7505503791,0.00239563,0.00770569,-1.00592041,0.366211,0.061035,-0.122070
7510557541,0.00253296,0.00740051,-1.00599670,0.244141,0.000000,0.000000
7515517625,0.00209045,0.00720215,-1.00633240,0.244141,0.061035,-0.061035
7520527291,0.00155640,0.00753784,-1.00694275,0.366211,-0.061035,-0.061035
7525512958,0.00163269,0.00779724,-1.00743103,0.305176,0.000000,-0.122070
7530510041,0.00215149,0.00756836,-1.00743103,0.366211,-0.061035,-0.244141
7535592875,0.00233459,0.00711060,-1.00685120,0.366211,0.000000,-0.183105
7540516166,0.00201416,0.00682068,-1.00585938,0.305176,0.061035,-0.183105
7545522250,0.00172424,0.00689697,-1.00529480,0.305176,0.061035,-0.061035
7550531666,0.00167847,0.00703430,-1.00587463,0.305176,0.122070,0.000000
7555511750,0.00183105,0.00682068,-1.00712585,0.427246,0.122070,-0.061035
7560526041,0.00207520,0.00643921,-1.00779724,0.366211,-0.061035,-0.122070
7565511458,0.00250244,0.00631714,-1.00727844,0.305176,0.000000,-0.061035
7570505416,0.00292969,0.00654602,-1.00631714,0.366211,0.061035,-0.061035
7575517958,0.00315857,0.00675964,-1.00622559,0.366211,0.122070,-0.061035
7580521125,0.00296021,0.00660706,-1.00704956,0.305176,0.061035,-0.061035
7585586083,0.00254822,0.00636292,-1.00750732,0.488281,0.000000,-0.122070
7590527291,0.00218201,0.00631714,-1.00704956,0.244141,0.122070,-0.122070
7595521250,0.00172424,0.00654602,-1.00621033,0.183105,0.000000,-0.061035
7600529625,0.00152588,0.00697327,-1.00564575,0.549316,0.122070,-0.061035
7605509125,0.00192261,0.00730896,-1.00570679,0.366211,0.061035,-0.122070
7610545166,0.00230408,0.00737000,-1.00622559,0.244141,0.061035,0.000000
7615560416,0.00221252,0.00732422,-1.00689697,0.305176,0.122070,-0.061035
7620543875,0.00202942,0.00724792,-1.00715637,0.366211,0.000000,-0.061035
7625500041,0.00199890,0.00703430,-1.00700378,0.244141,0.000000,-0.061035
7630542833,0.00186157,0.00683594,-1.00680542,0.366211,0.061035,-0.061035
7635528208,0.00170898,0.00685120,-1.00663757,0.244141,0.000000,-0.061035
7640538458,0.00183105,0.00721741,-1.00656128,0.366211,0.061035,0.061035
7645514833,0.00193787,0.00762939,-1.00663757,0.244141,0.061035,-0.061035
7650534958,0.00189209,0.00755310,-1.00659180,0.366211,0.000000,0.000000
7655527416,0.00201416,0.00701904,-1.00669861,0.366211,-0.061035,-0.183105
7660534291,0.00221252,0.00660706,-1.00706482,0.305176,0.000000,-0.061035
7665547333,0.00204468,0.00683594,-1.00718689,0.366211,0.000000,0.000000
7670536625,0.00149536,0.00726318,-1.00662231,0.427246,0.061035,-0.061035
7675527791,0.00102234,0.00738525,-1.00585938,0.366211,-0.061035,-0.122070
7680563791,0.00093079,0.00718689,-1.00581360,0.244141,0.061035,-0.122070
7685511583,0.00120544,0.00683594,-1.00613403,0.305176,0.061035,-0.061035
7690584750,0.00158691,0.00685120,-1.00592041,0.366211,0.122070,-0.061035
7695513666,0.00189209,0.00732422,-1.00550842,0.244141,0.061035,-0.183105
7700537500,0.00198364,0.00740051,-1.00572205,0.427246,0.061035,-0.122070
7705527500,0.00187683,0.00704956,-1.00607300,0.427246,0.000000,-0.061035
7710551708,0.00158691,0.00712585,-1.00610352,0.366211,0.122070,-0.183105
7715560916,0.00132751,0.00756836,-1.00616455,0.305176,0.000000,-0.122070
7720563250,0.00135803,0.00761414,-1.00631714,0.427246,0.183105,-0.061035
7725558666,0.00167847,0.00698853,-1.00625610,0.366211,0.000000,-0.061035
7730539125,0.00193787,0.00631714,-1.00604248,0.366211,0.000000,-0.061035
7735520750,0.00186157,0.00633240,-1.00619507,0.305176,0.061035,0.000000
7740537500,0.00157166,0.00682068,-1.00709534,0.366211,0.122070,-0.122070
7745520791,0.00141907,0.00701904,-1.00793457,0.366211,0.122070,-0.122070
7750548583,0.00141907,0.00671387,-1.00762939,0.244141,0.000000,-0.244141
7755538916,0.00144958,0.00653076,-1.00682068,0.366211,0.061035,-0.122070
7760557208,0.00151062,0.00657654,-1.00645447,0.366211,0.061035,-0.183105
7765520875,0.00175476,0.00668335,-1.00642395,0.305176,0.061035,-0.061035
7770543375,0.00213623,0.00701904,-1.00665283,0.305176,0.061035,-0.244141
7775526875,0.00236511,0.00747681,-1.00698853,0.244141,0.122070,-0.061035
7780566041,0.00227356,0.00758362,-1.00668335,0.427246,0.061035,-0.061035
7785513458,0.00222778,0.00750732,-1.00595093,0.244141,0.061035,-0.061035
7790555041,0.00216675,0.00740051,-1.00579834,0.366211,-0.061035,-0.183105
7795591041,0.00175476,0.00712585,-1.00602722,0.366211,0.122070,0.000000
7800553541,0.00119019,0.00703430,-1.00628662,0.366211,0.061035,-0.061035
7805546708,0.00088501,0.00718689,-1.00648499,0.366211,0.122070,-0.061035
7810552500,0.00096130,0.00733948,-1.00621033,0.366211,0.122070,-0.122070
7815543083,0.00144958,0.00729370,-1.00572205,0.244141,0.061035,-0.122070
7820569208,0.00189209,0.00704956,-1.00596619,0.427246,0.122070,-0.061035
7825554708,0.00178528,0.00685120,-1.00668335,0.305176,0.061035,-0.122070
7830536791,0.00123596,0.00703430,-1.00653076,0.427246,-0.122070,-0.122070
7835528666,0.00093079,0.00772095,-1.00604248,0.305176,0.122070,0.000000
7840548875,0.00125122,0.00828552,-1.00642395,0.549316,0.122070,-0.122070
7845535875,0.00204468,0.00839233,-1.00700378,0.305176,0.061035,-0.122070
7850543916,0.00265503,0.00805664,-1.00692749,0.244141,0.061035,-0.061035
7855565708,0.00242615,0.00738525,-1.00643921,0.244141,0.061035,-0.061035
7860545916,0.00175476,0.00701904,-1.00614929,0.366211,0.122070,0.061035
7865515041,0.00169373,0.00703430,-1.00634766,0.305176,-0.061035,-0.122070
7870535666,0.00238037,0.00688171,-1.00653076,0.244141,0.122070,-0.061035
7875538500,0.00283813,0.00675964,-1.00656128,0.366211,-0.061035,-0.061035
7880572958,0.00254822,0.00703430,-1.00662231,0.366211,0.061035,0.000000
7885584125,0.00228882,0.00738525,-1.00643921,0.366211,0.122070,-0.061035
7890596375,0.00245667,0.00752258,-1.00602722,0.305176,-0.061035,-0.061035
7895554958,0.00251770,0.00759888,-1.00581360,0.305176,0.061035,0.122070
7900586083,0.00227356,0.00773621,-1.00584412,0.366211,0.061035,-0.061035
7905536916,0.00207520,0.00784302,-1.00599670,0.305176,0.061035,-0.122070
7910564416,0.00221252,0.00802612,-1.00607300,0.366211,0.122070,-0.061035
7915599083,0.00234985,0.00820923,-1.00599670,0.305176,-0.061035,-0.244141
7920597458,0.00238037,0.00802612,-1.00607300,0.305176,0.061035,-0.122070
7925577875,0.00256348,0.00758362,-1.00636292,0.244141,0.061035,0.000000
7930576833,0.00268555,0.00744629,-1.00656128,0.427246,0.183105,-0.061035
7935544291,0.00239563,0.00762939,-1.00625610,0.305176,0.000000,-0.122070
7940554333,0.00199890,0.00779724,-1.00573730,0.366211,0.122070,-0.061035
7945541166,0.00192261,0.00790405,-1.00575256,0.427246,0.183105,-0.061035
7950553708,0.00216675,0.00781250,-1.00637817,0.244141,0.061035,-0.122070
7955553916,0.00242615,0.00741577,-1.00706482,0.305176,0.061035,-0.061035
7960560750,0.00242615,0.00715637,-1.00715637,0.427246,0.061035,-0.061035
7965577083,0.00218201,0.00720215,-1.00662231,0.366211,0.061035,-0.122070
7970567166,0.00195312,0.00724792,-1.00601196,0.488281,0.061035,-0.061035
7975552500,0.00189209,0.00697327,-1.00593567,0.427246,0.000000,-0.122070
7980561833,0.00195312,0.00653076,-1.00648499,0.305176,0.122070,-0.061035
7985591125,0.00222778,0.00643921,-1.00701904,0.305176,0.061035,-0.244141
7990600958,0.00250244,0.00685120,-1.00674438,0.427246,0.122070,-0.061035
7995572666,0.00221252,0.00714111,-1.00592041,0.183105,0.122070,-0.061035
8000570333,0.00180054,0.00698853,-1.00544739,0.061035,0.000000,0.000000
8005551375,0.00181580,0.00662231,-1.00563049,0.366211,0.122070,-0.061035
8010572375,0.00209045,0.00633240,-1.00610352,0.427246,0.244141,-0.122070
8015589375,0.00212097,0.00619507,-1.00659180,0.305176,0.122070,-0.122070
8020608541,0.00146484,0.00607300,-1.00703430,0.366211,0.122070,-0.061035
8025579083,0.00054932,0.00631714,-1.00714111,0.244141,0.122070,0.000000
8030592500,0.00038147,0.00686646,-1.00675964,0.427246,0.061035,-0.122070
8035566416,0.00099182,0.00727844,-1.00656128,0.305176,0.122070,-0.122070
8040559958,0.00146484,0.00738525,-1.00686646,0.366211,0.122070,-0.183105
8045559666,0.00132751,0.00730896,-1.00724792,0.427246,0.122070,-0.061035
8050587875,0.00088501,0.00721741,-1.00723267,0.366211,0.061035,-0.061035
8055617375,0.00090027,0.00744629,-1.00689697,0.244141,0.061035,-0.122070
8060575500,0.00123596,0.00794983,-1.00654602,0.183105,-0.061035,-0.061035
8065555125,0.00131226,0.00814819,-1.00643921,0.366211,0.061035,-0.061035
8070579291,0.00129700,0.00807190,-1.00663757,0.244141,0.122070,-0.061035
8075490208,0.00129700,0.00802612,-1.00680542,0.244141,-0.061035,-0.183105
8080602375,0.00111389,0.00776672,-1.00669861,0.488281,0.000000,-0.122070
8085552916,0.00103760,0.00755310,-1.00674438,0.305176,0.000000,-0.122070
8090593833,0.00152588,0.00781250,-1.00685120,0.366211,0.000000,-0.183105
8095606916,0.00219727,0.00796509,-1.00669861,0.305176,0.000000,0.000000
8100580541,0.00238037,0.00746155,-1.00668335,0.183105,0.122070,-0.122070
8105573458,0.00236511,0.00695801,-1.00706482,0.366211,0.061035,-0.122070
8110602458,0.00262451,0.00711060,-1.00744629,0.427246,0.061035,-0.061035
8115612208,0.00273132,0.00758362,-1.00762939,0.366211,0.000000,0.061035
8120603000,0.00254822,0.00759888,-1.00737000,0.305176,0.061035,-0.122070
8125571166,0.00230408,0.00701904,-1.00659180,0.244141,0.061035,-0.122070
8130576000,0.00207520,0.00640869,-1.00595093,0.305176,0.000000,-0.122070
8135566458,0.00192261,0.00622559,-1.00604248,0.183105,0.000000,-0.061035
8140571083,0.00181580,0.00628662,-1.00657654,0.427246,0.122070,-0.061035
8145584583,0.00161743,0.00634766,-1.00679016,0.427246,0.122070,-0.061035
8150601916,0.00144958,0.00634766,-1.00666809,0.305176,0.061035,-0.061035
8155574833,0.00146484,0.00625610,-1.00692749,0.244141,0.061035,-0.122070
8160589583,0.00170898,0.00616455,-1.00729370,0.305176,0.000000,-0.122070
8165559875,0.00187683,0.00640869,-1.00701904,0.305176,0.122070,-0.122070
8170582708,0.00158691,0.00697327,-1.00642395,0.305176,-0.061035,-0.122070
8175580500,0.00111389,0.00735474,-1.00595093,0.366211,0.061035,-0.183105
8180603375,0.00108337,0.00743103,-1.00584412,0.366211,0.122070,-0.183105
8185586750,0.00151062,0.00752258,-1.00604248,0.244141,-0.122070,-0.122070
