timestamp_ns,accel_x,accel_y,accel_z,gyro_x,gyro_y,gyro_z
56897375,0.00082397,0.00730896,-1.00624084,0.366211,0.122070,-0.061035
62575958,0.00115967,0.00686646,-1.00645447,0.366211,0.000000,-0.183105
66729958,0.00164795,0.00704956,-1.00630188,0.427246,0.122070,-0.061035
71776875,0.00219727,0.00708008,-1.00553894,0.366211,0.061035,-0.122070
76842708,0.00254822,0.00694275,-1.00515747,0.427246,0.000000,-0.061035
82527000,0.00288391,0.00708008,-1.00495911,0.366211,0.122070,-0.122070
87386333,0.00343323,0.00747681,-1.00532532,0.366211,0.061035,-0.061035
91856250,0.00366211,0.00788879,-1.00660706,0.427246,0.000000,-0.183105
97886666,0.00323486,0.00813293,-1.00709534,0.366211,0.122070,-0.122070
107453375,0.00280762,0.00811768,-1.00595093,0.244141,0.000000,-0.183105
107485000,0.00260925,0.00819397,-1.00483704,0.122070,0.061035,-0.183105
112487041,0.00225830,0.00849915,-1.00502014,0.488281,0.061035,-0.061035
117319958,0.00199890,0.00845337,-1.00602722,0.366211,0.061035,-0.061035
122085333,0.00207520,0.00799561,-1.00680542,0.305176,0.061035,-0.183105
127752166,0.00207520,0.00769043,-1.00704956,0.427246,0.000000,-0.061035
132134291,0.00183105,0.00770569,-1.00672913,0.366211,0.061035,-0.061035
136900791,0.00167847,0.00778198,-1.00588989,0.183105,0.061035,-0.061035
142233583,0.00151062,0.00764465,-1.00480652,0.366211,0.000000,-0.183105
146751625,0.00119019,0.00717163,-1.00418091,0.305176,0.122070,-0.122070
151705916,0.00086975,0.00659180,-1.00459290,0.244141,0.122070,-0.183105
156775458,0.00048828,0.00646973,-1.00564575,0.244141,0.000000,-0.122070
161725166,-0.00003052,0.00691223,-1.00645447,0.305176,0.000000,-0.061035
166746416,-0.00057983,0.00732422,-1.00688171,0.427246,0.061035,-0.122070
171723750,-0.00059509,0.00735474,-1.00712585,0.366211,0.061035,-0.061035
176800791,0.00015259,0.00709534,-1.00677490,0.183105,0.000000,-0.061035
181751875,0.00125122,0.00712585,-1.00601196,0.244141,0.061035,-0.122070
186795958,0.00215149,0.00767517,-1.00564575,0.366211,0.061035,-0.061035
191761333,0.00238037,0.00849915,-1.00621033,0.244141,0.061035,0.000000
196784500,0.00228882,0.00888062,-1.00723267,0.366211,0.122070,-0.061035
201759791,0.00242615,0.00860596,-1.00759888,0.366211,0.000000,-0.122070
206780916,0.00285339,0.00827026,-1.00701904,0.244141,0.000000,-0.122070
211751916,0.00328064,0.00801086,-1.00640869,0.427246,0.061035,-0.122070
216809833,0.00337219,0.00752258,-1.00651550,0.305176,0.061035,-0.183105
221796041,0.00312805,0.00688171,-1.00691223,0.305176,0.061035,-0.061035
226814333,0.00299072,0.00646973,-1.00685120,0.305176,0.000000,-0.061035
231781083,0.00315857,0.00657654,-1.00660706,0.183105,-0.061035,-0.122070
236782083,0.00297546,0.00701904,-1.00666809,0.244141,0.061035,-0.122070
241753125,0.00204468,0.00720215,-1.00665283,0.366211,0.061035,-0.061035
246784458,0.00128174,0.00698853,-1.00646973,0.305176,0.061035,-0.061035
251784416,0.00151062,0.00680542,-1.00619507,0.244141,-0.061035,-0.183105
256835916,0.00180054,0.00677490,-1.00595093,0.183105,0.061035,-0.122070
261791083,0.00144958,0.00683594,-1.00598145,0.305176,-0.061035,-0.122070
266789833,0.00106812,0.00704956,-1.00622559,0.366211,0.061035,-0.183105
271774500,0.00128174,0.00740051,-1.00639343,0.244141,0.000000,-0.122070
276774833,0.00173950,0.00779724,-1.00640869,0.305176,0.000000,0.000000
281785041,0.00199890,0.00820923,-1.00651550,0.305176,-0.061035,-0.244141
286775916,0.00216675,0.00860596,-1.00662231,0.366211,0.000000,-0.122070
291762541,0.00204468,0.00856018,-1.00628662,0.244141,0.183105,-0.183105
296822333,0.00155640,0.00791931,-1.00549316,0.183105,0.000000,0.000000
301820291,0.00132751,0.00732422,-1.00491333,0.305176,0.000000,-0.122070
306774708,0.00163269,0.00732422,-1.00529480,0.183105,0.122070,-0.061035
311769125,0.00195312,0.00765991,-1.00639343,0.244141,0.122070,-0.183105
316818041,0.00201416,0.00802612,-1.00720215,0.427246,0.000000,-0.122070
321815041,0.00195312,0.00839233,-1.00701904,0.488281,-0.061035,-0.061035
326808291,0.00190735,0.00845337,-1.00608826,0.427246,0.122070,0.000000
331766375,0.00183105,0.00787354,-1.00547791,0.427246,0.061035,-0.122070
336785083,0.00173950,0.00697327,-1.00546265,0.427246,0.061035,-0.122070
341764333,0.00163269,0.00646973,-1.00585938,0.305176,0.000000,-0.183105
346786500,0.00152588,0.00683594,-1.00672913,0.366211,0.122070,-0.061035
351768125,0.00152588,0.00755310,-1.00762939,0.366211,0.122070,-0.122070
356809250,0.00184631,0.00791931,-1.00767517,0.183105,0.061035,-0.061035
361797166,0.00239563,0.00788879,-1.00691223,0.305176,0.000000,-0.122070
366773875,0.00280762,0.00779724,-1.00645447,0.366211,-0.061035,0.000000
371761750,0.00265503,0.00781250,-1.00668335,0.305176,0.061035,-0.061035
376774166,0.00178528,0.00808716,-1.00704956,0.366211,0.000000,-0.122070
381789166,0.00070190,0.00852966,-1.00708008,0.122070,0.061035,-0.061035
386804708,0.00036621,0.00860596,-1.00698853,0.122070,0.000000,-0.061035
391775125,0.00102234,0.00820923,-1.00682068,0.305176,-0.061035,-0.244141
396801208,0.00195312,0.00781250,-1.00653076,0.427246,0.000000,-0.122070
401811958,0.00263977,0.00761414,-1.00639343,0.183105,-0.061035,-0.183105
406794500,0.00270081,0.00733948,-1.00637817,0.366211,0.000000,-0.061035
411793375,0.00224304,0.00683594,-1.00604248,0.366211,0.183105,-0.061035
416820708,0.00196838,0.00636292,-1.00564575,0.366211,0.000000,0.061035
421796958,0.00210571,0.00605774,-1.00556946,0.366211,0.000000,-0.061035
426789208,0.00259399,0.00601196,-1.00538635,0.366211,0.061035,-0.122070
431786875,0.00296021,0.00619507,-1.00543213,0.488281,0.061035,-0.061035
436798541,0.00323486,0.00634766,-1.00605774,0.366211,0.000000,-0.183105
441784708,0.00355530,0.00628662,-1.00686646,0.305176,0.000000,-0.122070
446795416,0.00320435,0.00610352,-1.00733948,0.366211,0.000000,-0.122070
451806250,0.00221252,0.00621033,-1.00718689,0.366211,0.000000,-0.122070
456815958,0.00195312,0.00656128,-1.00628662,0.427246,0.061035,-0.061035
461810791,0.00285339,0.00672913,-1.00532532,0.244141,0.122070,-0.183105
466880750,0.00354004,0.00679016,-1.00546265,0.427246,0.122070,0.000000
471776583,0.00300598,0.00708008,-1.00637817,0.244141,0.000000,-0.061035
476791708,0.00201416,0.00741577,-1.00697327,0.366211,0.061035,-0.122070
481800791,0.00155640,0.00759888,-1.00686646,0.305176,0.061035,0.000000
486839708,0.00122070,0.00755310,-1.00633240,0.427246,0.122070,-0.122070
491811375,0.00070190,0.00758362,-1.00590515,0.366211,0.061035,-0.061035
496829958,0.00035095,0.00775146,-1.00595093,0.305176,0.061035,-0.061035
501793583,0.00044250,0.00782776,-1.00637817,0.366211,0.122070,-0.061035
506794875,0.00114441,0.00793457,-1.00672913,0.427246,0.183105,-0.061035
511806041,0.00180054,0.00842285,-1.00646973,0.305176,0.122070,0.000000
516902958,0.00169373,0.00901794,-1.00581360,0.305176,0.000000,0.000000
521786916,0.00100708,0.00906372,-1.00558472,0.427246,0.000000,0.000000
526808291,0.00059509,0.00860596,-1.00601196,0.366211,0.000000,-0.122070
531778666,0.00112915,0.00851440,-1.00653076,0.305176,0.000000,-0.122070
536828000,0.00212097,0.00880432,-1.00662231,0.305176,0.061035,-0.122070
541798000,0.00273132,0.00857544,-1.00643921,0.305176,0.000000,-0.061035
546839125,0.00262451,0.00798035,-1.00631714,0.244141,0.061035,-0.061035
551788583,0.00210571,0.00769043,-1.00617981,0.244141,0.061035,0.000000
556813541,0.00163269,0.00765991,-1.00599670,0.366211,0.122070,0.061035
561773125,0.00154114,0.00735474,-1.00610352,0.366211,0.061035,0.000000
566801666,0.00178528,0.00686646,-1.00665283,0.488281,-0.061035,0.000000
571780166,0.00196838,0.00685120,-1.00700378,0.366211,0.061035,-0.122070
576812500,0.00199890,0.00709534,-1.00662231,0.366211,0.000000,-0.244141
581798708,0.00209045,0.00709534,-1.00610352,0.244141,0.061035,-0.122070
586849666,0.00234985,0.00711060,-1.00610352,0.305176,0.000000,-0.061035
591838708,0.00259399,0.00721741,-1.00648499,0.061035,0.061035,-0.061035
596850791,0.00248718,0.00714111,-1.00698853,0.427246,0.000000,-0.122070
601798500,0.00216675,0.00698853,-1.00723267,0.244141,0.061035,-0.183105
606808875,0.00227356,0.00708008,-1.00691223,0.366211,0.061035,0.000000
611801916,0.00251770,0.00718689,-1.00656128,0.427246,0.000000,-0.122070
616836333,0.00224304,0.00727844,-1.00677490,0.244141,0.000000,0.000000
621871500,0.00187683,0.00729370,-1.00711060,0.427246,-0.122070,0.000000
626830625,0.00183105,0.00700378,-1.00726318,0.305176,0.000000,-0.122070
631820333,0.00183105,0.00666809,-1.00723267,0.366211,-0.061035,0.000000
636804125,0.00169373,0.00685120,-1.00688171,0.305176,0.000000,0.000000
641798291,0.00154114,0.00744629,-1.00651550,0.244141,-0.061035,-0.183105
646813875,0.00175476,0.00784302,-1.00651550,0.366211,-0.061035,-0.183105
651843666,0.00274658,0.00793457,-1.00665283,0.244141,0.122070,-0.183105
656823000,0.00360107,0.00796509,-1.00662231,0.183105,0.000000,-0.183105
661836458,0.00338745,0.00778198,-1.00622559,0.488281,0.000000,-0.122070
666837666,0.00241089,0.00743103,-1.00585938,0.305176,0.122070,0.000000
671817583,0.00166321,0.00723267,-1.00579834,0.549316,0.000000,0.000000
676822416,0.00183105,0.00709534,-1.00584412,0.305176,0.244141,-0.122070
681825708,0.00247192,0.00720215,-1.00593567,0.305176,0.000000,-0.183105
686859833,0.00259399,0.00775146,-1.00619507,0.366211,0.000000,-0.122070
691831833,0.00225830,0.00827026,-1.00651550,0.183105,0.061035,-0.122070
696823208,0.00218201,0.00839233,-1.00650024,0.183105,0.061035,-0.183105
701853458,0.00212097,0.00820923,-1.00613403,0.244141,0.061035,-0.122070
706820416,0.00175476,0.00781250,-1.00572205,0.427246,0.061035,-0.061035
711797875,0.00125122,0.00758362,-1.00584412,0.305176,0.000000,0.000000
716847708,0.00080872,0.00781250,-1.00660706,0.366211,0.061035,0.000000
721826750,0.00094604,0.00779724,-1.00729370,0.305176,-0.061035,-0.183105
726873375,0.00154114,0.00718689,-1.00747681,0.305176,0.061035,-0.061035
731823625,0.00166321,0.00671387,-1.00733948,0.244141,0.061035,-0.061035
736823416,0.00125122,0.00685120,-1.00698853,0.366211,0.000000,-0.122070
741830708,0.00108337,0.00703430,-1.00633240,0.244141,0.061035,0.000000
746839708,0.00148010,0.00711060,-1.00555420,0.305176,0.122070,0.061035
751819541,0.00184631,0.00709534,-1.00547791,0.305176,0.000000,-0.183105
756855291,0.00164795,0.00695801,-1.00604248,0.244141,0.061035,-0.122070
761815791,0.00138855,0.00695801,-1.00627136,0.305176,0.183105,-0.183105
766837291,0.00193787,0.00717163,-1.00587463,0.244141,0.122070,-0.183105
771809833,0.00265503,0.00740051,-1.00543213,0.305176,0.000000,0.000000
776844458,0.00241089,0.00744629,-1.00553894,0.183105,0.000000,-0.061035
781817666,0.00160217,0.00715637,-1.00622559,0.305176,0.061035,0.000000
786836375,0.00163269,0.00685120,-1.00672913,0.305176,0.000000,-0.122070
791821625,0.00245667,0.00697327,-1.00665283,0.427246,0.122070,-0.122070
796838250,0.00294495,0.00712585,-1.00639343,0.244141,0.061035,-0.122070
801839875,0.00263977,0.00709534,-1.00643921,0.244141,0.122070,0.000000
806836625,0.00202942,0.00726318,-1.00662231,0.244141,-0.061035,-0.122070
811829166,0.00178528,0.00741577,-1.00656128,0.305176,-0.122070,-0.183105
816857291,0.00189209,0.00717163,-1.00639343,0.244141,0.000000,-0.061035
821820625,0.00215149,0.00685120,-1.00646973,0.549316,0.061035,0.000000
826840291,0.00239563,0.00688171,-1.00668335,0.366211,0.122070,-0.061035
831831375,0.00245667,0.00741577,-1.00657654,0.305176,0.183105,-0.122070
836830583,0.00231934,0.00808716,-1.00625610,0.366211,0.061035,-0.122070
841823791,0.00236511,0.00836182,-1.00630188,0.366211,0.061035,-0.061035
846849041,0.00242615,0.00804138,-1.00648499,0.305176,0.122070,-0.122070
851836000,0.00202942,0.00735474,-1.00631714,0.305176,0.000000,-0.061035
856867833,0.00164795,0.00703430,-1.00616455,0.305176,0.000000,-0.183105
861852416,0.00166321,0.00733948,-1.00627136,0.366211,0.061035,-0.061035
866845958,0.00152588,0.00761414,-1.00651550,0.305176,0.000000,-0.122070
871829291,0.00112915,0.00758362,-1.00668335,0.366211,-0.061035,-0.061035
876857375,0.00090027,0.00776672,-1.00654602,0.366211,-0.061035,-0.183105
881890875,0.00091553,0.00814819,-1.00624084,0.305176,0.000000,-0.122070
886862666,0.00099182,0.00816345,-1.00607300,0.549316,0.122070,-0.061035
891853666,0.00128174,0.00784302,-1.00611877,0.366211,0.061035,0.000000
896876041,0.00177002,0.00741577,-1.00604248,0.305176,0.061035,0.000000
901852541,0.00238037,0.00688171,-1.00590515,0.427246,0.061035,-0.061035
906834250,0.00288391,0.00646973,-1.00601196,0.183105,0.000000,-0.061035
911832083,0.00262451,0.00671387,-1.00666809,0.366211,0.061035,-0.061035
916885208,0.00180054,0.00755310,-1.00758362,0.305176,0.061035,-0.061035
921878416,0.00111389,0.00831604,-1.00782776,0.366211,0.061035,0.000000
926860583,0.00109863,0.00843811,-1.00691223,0.183105,0.122070,-0.122070
931847958,0.00158691,0.00793457,-1.00596619,0.183105,0.000000,-0.061035
936859916,0.00180054,0.00738525,-1.00624084,0.244141,-0.061035,-0.183105
941832041,0.00175476,0.00720215,-1.00698853,0.366211,0.122070,-0.122070
946848875,0.00184631,0.00726318,-1.00688171,0.305176,0.000000,0.000000
951821625,0.00178528,0.00732422,-1.00622559,0.305176,0.000000,-0.061035
956865833,0.00152588,0.00732422,-1.00613403,0.366211,-0.061035,0.000000
961855875,0.00120544,0.00720215,-1.00672913,0.305176,0.000000,0.061035
966865958,0.00100708,0.00683594,-1.00727844,0.244141,0.061035,-0.061035
971836166,0.00115967,0.00648499,-1.00717163,0.366211,0.061035,-0.122070
976840916,0.00186157,0.00662231,-1.00665283,0.488281,0.000000,-0.122070
981842916,0.00251770,0.00709534,-1.00643921,0.244141,0.061035,-0.122070
986853166,0.00262451,0.00738525,-1.00624084,0.244141,0.061035,0.061035
991839375,0.00247192,0.00756836,-1.00553894,0.305176,0.061035,-0.183105
996862041,0.00239563,0.00788879,-1.00488281,0.305176,0.000000,-0.061035
1001871625,0.00241089,0.00773621,-1.00529480,0.427246,0.061035,-0.122070
1006859458,0.00244141,0.00695801,-1.00627136,0.305176,0.122070,-0.061035
1011840583,0.00241089,0.00666809,-1.00656128,0.427246,0.061035,0.000000
1016881625,0.00216675,0.00721741,-1.00628662,0.366211,0.061035,-0.122070
1021846000,0.00187683,0.00759888,-1.00640869,0.366211,0.122070,-0.061035
1026855250,0.00189209,0.00764465,-1.00674438,0.366211,0.000000,-0.122070
1031867375,0.00212097,0.00755310,-1.00671387,0.427246,0.183105,0.061035
1036889041,0.00207520,0.00727844,-1.00631714,0.244141,0.122070,0.061035
1041854333,0.00169373,0.00709534,-1.00593567,0.366211,0.061035,-0.061035
1046851583,0.00143433,0.00694275,-1.00582886,0.244141,0.061035,-0.061035
1051879500,0.00169373,0.00671387,-1.00585938,0.305176,0.061035,-0.122070
1056890125,0.00233459,0.00665283,-1.00596619,0.549316,0.122070,-0.061035
1061851875,0.00262451,0.00662231,-1.00592041,0.244141,0.061035,-0.061035
1066859250,0.00212097,0.00671387,-1.00559998,0.244141,0.061035,-0.183105
1071860208,0.00169373,0.00703430,-1.00546265,0.305176,0.000000,-0.061035
1076862708,0.00196838,0.00717163,-1.00567627,0.366211,0.122070,-0.183105
1081846750,0.00231934,0.00726318,-1.00608826,0.366211,0.061035,-0.183105
1086932041,0.00222778,0.00775146,-1.00665283,0.366211,0.122070,-0.122070
1091882250,0.00207520,0.00825500,-1.00683594,0.305176,-0.122070,-0.061035
1096900041,0.00192261,0.00836182,-1.00637817,0.183105,0.000000,-0.122070
1101855791,0.00146484,0.00811768,-1.00592041,0.427246,0.000000,-0.061035
1106867166,0.00088501,0.00784302,-1.00595093,0.366211,-0.061035,-0.122070
1111859083,0.00115967,0.00775146,-1.00642395,0.305176,0.061035,0.061035
1116869833,0.00205994,0.00791931,-1.00677490,0.427246,0.061035,0.000000
1121884041,0.00239563,0.00816345,-1.00650024,0.305176,0.122070,-0.061035
1126863291,0.00209045,0.00808716,-1.00582886,0.366211,0.000000,-0.122070
1131844625,0.00202942,0.00776672,-1.00550842,0.244141,-0.061035,-0.061035
1136864791,0.00225830,0.00756836,-1.00581360,0.305176,0.061035,-0.122070
1141866125,0.00198364,0.00743103,-1.00628662,0.427246,0.000000,-0.061035
1146875791,0.00138855,0.00730896,-1.00659180,0.427246,0.061035,-0.061035
1151863416,0.00123596,0.00727844,-1.00668335,0.427246,0.061035,-0.061035
1156876166,0.00114441,0.00718689,-1.00639343,0.549316,0.122070,-0.061035
1161871333,0.00088501,0.00718689,-1.00634766,0.305176,0.000000,-0.122070
1166884416,0.00119019,0.00741577,-1.00694275,0.366211,0.000000,-0.122070
1171860208,0.00190735,0.00735474,-1.00721741,0.366211,0.000000,-0.122070
1176871875,0.00216675,0.00704956,-1.00662231,0.305176,0.122070,-0.061035
1181864333,0.00202942,0.00714111,-1.00619507,0.427246,0.061035,-0.061035
1186909875,0.00201416,0.00723267,-1.00653076,0.244141,0.061035,-0.122070
1191870625,0.00224304,0.00682068,-1.00679016,0.305176,0.000000,-0.061035
1196889875,0.00245667,0.00639343,-1.00645447,0.549316,0.183105,-0.061035
1201877125,0.00260925,0.00651550,-1.00613403,0.244141,-0.061035,-0.061035
1206877125,0.00265503,0.00692749,-1.00611877,0.427246,0.000000,-0.061035
1211868375,0.00236511,0.00704956,-1.00607300,0.305176,0.000000,-0.061035
1216900250,0.00198364,0.00704956,-1.00608826,0.305176,0.061035,-0.122070
1221885375,0.00175476,0.00732422,-1.00624084,0.488281,0.000000,-0.183105
1226895416,0.00172424,0.00740051,-1.00619507,0.366211,0.061035,-0.122070
1231866333,0.00183105,0.00733948,-1.00596619,0.183105,0.061035,-0.122070
1236883125,0.00157166,0.00775146,-1.00584412,0.305176,0.122070,-0.061035
1241905541,0.00109863,0.00831604,-1.00587463,0.366211,-0.061035,-0.122070
1246877875,0.00120544,0.00851440,-1.00573730,0.305176,0.000000,-0.122070
1251877291,0.00166321,0.00837708,-1.00538635,0.305176,0.061035,-0.061035
1256909791,0.00170898,0.00831604,-1.00555420,0.305176,0.061035,0.000000
1261874083,0.00143433,0.00842285,-1.00613403,0.366211,0.122070,-0.061035
1266896291,0.00125122,0.00843811,-1.00646973,0.305176,0.122070,-0.061035
1271873333,0.00131226,0.00831604,-1.00651550,0.610352,0.061035,-0.061035
1276888208,0.00111389,0.00810242,-1.00668335,0.305176,0.000000,-0.183105
1281875583,0.00083923,0.00775146,-1.00700378,0.366211,0.000000,-0.061035
1286879916,0.00114441,0.00752258,-1.00704956,0.366211,0.000000,-0.061035
1291865250,0.00166321,0.00762939,-1.00698853,0.366211,0.061035,-0.122070
1296887208,0.00190735,0.00779724,-1.00714111,0.427246,0.122070,0.061035
1301865000,0.00216675,0.00782776,-1.00732422,0.427246,0.061035,-0.061035
1306895083,0.00234985,0.00781250,-1.00724792,0.122070,0.061035,-0.122070
1311877625,0.00222778,0.00781250,-1.00697327,0.366211,0.122070,0.000000
1316888208,0.00198364,0.00788879,-1.00679016,0.366211,0.061035,-0.061035
1321900416,0.00201416,0.00770569,-1.00651550,0.366211,0.000000,0.000000
1326888666,0.00244141,0.00718689,-1.00610352,0.488281,0.122070,-0.122070
1331873541,0.00274658,0.00691223,-1.00599670,0.427246,0.061035,0.000000
1336882375,0.00267029,0.00726318,-1.00627136,0.366211,0.122070,-0.122070
1341884750,0.00244141,0.00761414,-1.00610352,0.305176,0.122070,-0.122070
1346898541,0.00221252,0.00718689,-1.00540161,0.244141,0.061035,-0.122070
1351876541,0.00218201,0.00640869,-1.00512695,0.305176,0.061035,0.000000
1356923250,0.00216675,0.00625610,-1.00553894,0.244141,0.061035,-0.122070
1361904250,0.00202942,0.00660706,-1.00604248,0.305176,-0.122070,-0.183105
1366882541,0.00192261,0.00668335,-1.00622559,0.305176,0.244141,-0.122070
1371894250,0.00183105,0.00643921,-1.00622559,0.427246,0.000000,-0.061035
1376899416,0.00164795,0.00619507,-1.00651550,0.305176,0.061035,-0.061035
1381858666,0.00173950,0.00602722,-1.00677490,0.366211,-0.061035,-0.244141
1386918750,0.00205994,0.00608826,-1.00656128,0.305176,0.000000,-0.183105
1391890250,0.00193787,0.00628662,-1.00621033,0.305176,0.061035,-0.183105
1396926958,0.00151062,0.00642395,-1.00646973,0.488281,0.000000,0.000000
1401901708,0.00132751,0.00668335,-1.00692749,0.427246,0.000000,0.000000
1406887583,0.00140381,0.00720215,-1.00666809,0.610352,0.183105,-0.122070
1411889458,0.00149536,0.00762939,-1.00599670,0.305176,0.122070,-0.061035
1416897958,0.00170898,0.00756836,-1.00550842,0.366211,0.000000,-0.122070
1421908333,0.00195312,0.00724792,-1.00534058,0.366211,0.122070,-0.122070
1426911166,0.00181580,0.00695801,-1.00555420,0.305176,0.122070,-0.122070
1431871083,0.00160217,0.00698853,-1.00613403,0.244141,0.000000,-0.183105
1436885583,0.00161743,0.00721741,-1.00666809,0.305176,0.122070,-0.061035
1441897166,0.00160217,0.00735474,-1.00659180,0.305176,-0.061035,-0.122070
1446895166,0.00151062,0.00733948,-1.00602722,0.366211,0.061035,0.000000
1451886458,0.00169373,0.00730896,-1.00569153,0.488281,0.000000,0.061035
1456942958,0.00222778,0.00726318,-1.00607300,0.366211,0.122070,-0.122070
1461913666,0.00263977,0.00737000,-1.00653076,0.366211,0.122070,-0.244141
1466926125,0.00262451,0.00782776,-1.00662231,0.305176,-0.061035,-0.122070
1471882708,0.00238037,0.00834656,-1.00683594,0.244141,-0.061035,-0.122070
1476907083,0.00225830,0.00836182,-1.00717163,0.305176,-0.061035,-0.122070
1481880416,0.00222778,0.00820923,-1.00703430,0.244141,0.061035,-0.122070
1486905416,0.00186157,0.00833130,-1.00668335,0.305176,0.122070,-0.061035
1491880583,0.00135803,0.00827026,-1.00669861,0.305176,0.183105,-0.061035
1496896416,0.00137329,0.00787354,-1.00694275,0.244141,0.061035,0.122070
1501905666,0.00166321,0.00778198,-1.00709534,0.366211,0.000000,-0.183105
1506892041,0.00154114,0.00822449,-1.00744629,0.244141,0.122070,-0.122070
1511890375,0.00117493,0.00860596,-1.00781250,0.366211,0.122070,-0.061035
1516930208,0.00135803,0.00839233,-1.00764465,0.305176,0.000000,0.000000
1521909625,0.00204468,0.00791931,-1.00701904,0.427246,0.122070,-0.061035
1526913625,0.00259399,0.00752258,-1.00666809,0.244141,0.122070,0.061035
1531906666,0.00288391,0.00712585,-1.00700378,0.305176,0.000000,-0.122070
1536912583,0.00286865,0.00715637,-1.00712585,0.305176,0.000000,-0.061035
1541902333,0.00259399,0.00781250,-1.00666809,0.488281,-0.061035,-0.183105
1546915375,0.00241089,0.00828552,-1.00643921,0.244141,0.000000,-0.122070
1551937750,0.00251770,0.00801086,-1.00700378,0.427246,0.000000,-0.122070
1556946333,0.00271606,0.00744629,-1.00784302,0.488281,0.000000,0.000000
1561903875,0.00260925,0.00701904,-1.00784302,0.366211,0.122070,-0.244141
1566905083,0.00218201,0.00682068,-1.00669861,0.244141,0.061035,-0.122070
1571886791,0.00155640,0.00683594,-1.00563049,0.366211,0.061035,-0.122070
1576919625,0.00112915,0.00704956,-1.00550842,0.427246,0.000000,-0.244141
1581917125,0.00125122,0.00701904,-1.00588989,0.427246,0.122070,0.000000
1586904291,0.00163269,0.00680542,-1.00645447,0.366211,-0.061035,-0.061035
1591884041,0.00163269,0.00706482,-1.00697327,0.305176,0.000000,-0.061035
1596921583,0.00135803,0.00744629,-1.00683594,0.366211,0.000000,-0.122070
1601899166,0.00143433,0.00724792,-1.00619507,0.366211,0.000000,-0.061035
1606915625,0.00160217,0.00688171,-1.00598145,0.366211,0.000000,-0.122070
1611911500,0.00123596,0.00685120,-1.00656128,0.305176,0.122070,-0.061035
1616917125,0.00097656,0.00697327,-1.00738525,0.366211,0.000000,-0.122070
1621907875,0.00173950,0.00692749,-1.00758362,0.305176,0.122070,0.000000
1626915291,0.00268555,0.00686646,-1.00682068,0.244141,0.122070,-0.183105
1631906500,0.00279236,0.00691223,-1.00595093,0.366211,0.061035,0.000000
1636909875,0.00241089,0.00682068,-1.00550842,0.305176,0.061035,-0.122070
1641911875,0.00218201,0.00665283,-1.00535583,0.305176,0.061035,0.061035
1646912416,0.00195312,0.00677490,-1.00550842,0.305176,0.061035,-0.122070
1651921500,0.00175476,0.00712585,-1.00613403,0.305176,0.000000,-0.122070
1656922041,0.00210571,0.00720215,-1.00674438,0.366211,0.061035,-0.061035
1661918625,0.00250244,0.00698853,-1.00669861,0.366211,-0.061035,-0.061035
1666920916,0.00224304,0.00694275,-1.00608826,0.366211,0.122070,-0.061035
1671907333,0.00169373,0.00724792,-1.00578308,0.366211,0.000000,-0.061035
1676915875,0.00166321,0.00747681,-1.00633240,0.244141,-0.061035,-0.061035
1681930708,0.00213623,0.00753784,-1.00704956,0.366211,0.061035,-0.061035
1686940958,0.00231934,0.00765991,-1.00715637,0.305176,0.000000,0.061035
1691906250,0.00192261,0.00744629,-1.00686646,0.366211,0.061035,-0.122070
1696922000,0.00154114,0.00666809,-1.00643921,0.305176,0.122070,-0.061035
1701926375,0.00154114,0.00593567,-1.00646973,0.183105,0.000000,-0.183105
1707009500,0.00163269,0.00593567,-1.00727844,0.305176,0.183105,0.000000
1711907125,0.00195312,0.00662231,-1.00772095,0.366211,0.061035,-0.122070
1716939083,0.00253296,0.00752258,-1.00711060,0.427246,0.061035,-0.122070
1721928333,0.00285339,0.00814819,-1.00640869,0.305176,-0.061035,-0.122070
1726923666,0.00288391,0.00819397,-1.00631714,0.488281,0.122070,-0.061035
1731906541,0.00270081,0.00765991,-1.00665283,0.366211,0.061035,-0.061035
1736920791,0.00250244,0.00701904,-1.00697327,0.366211,0.061035,-0.122070
1741924708,0.00253296,0.00689697,-1.00720215,0.244141,0.000000,-0.061035
1746952791,0.00273132,0.00741577,-1.00704956,0.366211,-0.061035,-0.122070
1751938250,0.00268555,0.00796509,-1.00642395,0.244141,0.122070,-0.122070
1756938666,0.00248718,0.00804138,-1.00602722,0.488281,0.061035,-0.122070
1761899291,0.00238037,0.00796509,-1.00611877,0.366211,-0.061035,-0.061035
1766944708,0.00228882,0.00772095,-1.00616455,0.244141,0.000000,-0.061035
1771927625,0.00177002,0.00704956,-1.00584412,0.366211,0.061035,-0.122070
1776942333,0.00108337,0.00654602,-1.00544739,0.366211,0.061035,0.061035
1781926541,0.00119019,0.00697327,-1.00529480,0.305176,0.122070,0.061035
1786937750,0.00164795,0.00784302,-1.00552368,0.244141,0.000000,-0.122070
1791912000,0.00143433,0.00790405,-1.00613403,0.305176,0.183105,-0.061035
1796935541,0.00082397,0.00738525,-1.00683594,0.305176,0.000000,0.000000
1801928750,0.00083923,0.00730896,-1.00741577,0.305176,0.000000,-0.061035
1806931416,0.00157166,0.00772095,-1.00767517,0.427246,0.122070,-0.122070
1811916958,0.00227356,0.00791931,-1.00727844,0.305176,0.122070,-0.061035
1816961750,0.00247192,0.00775146,-1.00682068,0.427246,0.061035,-0.122070
1821921833,0.00209045,0.00784302,-1.00717163,0.305176,0.000000,-0.122070
1826929875,0.00173950,0.00817871,-1.00764465,0.427246,0.061035,0.000000
1831921750,0.00198364,0.00834656,-1.00724792,0.427246,-0.061035,0.000000
1836942916,0.00265503,0.00833130,-1.00675964,0.427246,-0.061035,-0.061035
1841936833,0.00317383,0.00827026,-1.00680542,0.366211,0.000000,-0.061035
1846946125,0.00311279,0.00810242,-1.00657654,0.305176,0.000000,-0.183105
1851941625,0.00250244,0.00759888,-1.00630188,0.366211,0.244141,-0.061035
1856940875,0.00175476,0.00700378,-1.00637817,0.183105,0.061035,0.000000
1861962916,0.00140381,0.00668335,-1.00616455,0.122070,0.000000,-0.244141
1866948208,0.00157166,0.00665283,-1.00588989,0.122070,0.061035,-0.122070
1871935958,0.00199890,0.00680542,-1.00621033,0.244141,0.061035,-0.122070
1876941041,0.00221252,0.00665283,-1.00657654,0.183105,0.000000,0.000000
1881931666,0.00225830,0.00633240,-1.00657654,0.305176,-0.061035,-0.061035
1886924333,0.00230408,0.00668335,-1.00650024,0.305176,-0.061035,-0.061035
1891934333,0.00205994,0.00746155,-1.00604248,0.244141,0.061035,-0.183105
1896979333,0.00186157,0.00790405,-1.00531006,0.183105,0.000000,-0.183105
1901921041,0.00222778,0.00784302,-1.00529480,0.122070,0.000000,-0.122070
1906931666,0.00276184,0.00750732,-1.00592041,0.244141,0.122070,-0.061035
1911940666,0.00283813,0.00711060,-1.00624084,0.305176,-0.061035,-0.122070
1916957583,0.00268555,0.00697327,-1.00622559,0.244141,0.061035,-0.122070
1921948166,0.00276184,0.00715637,-1.00610352,0.305176,0.122070,-0.061035
1926954500,0.00296021,0.00735474,-1.00599670,0.305176,0.061035,-0.061035
1931926708,0.00294495,0.00767517,-1.00622559,0.366211,0.061035,-0.122070
1936990458,0.00239563,0.00823975,-1.00679016,0.183105,0.061035,-0.183105
1941939041,0.00166321,0.00839233,-1.00712585,0.122070,0.061035,-0.122070
1946967166,0.00134277,0.00756836,-1.00688171,0.122070,0.183105,-0.061035
1951937791,0.00152588,0.00657654,-1.00668335,0.305176,0.122070,-0.061035
1957105083,0.00190735,0.00643921,-1.00706482,0.183105,0.061035,-0.061035
1961982250,0.00210571,0.00704956,-1.00781250,0.122070,0.000000,-0.122070
1966994541,0.00190735,0.00770569,-1.00845337,0.122070,0.122070,0.000000
1971929791,0.00149536,0.00810242,-1.00801086,0.122070,0.000000,0.000000
1976959916,0.00115967,0.00805664,-1.00654602,0.366211,0.061035,-0.122070
1981930583,0.00120544,0.00778198,-1.00569153,0.122070,0.061035,-0.244141
1986936500,0.00161743,0.00782776,-1.00569153,0.183105,0.061035,-0.244141
1991966750,0.00196838,0.00817871,-1.00564575,0.122070,0.122070,-0.122070
1996963541,0.00201416,0.00852966,-1.00559998,0.244141,0.000000,-0.122070
2002022291,0.00195312,0.00871277,-1.00596619,0.183105,0.122070,-0.122070
2006974791,0.00192261,0.00856018,-1.00653076,0.122070,0.122070,-0.122070
2011976125,0.00177002,0.00830078,-1.00688171,0.183105,0.122070,-0.122070
2016985958,0.00135803,0.00808716,-1.00697327,0.183105,0.122070,-0.244141
2021933583,0.00102234,0.00787354,-1.00708008,0.244141,0.122070,-0.061035
2026953708,0.00129700,0.00776672,-1.00721741,0.183105,0.061035,-0.183105
2031961458,0.00209045,0.00776672,-1.00708008,0.244141,0.061035,0.000000
2037013500,0.00230408,0.00770569,-1.00692749,0.244141,0.122070,0.000000
2041988666,0.00154114,0.00744629,-1.00711060,0.183105,0.061035,-0.061035
2047013291,0.00108337,0.00709534,-1.00733948,0.305176,0.183105,-0.122070
2051995208,0.00149536,0.00680542,-1.00732422,0.122070,0.061035,-0.183105
2056980041,0.00209045,0.00657654,-1.00695801,0.061035,0.183105,-0.122070
2061966416,0.00242615,0.00643921,-1.00654602,0.244141,-0.061035,-0.183105
2067066625,0.00231934,0.00679016,-1.00627136,0.183105,0.061035,-0.061035
2071961916,0.00177002,0.00749207,-1.00596619,0.244141,0.061035,-0.183105
2076979041,0.00117493,0.00775146,-1.00563049,0.183105,0.061035,-0.061035
2081969375,0.00122070,0.00756836,-1.00544739,0.305176,0.000000,-0.122070
2086972500,0.00198364,0.00749207,-1.00556946,0.366211,0.061035,0.000000
2091940125,0.00253296,0.00746155,-1.00529480,0.305176,0.000000,0.000000
2096968833,0.00205994,0.00732422,-1.00465393,0.366211,0.061035,0.000000
2101985125,0.00070190,0.00691223,-1.00431824,0.244141,0.000000,0.061035
2106960875,-0.00070190,0.00607300,-1.00479126,0.366211,0.061035,-0.122070
2111947125,-0.00117493,0.00550842,-1.00611877,0.427246,0.061035,-0.061035
2117029458,-0.00044250,0.00559998,-1.00682068,0.305176,0.000000,-0.061035
2121942416,0.00071716,0.00593567,-1.00708008,0.366211,-0.061035,-0.061035
2126965791,0.00196838,0.00639343,-1.00750732,0.305176,0.000000,-0.122070
2132130583,0.00277710,0.00711060,-1.00662231,0.305176,0.000000,-0.183105
2137018625,0.00296021,0.00799561,-1.00524902,0.244141,0.061035,-0.244141
2141954041,0.00354004,0.00834656,-1.00549316,0.305176,0.061035,0.000000
2146982875,0.00468445,0.00816345,-1.00657654,0.305176,0.000000,-0.183105
2151967833,0.00534058,0.00836182,-1.00706482,0.366211,0.183105,-0.061035
2156981250,0.00537109,0.00923157,-1.00691223,0.366211,-0.061035,-0.244141
2161952041,0.00543213,0.01033020,-1.00634766,0.122070,0.122070,-0.122070
2167041916,0.00517273,0.01103210,-1.00572205,0.427246,0.122070,-0.183105
2171967166,0.00401306,0.01078796,-1.00584412,0.427246,0.061035,-0.183105
2176978000,0.00270081,0.01004028,-1.00634766,0.305176,0.061035,-0.183105
2181969666,0.00219727,0.00962830,-1.00633240,0.183105,0.122070,0.000000
2186978208,0.00216675,0.00955200,-1.00616455,0.366211,0.061035,-0.122070
2191948708,0.00199890,0.00944519,-1.00614929,0.488281,0.000000,0.000000
2196970250,0.00148010,0.00946045,-1.00607300,0.366211,0.122070,-0.061035
2201964291,0.00085449,0.00955200,-1.00610352,0.244141,0.061035,-0.061035
2206967375,0.00065613,0.00918579,-1.00640869,0.427246,0.000000,-0.061035
2211977291,0.00064087,0.00816345,-1.00692749,0.549316,0.000000,-0.061035
2216984083,0.00016785,0.00717163,-1.00723267,0.366211,-0.061035,-0.122070
2222012416,-0.00007629,0.00703430,-1.00663757,0.427246,-0.061035,-0.122070
2226981625,0.00070190,0.00765991,-1.00532532,0.427246,0.000000,-0.061035
2231956041,0.00178528,0.00819397,-1.00460815,0.427246,0.183105,-0.061035
2236969208,0.00244141,0.00816345,-1.00508118,0.366211,0.061035,-0.122070
2241978416,0.00302124,0.00810242,-1.00605774,0.244141,0.122070,-0.122070
2246979541,0.00341797,0.00842285,-1.00709534,0.366211,0.122070,-0.122070
2251973375,0.00349426,0.00854492,-1.00778198,0.427246,0.061035,-0.183105
2256986750,0.00326538,0.00802612,-1.00770569,0.488281,0.122070,-0.183105
2261970083,0.00297546,0.00765991,-1.00721741,0.366211,0.061035,-0.122070
2266974541,0.00314331,0.00791931,-1.00679016,0.366211,0.000000,-0.183105
2271978666,0.00375366,0.00814819,-1.00646973,0.183105,0.061035,-0.183105
2276997666,0.00408936,0.00798035,-1.00663757,0.549316,-0.061035,-0.183105
2281978583,0.00378418,0.00778198,-1.00729370,0.610352,0.061035,-0.122070
2286972333,0.00337219,0.00775146,-1.00738525,0.244141,0.000000,-0.183105
2292024166,0.00337219,0.00770569,-1.00677490,0.427246,0.122070,-0.122070
2296967833,0.00338745,0.00737000,-1.00640869,0.488281,0.122070,-0.122070
2301975375,0.00263977,0.00715637,-1.00643921,0.366211,0.061035,0.000000
2306997958,0.00146484,0.00741577,-1.00643921,0.488281,0.000000,-0.122070
2311985375,0.00073242,0.00769043,-1.00624084,0.366211,0.061035,-0.061035
2316989958,0.00044250,0.00772095,-1.00569153,0.366211,0.000000,-0.122070
2321993083,0.00019836,0.00755310,-1.00537109,0.366211,0.000000,-0.061035
2326982208,0.00013733,0.00721741,-1.00624084,0.366211,0.061035,-0.122070
2331970833,0.00030518,0.00720215,-1.00787354,0.305176,0.061035,-0.061035
2336999541,0.00030518,0.00775146,-1.00903320,0.427246,0.122070,-0.122070
2341974458,0.00025940,0.00852966,-1.00871277,0.427246,0.061035,-0.244141
2346979000,0.00061035,0.00903320,-1.00717163,0.305176,0.122070,-0.183105
2352035458,0.00106812,0.00914001,-1.00590515,0.305176,0.000000,-0.122070
2356951291,0.00131226,0.00956726,-1.00566101,0.305176,0.000000,0.000000
2361978125,0.00141907,0.01023865,-1.00622559,0.244141,0.061035,-0.061035
2366974291,0.00132751,0.01011658,-1.00718689,0.305176,0.183105,-0.122070
2371990291,0.00108337,0.00921631,-1.00758362,0.366211,0.122070,-0.122070
2377010375,0.00082397,0.00834656,-1.00686646,0.366211,0.000000,-0.061035
2382016375,0.00036621,0.00755310,-1.00576782,0.488281,0.000000,0.000000
2387027541,-0.00013733,0.00662231,-1.00529480,0.427246,0.000000,-0.122070
2392012041,0.00015259,0.00593567,-1.00555420,0.427246,0.061035,-0.061035
2397009750,0.00114441,0.00588989,-1.00605774,0.366211,0.061035,-0.061035
2401993541,0.00148010,0.00608826,-1.00657654,0.244141,0.061035,-0.183105
2406996125,0.00088501,0.00604248,-1.00683594,0.427246,0.061035,-0.122070
2411990333,0.00053406,0.00604248,-1.00650024,0.366211,0.122070,0.000000
2417014083,0.00108337,0.00611877,-1.00559998,0.549316,0.061035,0.122070
2422004166,0.00213623,0.00617981,-1.00498962,0.549316,0.061035,-0.061035
2427009291,0.00309753,0.00639343,-1.00558472,0.488281,0.000000,-0.061035
2431994250,0.00366211,0.00648499,-1.00643921,0.244141,0.000000,-0.061035
2437003041,0.00387573,0.00651550,-1.00671387,0.366211,0.000000,-0.122070
2441992791,0.00378418,0.00697327,-1.00733948,0.183105,0.000000,-0.061035
2447017208,0.00352478,0.00793457,-1.00848389,0.183105,0.122070,-0.122070
2452004208,0.00337219,0.00894165,-1.00900269,0.305176,0.122070,-0.061035
2457014791,0.00346375,0.00964355,-1.00831604,0.366211,0.061035,-0.061035
2461981208,0.00378418,0.01007080,-1.00671387,0.305176,0.000000,-0.122070
2467025458,0.00415039,0.01023865,-1.00456238,0.366211,0.122070,-0.183105
2471983625,0.00427246,0.01008606,-1.00282288,0.244141,0.061035,-0.061035
2476997416,0.00434875,0.00979614,-1.00320435,0.366211,0.122070,0.000000
2481979208,0.00436401,0.00952148,-1.00561523,0.244141,0.061035,0.000000
2487021291,0.00354004,0.00904846,-1.00762939,0.244141,0.122070,-0.122070
2491999166,0.00196838,0.00839233,-1.00767517,0.366211,0.061035,-0.244141
2497028500,0.00099182,0.00761414,-1.00639343,0.610352,0.122070,0.000000
2501994958,0.00100708,0.00679016,-1.00549316,0.488281,0.122070,-0.122070
2507001750,0.00115967,0.00645447,-1.00581360,0.305176,0.061035,-0.061035
2511988291,0.00106812,0.00689697,-1.00660706,0.427246,0.183105,-0.061035
2517055375,0.00114441,0.00756836,-1.00708008,0.305176,-0.061035,-0.183105
2521987750,0.00157166,0.00764465,-1.00726318,0.488281,0.183105,-0.122070
2527040791,0.00172424,0.00720215,-1.00691223,0.610352,0.000000,0.000000
2532054625,0.00103760,0.00704956,-1.00610352,0.488281,0.122070,-0.244141
2537010958,0.00024414,0.00733948,-1.00599670,0.305176,0.061035,-0.183105
2541990041,0.00009155,0.00747681,-1.00654602,0.427246,-0.061035,-0.061035
2546999083,0.00001526,0.00738525,-1.00695801,0.488281,0.122070,-0.061035
2552032875,-0.00019836,0.00743103,-1.00730896,0.183105,-0.061035,-0.061035
2557044000,-0.00033569,0.00770569,-1.00770569,0.366211,0.122070,0.000000
2562006333,-0.00032043,0.00808716,-1.00749207,0.244141,0.061035,0.000000
2566995500,0.00007629,0.00852966,-1.00657654,0.244141,0.061035,0.000000
2572001125,0.00079346,0.00868225,-1.00602722,0.549316,-0.061035,-0.061035
2577005875,0.00146484,0.00825500,-1.00614929,0.366211,0.061035,0.061035
2581995166,0.00207520,0.00758362,-1.00651550,0.305176,0.122070,-0.122070
2587036000,0.00274658,0.00721741,-1.00680542,0.427246,0.061035,-0.061035
2592021125,0.00326538,0.00706482,-1.00694275,0.366211,0.061035,-0.122070
2597049166,0.00323486,0.00672913,-1.00679016,0.366211,0.122070,-0.061035
2602013416,0.00276184,0.00610352,-1.00645447,0.305176,0.000000,-0.061035
2607015125,0.00250244,0.00563049,-1.00628662,0.427246,0.000000,-0.122070
2611992958,0.00280762,0.00564575,-1.00605774,0.427246,0.061035,-0.061035
2617034000,0.00317383,0.00605774,-1.00581360,0.244141,0.183105,-0.061035
2622034000,0.00328064,0.00657654,-1.00622559,0.305176,-0.061035,-0.061035
2627052708,0.00350952,0.00686646,-1.00706482,0.244141,0.061035,-0.061035
2632016375,0.00369263,0.00688171,-1.00717163,0.366211,0.061035,-0.061035
2637065750,0.00357056,0.00683594,-1.00674438,0.305176,0.061035,-0.183105
2642024166,0.00328064,0.00683594,-1.00671387,0.305176,0.000000,-0.061035
2647037208,0.00268555,0.00718689,-1.00721741,0.488281,0.122070,-0.122070
2652011875,0.00193787,0.00816345,-1.00732422,0.366211,0.061035,-0.061035
2657024166,0.00138855,0.00962830,-1.00659180,0.244141,0.122070,-0.122070
2662023916,0.00094604,0.01072693,-1.00592041,0.366211,0.061035,-0.122070
2667025000,0.00056458,0.01080322,-1.00625610,0.244141,0.061035,-0.061035
2672048916,0.00044250,0.01019287,-1.00746155,0.305176,-0.061035,0.000000
2677029375,0.00062561,0.00971985,-1.00820923,0.427246,-0.061035,0.000000
2682014458,0.00077820,0.00956726,-1.00796509,0.305176,0.122070,-0.061035
2687050333,0.00077820,0.00953674,-1.00700378,0.427246,0.000000,-0.183105
2692015291,0.00073242,0.00958252,-1.00593567,0.366211,0.061035,0.000000
2697029791,0.00047302,0.00918579,-1.00532532,0.305176,-0.061035,-0.061035
2702032625,0.00035095,0.00811768,-1.00587463,0.488281,-0.061035,-0.122070
2707043083,0.00057983,0.00695801,-1.00679016,0.549316,0.000000,0.000000
2712007125,0.00076294,0.00608826,-1.00605774,0.488281,0.122070,-0.122070
2717047708,0.00094604,0.00552368,-1.00393677,0.305176,0.183105,-0.122070
2722043333,0.00160217,0.00526428,-1.00228882,0.122070,0.000000,-0.122070
2727043625,0.00280762,0.00509644,-1.00343323,0.183105,0.305176,-0.122070
2732031791,0.00399780,0.00494385,-1.00891113,0.244141,0.061035,-0.244141
2737030166,0.00476074,0.00503540,-1.01432800,0.305176,0.183105,-0.183105
2742002666,0.00506592,0.00527954,-1.01336670,0.244141,0.122070,-0.061035
2747038291,0.00514221,0.00538635,-1.00708008,0.427246,0.061035,-0.183105
2752047041,0.00506592,0.00563049,-1.00155640,0.305176,0.000000,-0.122070
2757045416,0.00454712,0.00613403,-1.00059509,0.305176,0.000000,0.000000
2762042916,0.00357056,0.00669861,-1.00276184,0.244141,-0.061035,-0.061035
2767036875,0.00296021,0.00737000,-1.00529480,0.488281,0.061035,-0.122070
2772015208,0.00279236,0.00813293,-1.00709534,0.427246,0.122070,-0.061035
2777033750,0.00190735,0.00881958,-1.00747681,0.488281,0.061035,-0.061035
2782032416,0.00021362,0.00926208,-1.00666809,0.244141,0.000000,0.000000
2787074083,-0.00106812,0.00950623,-1.00614929,0.244141,0.061035,-0.061035
2792035041,-0.00114441,0.00987244,-1.00645447,0.305176,0.000000,-0.061035
2797058166,-0.00064087,0.01020813,-1.00672913,0.305176,0.061035,-0.183105
2802024250,-0.00048828,0.01025391,-1.00656128,0.183105,0.000000,-0.183105
2807039208,-0.00093079,0.01000977,-1.00636292,0.183105,0.061035,0.000000
2812035875,-0.00143433,0.00985718,-1.00639343,0.305176,0.122070,0.061035
2817043916,-0.00122070,0.01002502,-1.00642395,0.427246,-0.122070,0.000000
2822021583,-0.00062561,0.00981140,-1.00619507,0.305176,0.000000,-0.122070
2827040375,-0.00001526,0.00898743,-1.00608826,0.366211,0.122070,-0.244141
2832022750,0.00085449,0.00843811,-1.00621033,0.366211,0.061035,-0.122070
2837049625,0.00192261,0.00813293,-1.00602722,0.244141,0.122070,-0.061035
2842081333,0.00273132,0.00769043,-1.00526428,0.305176,0.061035,-0.122070
2847042583,0.00354004,0.00726318,-1.00479126,0.366211,0.183105,-0.061035
2852032166,0.00462341,0.00677490,-1.00514221,0.244141,0.122070,-0.061035
2857089833,0.00537109,0.00621033,-1.00575256,0.366211,-0.061035,-0.061035
2862044500,0.00527954,0.00592041,-1.00617981,0.305176,0.061035,-0.122070
2867096875,0.00476074,0.00550842,-1.00633240,0.244141,0.000000,-0.122070
2872019291,0.00473022,0.00477600,-1.00607300,0.366211,0.183105,-0.183105
2877018625,0.00502014,0.00434875,-1.00532532,0.305176,0.061035,-0.122070
2882033458,0.00466919,0.00463867,-1.00460815,0.427246,0.061035,-0.061035
2887086166,0.00358582,0.00553894,-1.00476074,0.488281,0.061035,0.000000
2892125666,0.00247192,0.00624084,-1.00588989,0.427246,0.000000,-0.061035
2897065791,0.00155640,0.00622559,-1.00695801,0.366211,0.122070,-0.122070
2902030833,0.00076294,0.00592041,-1.00698853,0.427246,-0.122070,-0.122070
2907052541,0.00032043,0.00596619,-1.00630188,0.305176,0.000000,-0.122070
2912043333,0.00024414,0.00657654,-1.00598145,0.427246,0.122070,0.000000
2917066208,0.00021362,0.00752258,-1.00648499,0.183105,0.122070,-0.061035
2922065916,0.00000000,0.00860596,-1.00743103,0.488281,0.061035,-0.061035
2927056500,-0.00009155,0.00965881,-1.00799561,0.244141,0.183105,-0.061035
2932065291,-0.00004578,0.01013184,-1.00764465,0.244141,0.122070,-0.061035
2937052000,-0.00012207,0.01014709,-1.00694275,0.366211,0.000000,0.000000
2942046625,-0.00032043,0.01019287,-1.00656128,0.549316,0.000000,-0.122070
2947033541,-0.00010681,0.01040649,-1.00625610,0.488281,0.000000,0.000000
2952069458,0.00077820,0.01043701,-1.00604248,0.244141,0.122070,-0.122070
2957087000,0.00173950,0.01014709,-1.00616455,0.244141,0.061035,0.000000
2962070166,0.00207520,0.01014709,-1.00654602,0.366211,0.061035,-0.061035
2967065250,0.00173950,0.01039124,-1.00698853,0.305176,0.000000,0.000000
2972037333,0.00126648,0.00999451,-1.00680542,0.549316,0.122070,0.000000
2977058083,0.00157166,0.00894165,-1.00582886,0.488281,0.122070,-0.122070
2982035750,0.00265503,0.00825500,-1.00505066,0.305176,0.122070,-0.061035
2987066875,0.00334167,0.00817871,-1.00532532,0.366211,0.061035,-0.122070
2992049791,0.00306702,0.00793457,-1.00648499,0.366211,-0.061035,-0.122070
2997094666,0.00270081,0.00741577,-1.00735474,0.122070,-0.061035,-0.061035
3002067583,0.00296021,0.00692749,-1.00691223,0.244141,0.061035,-0.061035
3007055541,0.00337219,0.00651550,-1.00582886,0.366211,-0.061035,-0.122070
3012054916,0.00343323,0.00608826,-1.00523376,0.305176,0.000000,-0.061035
3017078333,0.00308228,0.00584412,-1.00527954,0.305176,0.061035,-0.122070
3022063625,0.00259399,0.00595093,-1.00573730,0.366211,0.122070,-0.061035
3027095750,0.00239563,0.00601196,-1.00653076,0.366211,0.183105,-0.061035
3032052000,0.00254822,0.00572205,-1.00692749,0.244141,-0.061035,-0.122070
3037066125,0.00267029,0.00567627,-1.00665283,0.305176,0.122070,0.000000
3042047958,0.00265503,0.00630188,-1.00627136,0.305176,-0.061035,-0.122070
3047067250,0.00292969,0.00706482,-1.00637817,0.427246,0.061035,0.061035
3052069208,0.00311279,0.00746155,-1.00686646,0.305176,0.183105,0.000000
3057096250,0.00251770,0.00764465,-1.00700378,0.244141,0.061035,-0.061035
3062057791,0.00152588,0.00772095,-1.00665283,0.366211,0.061035,-0.122070
3067163875,0.00093079,0.00775146,-1.00634766,0.244141,0.000000,-0.183105
3072047541,0.00054932,0.00799561,-1.00622559,0.427246,0.122070,-0.122070
3077070125,0.00033569,0.00810242,-1.00622559,0.305176,0.000000,-0.183105
3082058250,0.00054932,0.00767517,-1.00645447,0.305176,0.122070,-0.183105
3087067416,0.00085449,0.00720215,-1.00634766,0.122070,0.061035,-0.061035
3092050416,0.00080872,0.00730896,-1.00566101,0.244141,0.122070,0.000000
3097072041,0.00073242,0.00770569,-1.00497437,0.244141,0.122070,0.000000
3102064750,0.00077820,0.00791931,-1.00489807,0.244141,0.000000,-0.122070
3107068833,0.00083923,0.00796509,-1.00561523,0.366211,-0.122070,0.000000
3112047875,0.00140381,0.00788879,-1.00666809,0.305176,0.122070,-0.061035
3117099166,0.00238037,0.00781250,-1.00706482,0.244141,-0.061035,-0.122070
3122082833,0.00299072,0.00798035,-1.00656128,0.305176,0.000000,-0.183105
3127108666,0.00311279,0.00843811,-1.00595093,0.183105,0.061035,0.000000
3132049166,0.00320435,0.00878906,-1.00588989,0.366211,0.000000,-0.183105
3137071416,0.00334167,0.00881958,-1.00605774,0.244141,0.061035,-0.122070
3142065708,0.00323486,0.00856018,-1.00593567,0.366211,0.000000,-0.244141
3147083916,0.00299072,0.00802612,-1.00559998,0.427246,0.183105,-0.061035
3152142958,0.00282288,0.00744629,-1.00561523,0.305176,0.000000,-0.183105
3157091166,0.00251770,0.00703430,-1.00601196,0.244141,0.122070,-0.183105
3162069791,0.00192261,0.00682068,-1.00630188,0.366211,0.061035,-0.061035
3167094166,0.00125122,0.00677490,-1.00671387,0.305176,0.061035,-0.122070
3172069875,0.00105286,0.00660706,-1.00744629,0.305176,0.000000,-0.061035
3177072125,0.00129700,0.00617981,-1.00794983,0.305176,0.061035,-0.122070
3182056166,0.00125122,0.00579834,-1.00779724,0.244141,0.244141,-0.061035
3187102875,0.00109863,0.00546265,-1.00703430,0.305176,0.061035,-0.061035
3192097208,0.00187683,0.00543213,-1.00627136,0.427246,0.000000,-0.061035
3197083875,0.00296021,0.00621033,-1.00610352,0.366211,-0.061035,-0.061035
3202078291,0.00337219,0.00729370,-1.00628662,0.366211,0.000000,-0.183105
3207132708,0.00326538,0.00764465,-1.00640869,0.305176,0.061035,-0.061035
3212100250,0.00297546,0.00709534,-1.00642395,0.305176,0.061035,0.061035
3217063083,0.00259399,0.00682068,-1.00643921,0.305176,0.061035,-0.061035
3222042541,0.00213623,0.00730896,-1.00637817,0.366211,0.122070,-0.061035
3227062875,0.00202942,0.00781250,-1.00619507,0.366211,0.061035,-0.122070
3232069000,0.00236511,0.00796509,-1.00616455,0.244141,0.000000,-0.183105
3237094375,0.00283813,0.00814819,-1.00651550,0.305176,0.122070,-0.122070
3242058333,0.00318909,0.00848389,-1.00686646,0.427246,0.000000,-0.122070
3247078125,0.00320435,0.00859070,-1.00656128,0.366211,0.122070,-0.122070
3252082375,0.00321960,0.00849915,-1.00582886,0.305176,0.061035,-0.061035
3257118375,0.00334167,0.00851440,-1.00544739,0.366211,0.000000,-0.122070
3262072375,0.00276184,0.00828552,-1.00587463,0.427246,0.122070,-0.061035
3267108083,0.00157166,0.00775146,-1.00671387,0.427246,0.122070,-0.183105
3272080166,0.00096130,0.00752258,-1.00695801,0.244141,0.061035,-0.183105
3277084666,0.00106812,0.00765991,-1.00639343,0.427246,0.061035,-0.122070
3282063125,0.00129700,0.00762939,-1.00569153,0.122070,0.061035,-0.183105
3287100875,0.00163269,0.00741577,-1.00546265,0.305176,0.000000,-0.061035
3292099666,0.00212097,0.00741577,-1.00592041,0.244141,0.061035,0.061035
3297079541,0.00228882,0.00765991,-1.00679016,0.305176,0.061035,-0.061035
3302070333,0.00198364,0.00773621,-1.00756836,0.366211,0.000000,-0.061035
3307110458,0.00193787,0.00750732,-1.00765991,0.244141,0.000000,-0.122070
3312074666,0.00289917,0.00715637,-1.00689697,0.305176,0.000000,-0.244141
3317147250,0.00422668,0.00698853,-1.00610352,0.366211,0.122070,-0.122070
3322107541,0.00456238,0.00724792,-1.00614929,0.427246,0.000000,-0.122070
3327113833,0.00386047,0.00767517,-1.00694275,0.305176,0.061035,-0.122070
3332079958,0.00344849,0.00785828,-1.00726318,0.549316,0.122070,-0.061035
3337080750,0.00337219,0.00770569,-1.00660706,0.427246,0.122070,0.122070
3342069916,0.00277710,0.00741577,-1.00590515,0.427246,0.061035,-0.122070
3347082541,0.00198364,0.00727844,-1.00573730,0.183105,-0.061035,-0.122070
3352083500,0.00167847,0.00741577,-1.00584412,0.366211,0.061035,0.061035
3357087833,0.00149536,0.00764465,-1.00602722,0.244141,0.061035,0.000000
3362114250,0.00080872,0.00778198,-1.00642395,0.366211,0.061035,-0.061035
3367090291,0.00015259,0.00819397,-1.00680542,0.244141,0.122070,-0.122070
3372089041,0.00041199,0.00868225,-1.00692749,0.427246,0.000000,-0.061035
3377097291,0.00149536,0.00836182,-1.00686646,0.488281,0.122070,0.000000
3382078541,0.00207520,0.00747681,-1.00665283,0.549316,-0.061035,-0.122070
3387132250,0.00161743,0.00738525,-1.00604248,0.732422,0.122070,0.000000
3392100666,0.00132751,0.00843811,-1.00473022,1.220703,0.183105,-0.061035
3397087875,0.00181580,0.00912476,-1.00299072,1.525879,0.061035,-0.183105
3402111500,0.00248718,0.00885010,-1.00251770,1.586914,0.122070,-0.061035
3407103333,0.00306702,0.00878906,-1.00148010,0.976562,0.122070,-0.122070
3412094291,0.00347900,0.00923157,-0.99809265,0.244141,0.122070,-0.122070
3417152458,0.00393677,0.00926208,-0.99772644,-0.366211,0.000000,-0.183105
3422121541,0.00454712,0.00833130,-1.00558472,-0.305176,0.000000,-0.183105
3427138583,0.00477600,0.00727844,-1.01872253,0.061035,0.000000,-0.061035
3432100041,0.00439453,0.00755310,-1.02845764,0.061035,0.122070,0.000000
3437091833,0.00358582,0.00869751,-1.02540588,0.122070,0.000000,-0.122070
3442097458,0.00238037,0.00917053,-1.00956726,0.122070,0.122070,-0.061035
3447097458,0.00106812,0.00825500,-0.99462891,0.305176,0.061035,-0.122070
3452122750,0.00015259,0.00653076,-0.99264526,0.366211,0.061035,0.061035
3457133250,-0.00012207,0.00552368,-1.00012207,0.427246,0.061035,0.061035
3462146250,-0.00007629,0.00575256,-1.00732422,0.488281,0.122070,-0.061035
3467174875,-0.00013733,0.00619507,-1.01062012,0.366211,-0.061035,0.000000
3472088416,-0.00065613,0.00611877,-1.00978088,0.122070,0.000000,-0.061035
3477085958,-0.00096130,0.00592041,-1.00604248,0.183105,-0.061035,-0.122070
3482267541,-0.00045776,0.00599670,-1.00315857,0.305176,-0.061035,0.000000
3487129833,0.00057983,0.00624084,-1.00341797,0.305176,0.061035,-0.122070
3492124041,0.00161743,0.00637817,-1.00549316,0.427246,0.183105,-0.061035
3497132750,0.00230408,0.00646973,-1.00698853,0.305176,0.122070,-0.122070
3502088375,0.00260925,0.00682068,-1.00709534,0.366211,0.000000,-0.122070
3507121916,0.00280762,0.00735474,-1.00628662,0.366211,0.000000,-0.061035
3512084833,0.00294495,0.00778198,-1.00503540,0.427246,0.000000,-0.061035
3517144000,0.00309753,0.00804138,-1.00415039,0.549316,0.061035,-0.061035
3522114291,0.00334167,0.00842285,-1.00439453,0.549316,0.183105,-0.122070
3527141500,0.00363159,0.00889587,-1.00550842,0.488281,0.061035,-0.183105
3532111166,0.00379944,0.00942993,-1.00659180,0.427246,0.000000,-0.122070
3537122000,0.00347900,0.00999451,-1.00685120,0.671387,0.244141,-0.122070
3542106500,0.00292969,0.01008606,-1.00625610,0.549316,0.061035,-0.122070
3547105208,0.00300598,0.00947571,-1.00607300,0.366211,0.122070,-0.061035
3552123666,0.00334167,0.00883484,-1.00665283,0.549316,0.061035,-0.122070
3557157208,0.00306702,0.00834656,-1.00677490,0.427246,0.183105,-0.183105
3562101583,0.00248718,0.00805664,-1.00621033,0.549316,0.183105,-0.061035
3567142666,0.00239563,0.00793457,-1.00581360,0.366211,0.000000,-0.061035
3572105791,0.00244141,0.00770569,-1.00599670,0.488281,0.061035,0.000000
3577105875,0.00175476,0.00740051,-1.00677490,0.488281,0.061035,-0.122070
3582097750,0.00050354,0.00720215,-1.00775146,0.305176,0.061035,-0.244141
3587134541,-0.00033569,0.00700378,-1.00805664,0.366211,0.000000,-0.061035
3592120958,-0.00045776,0.00680542,-1.00733948,0.183105,-0.061035,-0.183105
3597103875,0.00001526,0.00653076,-1.00622559,0.305176,0.000000,-0.183105
3602116000,0.00090027,0.00601196,-1.00553894,0.366211,0.061035,0.000000
3607118250,0.00161743,0.00555420,-1.00576782,0.366211,0.122070,-0.183105
3612115458,0.00221252,0.00566101,-1.00672913,0.305176,0.061035,-0.122070
3617187708,0.00280762,0.00639343,-1.00724792,0.427246,0.183105,-0.061035
3622120333,0.00312805,0.00714111,-1.00724792,0.427246,0.122070,-0.305176
3627131625,0.00318909,0.00723267,-1.00694275,0.427246,0.000000,-0.061035
3632098291,0.00325012,0.00672913,-1.00611877,0.366211,0.244141,-0.183105
3637122416,0.00314331,0.00627136,-1.00575256,0.366211,0.000000,-0.122070
3642129833,0.00308228,0.00634766,-1.00627136,0.305176,0.122070,-0.061035
3647108666,0.00340271,0.00669861,-1.00657654,0.427246,-0.061035,-0.122070
3652114500,0.00378418,0.00663757,-1.00630188,0.366211,0.183105,-0.122070
3657150083,0.00360107,0.00613403,-1.00611877,0.305176,-0.061035,-0.183105
3662108166,0.00288391,0.00598145,-1.00611877,0.366211,0.183105,-0.061035
3667119083,0.00215149,0.00639343,-1.00587463,0.366211,0.061035,-0.061035
3672121583,0.00172424,0.00663757,-1.00566101,0.427246,0.122070,0.000000
3677121583,0.00122070,0.00657654,-1.00592041,0.366211,0.122070,-0.183105
3682126458,0.00038147,0.00659180,-1.00653076,0.366211,0.122070,-0.061035
3687168916,-0.00035095,0.00662231,-1.00689697,0.366211,0.061035,-0.244141
3692139333,-0.00059509,0.00674438,-1.00680542,0.305176,-0.061035,-0.122070
3697126750,-0.00045776,0.00700378,-1.00646973,0.183105,-0.061035,-0.183105
3702137125,-0.00035095,0.00733948,-1.00614929,0.427246,0.000000,-0.122070
3707132416,-0.00035095,0.00775146,-1.00614929,0.305176,0.000000,-0.061035
3712105083,-0.00003052,0.00834656,-1.00651550,0.427246,0.061035,-0.061035
3717145250,0.00061035,0.00898743,-1.00669861,0.244141,0.122070,-0.122070
3722193083,0.00103760,0.00970459,-1.00634766,0.244141,0.000000,-0.061035
3727151250,0.00120544,0.01040649,-1.00592041,0.366211,0.122070,-0.183105
3732130125,0.00141907,0.01051331,-1.00598145,0.488281,0.061035,-0.061035
3737136666,0.00177002,0.01000977,-1.00659180,0.305176,0.000000,0.000000
3742112750,0.00218201,0.00975037,-1.00715637,0.305176,0.000000,0.061035
3747135166,0.00260925,0.01011658,-1.00688171,0.427246,0.061035,-0.122070
3752131291,0.00283813,0.01055908,-1.00581360,0.366211,0.000000,-0.183105
3757174625,0.00305176,0.01033020,-1.00511169,0.488281,0.000000,-0.183105
3762118291,0.00354004,0.00929260,-1.00579834,0.366211,0.061035,-0.061035
3767123458,0.00381470,0.00810242,-1.00708008,0.244141,0.061035,-0.122070
3772133500,0.00355530,0.00749207,-1.00730896,0.183105,-0.061035,-0.061035
3777135583,0.00308228,0.00727844,-1.00679016,0.305176,0.122070,-0.061035
3782138708,0.00270081,0.00668335,-1.00668335,0.244141,0.122070,-0.061035
3787133125,0.00253296,0.00558472,-1.00682068,0.305176,0.061035,-0.183105
3792156125,0.00271606,0.00460815,-1.00624084,0.183105,0.122070,-0.122070
3797153166,0.00308228,0.00424194,-1.00546265,0.366211,0.122070,-0.061035
3802126875,0.00312805,0.00428772,-1.00547791,0.244141,0.000000,-0.122070
3807147958,0.00309753,0.00445557,-1.00605774,0.122070,0.183105,0.000000
3812135791,0.00357056,0.00486755,-1.00648499,0.427246,0.061035,-0.122070
3817204791,0.00387573,0.00553894,-1.00671387,0.366211,0.061035,-0.061035
3822145375,0.00328064,0.00610352,-1.00685120,0.305176,0.122070,-0.183105
3827206083,0.00251770,0.00637817,-1.00679016,0.610352,0.061035,-0.122070
3832127666,0.00242615,0.00646973,-1.00653076,0.183105,0.122070,0.000000
3837153625,0.00289917,0.00689697,-1.00633240,0.366211,0.061035,-0.122070
3842125791,0.00329590,0.00755310,-1.00619507,0.305176,0.000000,-0.183105
3847137208,0.00303650,0.00790405,-1.00627136,0.488281,0.122070,-0.061035
3852111541,0.00238037,0.00804138,-1.00679016,0.366211,0.122070,-0.183105
3857136708,0.00204468,0.00859070,-1.00694275,0.305176,0.061035,-0.122070
3862126000,0.00154114,0.00939941,-1.00642395,0.488281,0.000000,-0.122070
3867229958,0.00048828,0.00984192,-1.00619507,0.488281,0.061035,-0.061035
3872142916,-0.00003052,0.00985718,-1.00654602,0.366211,0.183105,-0.183105
3877147833,0.00042725,0.00970459,-1.00688171,0.366211,0.000000,-0.061035
3882134916,0.00074768,0.00958252,-1.00694275,0.366211,0.061035,-0.122070
3887187500,0.00030518,0.00979614,-1.00686646,0.427246,0.061035,0.000000
3892160625,-0.00032043,0.01002502,-1.00660706,0.488281,0.061035,-0.122070
3897146750,-0.00057983,0.00965881,-1.00588989,0.427246,0.000000,-0.061035
3902129833,-0.00047302,0.00881958,-1.00515747,0.305176,-0.061035,-0.061035
3907156125,0.00000000,0.00833130,-1.00523376,0.427246,0.061035,0.000000
3912121833,0.00091553,0.00843811,-1.00611877,0.427246,0.183105,-0.061035
3917157375,0.00157166,0.00852966,-1.00711060,0.305176,0.000000,-0.061035
3922157583,0.00125122,0.00851440,-1.00765991,0.366211,0.061035,0.061035
3927175875,0.00077820,0.00840759,-1.00726318,0.244141,0.061035,-0.122070
3932207583,0.00140381,0.00805664,-1.00619507,0.244141,0.061035,0.061035
3937161166,0.00276184,0.00756836,-1.00549316,0.122070,0.000000,-0.122070
3942147625,0.00373840,0.00720215,-1.00544739,0.244141,0.061035,-0.122070
3947147458,0.00393677,0.00683594,-1.00582886,0.183105,0.000000,-0.122070
3952168625,0.00363159,0.00643921,-1.00650024,0.305176,0.061035,-0.122070
3957189250,0.00349426,0.00625610,-1.00708008,0.366211,0.000000,-0.122070
3962139041,0.00381470,0.00613403,-1.00744629,0.366211,0.122070,-0.122070
3967162416,0.00418091,0.00581360,-1.00701904,0.366211,0.122070,-0.183105
3972148666,0.00399780,0.00546265,-1.00578308,0.427246,0.000000,-0.122070
3977155125,0.00354004,0.00535583,-1.00527954,0.305176,0.061035,-0.244141
3982141208,0.00325012,0.00537109,-1.00599670,0.427246,0.122070,-0.061035
3987186000,0.00285339,0.00556946,-1.00682068,0.366211,0.061035,-0.183105
3992158000,0.00244141,0.00614929,-1.00740051,0.244141,0.061035,-0.122070
3997170916,0.00244141,0.00662231,-1.00767517,0.366211,0.061035,-0.061035
4002151916,0.00215149,0.00640869,-1.00735474,0.244141,0.000000,-0.244141
4007155458,0.00108337,0.00599670,-1.00659180,0.366211,0.000000,-0.122070
4012144833,0.00007629,0.00601196,-1.00637817,0.244141,0.000000,-0.122070
4017179958,-0.00019836,0.00630188,-1.00656128,0.183105,0.122070,-0.061035
4022171250,0.00001526,0.00662231,-1.00624084,0.244141,0.000000,-0.061035
4027194958,0.00039673,0.00714111,-1.00593567,0.244141,0.000000,-0.122070
4032154500,0.00080872,0.00785828,-1.00614929,0.305176,0.000000,-0.183105
4037262333,0.00126648,0.00814819,-1.00671387,0.427246,0.061035,0.000000
4042163708,0.00186157,0.00796509,-1.00724792,0.366211,0.183105,-0.061035
4047173791,0.00236511,0.00784302,-1.00692749,0.305176,0.000000,-0.122070
4052201625,0.00250244,0.00788879,-1.00627136,0.427246,0.061035,-0.061035
4057186833,0.00236511,0.00794983,-1.00633240,0.244141,-0.122070,-0.122070
4062150416,0.00231934,0.00808716,-1.00663757,0.366211,0.000000,-0.061035
4067169791,0.00233459,0.00784302,-1.00653076,0.305176,0.000000,-0.244141
4072154208,0.00209045,0.00709534,-1.00599670,0.366211,0.061035,-0.183105
4077170833,0.00155640,0.00662231,-1.00506592,0.366211,0.000000,-0.183105
4082152583,0.00122070,0.00666809,-1.00492859,0.549316,0.122070,0.000000
4087200250,0.00125122,0.00685120,-1.00619507,0.427246,0.061035,-0.183105
4092158916,0.00111389,0.00708008,-1.00683594,0.488281,0.000000,-0.122070
4097185250,0.00044250,0.00729370,-1.00605774,0.305176,0.122070,0.000000
4102177791,-0.00027466,0.00720215,-1.00593567,0.366211,0.000000,-0.122070
4107171583,-0.00032043,0.00712585,-1.00703430,0.427246,0.122070,0.000000
4112165333,0.00009155,0.00767517,-1.00758362,0.305176,0.061035,0.000000
4117159375,0.00012207,0.00848389,-1.00686646,0.427246,0.183105,0.000000
4122182250,-0.00024414,0.00888062,-1.00611877,0.244141,0.000000,-0.061035
4127190708,-0.00047302,0.00888062,-1.00622559,0.366211,0.061035,0.061035
4132168000,-0.00018311,0.00897217,-1.00659180,0.244141,0.000000,-0.061035
4137163041,0.00048828,0.00939941,-1.00685120,0.244141,-0.061035,-0.061035
4142175916,0.00117493,0.00961304,-1.00741577,0.427246,0.183105,0.000000
4147163041,0.00126648,0.00933838,-1.00776672,0.427246,0.061035,0.061035
4152199791,0.00108337,0.00910950,-1.00706482,0.427246,0.122070,0.061035
4157196083,0.00141907,0.00906372,-1.00559998,0.244141,0.061035,0.061035
4162177916,0.00227356,0.00880432,-1.00418091,0.305176,0.000000,-0.061035
4167212333,0.00294495,0.00869751,-1.00398254,0.488281,-0.061035,-0.122070
4172175333,0.00311279,0.00889587,-1.00585938,0.366211,0.061035,0.000000
4177171458,0.00325012,0.00877380,-1.00807190,0.427246,0.061035,-0.061035
4182162541,0.00360107,0.00801086,-1.00775146,0.427246,0.122070,0.000000
4187202458,0.00408936,0.00694275,-1.00616455,0.427246,0.122070,0.122070
4192183458,0.00447083,0.00636292,-1.00592041,0.366211,0.061035,-0.061035
4197205666,0.00453186,0.00639343,-1.00633240,0.305176,0.061035,-0.183105
4202177625,0.00430298,0.00617981,-1.00660706,0.488281,0.061035,-0.122070
4207178125,0.00415039,0.00544739,-1.00698853,0.610352,0.000000,-0.061035
4212177875,0.00447083,0.00460815,-1.00727844,0.244141,-0.061035,-0.122070
4217171166,0.00456238,0.00396729,-1.00689697,0.427246,0.183105,-0.183105
4222171791,0.00375366,0.00344849,-1.00598145,0.366211,-0.061035,-0.061035
4227220125,0.00251770,0.00282288,-1.00537109,0.244141,0.061035,0.000000
4232181916,0.00184631,0.00248718,-1.00555420,0.244141,0.000000,-0.183105
4237175791,0.00201416,0.00268555,-1.00663757,0.366211,0.183105,-0.183105
4242198666,0.00256348,0.00314331,-1.00782776,0.305176,0.061035,-0.122070
4247215541,0.00282288,0.00366211,-1.00738525,0.427246,0.122070,-0.183105
4252202208,0.00267029,0.00416565,-1.00611877,0.366211,0.000000,-0.122070
4257217041,0.00259399,0.00448608,-1.00579834,0.427246,0.122070,-0.061035
4262166250,0.00245667,0.00488281,-1.00614929,0.427246,0.000000,-0.122070
4267185541,0.00204468,0.00552368,-1.00703430,0.305176,0.061035,-0.122070
4272181416,0.00184631,0.00640869,-1.00782776,0.427246,-0.061035,-0.061035
4277178083,0.00195312,0.00738525,-1.00686646,0.427246,0.061035,-0.122070
4282178041,0.00166321,0.00802612,-1.00485229,0.244141,0.061035,-0.244141
4287208041,0.00077820,0.00845337,-1.00437927,0.366211,0.061035,-0.122070
4292169000,0.00036621,0.00886536,-1.00559998,0.427246,0.061035,-0.061035
4297218291,0.00099182,0.00952148,-1.00682068,0.366211,0.061035,-0.061035
4302180958,0.00158691,0.01063538,-1.00735474,0.305176,0.122070,-0.244141
4307199958,0.00129700,0.01202393,-1.00718689,0.305176,0.000000,-0.183105
4312184833,0.00045776,0.01293945,-1.00654602,0.488281,-0.061035,-0.122070
4317198083,0.00004578,0.01298523,-1.00669861,0.549316,0.061035,-0.122070
4322174041,0.00019836,0.01258850,-1.00724792,0.427246,0.000000,-0.122070
4327192458,0.00022888,0.01220703,-1.00634766,0.244141,0.122070,-0.061035
4332182958,0.00000000,0.01181030,-1.00453186,0.183105,0.061035,-0.061035
4337197166,-0.00042725,0.01119995,-1.00445557,0.305176,0.122070,0.000000
4342178875,-0.00067139,0.01060486,-1.00729370,0.183105,0.122070,-0.061035
4347227291,-0.00019836,0.00994873,-1.00999451,0.244141,0.122070,-0.061035
4352256708,0.00068665,0.00907898,-1.00903320,0.305176,0.061035,-0.122070
4357202000,0.00119019,0.00831604,-1.00590515,0.244141,-0.061035,-0.061035
4362201083,0.00120544,0.00779724,-1.00434875,0.244141,0.122070,0.061035
4367290916,0.00134277,0.00718689,-1.00495911,0.183105,0.000000,0.061035
4372239000,0.00187683,0.00660706,-1.00585938,0.305176,0.122070,0.000000
4377212958,0.00241089,0.00646973,-1.00616455,0.183105,0.122070,-0.061035
4382204083,0.00271606,0.00631714,-1.00648499,0.366211,-0.061035,-0.061035
4387187166,0.00276184,0.00564575,-1.00698853,0.366211,0.000000,-0.061035
4392225541,0.00256348,0.00492859,-1.00709534,0.122070,0.000000,-0.122070
4397258500,0.00247192,0.00460815,-1.00682068,0.305176,0.122070,0.000000
4402321666,0.00268555,0.00463867,-1.00607300,0.305176,0.000000,-0.183105
4407213125,0.00296021,0.00515747,-1.00527954,0.366211,0.000000,-0.122070
4412194791,0.00306702,0.00573730,-1.00570679,0.366211,0.122070,-0.183105
4417211500,0.00309753,0.00578308,-1.00679016,0.366211,0.122070,0.061035
4422218833,0.00291443,0.00531006,-1.00701904,0.122070,0.000000,-0.061035
4427197708,0.00273132,0.00476074,-1.00651550,0.305176,0.061035,-0.122070
4432282208,0.00283813,0.00459290,-1.00592041,0.366211,0.061035,-0.122070
4437224958,0.00276184,0.00476074,-1.00559998,0.488281,0.061035,-0.061035
4442204833,0.00228882,0.00492859,-1.00576782,0.427246,0.183105,0.000000
4447322125,0.00190735,0.00537109,-1.00633240,0.366211,0.000000,-0.122070
4452250291,0.00183105,0.00624084,-1.00675964,0.244141,0.000000,-0.122070
4457209125,0.00167847,0.00704956,-1.00668335,0.305176,0.000000,-0.244141
4462234958,0.00138855,0.00740051,-1.00653076,0.183105,0.183105,0.000000
4467241375,0.00164795,0.00741577,-1.00633240,0.366211,0.061035,-0.061035
4472247875,0.00227356,0.00752258,-1.00573730,0.427246,0.244141,-0.061035
4477212250,0.00248718,0.00782776,-1.00524902,0.427246,0.061035,0.000000
4482217875,0.00218201,0.00816345,-1.00575256,0.366211,-0.061035,-0.061035
4487222041,0.00186157,0.00831604,-1.00698853,0.305176,0.061035,-0.061035
4492199000,0.00152588,0.00822449,-1.00744629,0.305176,0.000000,-0.061035
4497273583,0.00120544,0.00799561,-1.00634766,0.305176,0.061035,-0.061035
4502211416,0.00135803,0.00802612,-1.00500488,0.305176,0.061035,-0.061035
4507209000,0.00195312,0.00845337,-1.00509644,0.183105,0.061035,-0.061035
4512239791,0.00224304,0.00877380,-1.00656128,0.305176,0.000000,-0.061035
4517312708,0.00212097,0.00869751,-1.00798035,0.244141,0.000000,-0.061035
4522217666,0.00213623,0.00851440,-1.00827026,0.427246,0.061035,-0.122070
4527315916,0.00247192,0.00816345,-1.00746155,0.305176,0.183105,-0.122070
4532221916,0.00271606,0.00743103,-1.00613403,0.305176,0.061035,-0.183105
4537215875,0.00260925,0.00656128,-1.00534058,0.305176,0.000000,0.061035
4542260625,0.00256348,0.00602722,-1.00564575,0.366211,0.122070,-0.061035
4547264208,0.00306702,0.00617981,-1.00651550,0.244141,0.122070,0.000000
4552214291,0.00373840,0.00662231,-1.00700378,0.244141,0.061035,0.000000
4557213541,0.00398254,0.00666809,-1.00650024,0.000000,0.000000,-0.061035
4562268875,0.00344849,0.00624084,-1.00553894,0.305176,0.122070,-0.061035
4567243083,0.00227356,0.00585938,-1.00509644,0.366211,0.000000,-0.061035
4572207166,0.00141907,0.00567627,-1.00492859,0.427246,0.122070,0.061035
4577203791,0.00126648,0.00559998,-1.00471497,0.427246,0.061035,0.000000
4582378375,0.00134277,0.00582886,-1.00480652,0.183105,0.061035,-0.061035
4587257583,0.00146484,0.00616455,-1.00503540,0.244141,0.061035,0.000000
4592223541,0.00187683,0.00616455,-1.00550842,0.183105,0.061035,-0.122070
4597221208,0.00251770,0.00619507,-1.00651550,0.061035,0.061035,-0.061035
4602329541,0.00312805,0.00642395,-1.00773621,0.183105,0.000000,-0.122070
4607228500,0.00329590,0.00656128,-1.00836182,0.305176,0.122070,0.000000
4612306541,0.00283813,0.00682068,-1.00804138,0.427246,0.061035,-0.122070
4617237500,0.00230408,0.00733948,-1.00717163,0.061035,0.061035,-0.122070
4622208083,0.00209045,0.00773621,-1.00628662,0.183105,0.061035,0.061035
4627222333,0.00212097,0.00765991,-1.00564575,0.305176,-0.061035,-0.061035
4632229916,0.00254822,0.00764465,-1.00584412,0.122070,0.183105,0.000000
4637261250,0.00296021,0.00788879,-1.00706482,0.366211,0.000000,0.000000
4642273458,0.00265503,0.00769043,-1.00808716,0.305176,0.061035,-0.122070
4647265125,0.00218201,0.00711060,-1.00770569,0.366211,0.061035,-0.061035
4652203291,0.00233459,0.00685120,-1.00630188,0.244141,0.061035,-0.183105
4657222791,0.00267029,0.00691223,-1.00538635,0.305176,0.000000,-0.122070
4662218583,0.00262451,0.00697327,-1.00555420,0.427246,0.122070,-0.061035
4667302541,0.00244141,0.00723267,-1.00585938,0.427246,0.122070,-0.122070
4672245791,0.00224304,0.00749207,-1.00558472,0.305176,0.000000,-0.061035
4677249291,0.00202942,0.00727844,-1.00526428,0.488281,0.061035,-0.061035
4682265583,0.00192261,0.00695801,-1.00546265,0.488281,0.000000,-0.061035
4687259541,0.00193787,0.00709534,-1.00581360,0.488281,0.061035,-0.183105
4692225375,0.00216675,0.00740051,-1.00608826,0.305176,0.061035,-0.122070
4697343750,0.00267029,0.00769043,-1.00633240,0.305176,0.061035,-0.122070
4702289791,0.00317383,0.00833130,-1.00630188,0.183105,-0.061035,-0.122070
4707316041,0.00308228,0.00914001,-1.00640869,0.305176,0.000000,-0.183105
4712251000,0.00260925,0.00950623,-1.00682068,0.244141,0.061035,-0.122070
4717238750,0.00231934,0.00941467,-1.00675964,0.366211,0.061035,-0.061035
4722240291,0.00207520,0.00950623,-1.00622559,0.244141,0.122070,0.000000
4727230458,0.00169373,0.00991821,-1.00604248,0.183105,0.183105,-0.122070
4732261500,0.00161743,0.01016235,-1.00625610,0.244141,0.122070,-0.061035
4737227583,0.00183105,0.00997925,-1.00640869,0.244141,0.000000,-0.122070
4742226625,0.00199890,0.00953674,-1.00631714,0.366211,0.183105,-0.061035
4747258625,0.00207520,0.00894165,-1.00607300,0.366211,0.183105,-0.122070
4752277125,0.00186157,0.00866699,-1.00607300,0.183105,0.122070,-0.061035
4757271750,0.00131226,0.00907898,-1.00645447,0.366211,0.061035,0.061035
4762230500,0.00093079,0.00946045,-1.00646973,0.366211,0.122070,-0.061035
4767248000,0.00093079,0.00877380,-1.00592041,0.366211,0.061035,-0.061035
4772234375,0.00115967,0.00741577,-1.00572205,0.244141,0.183105,0.000000
4777240750,0.00128174,0.00665283,-1.00616455,0.244141,0.061035,-0.061035
4782217916,0.00131226,0.00663757,-1.00671387,0.244141,0.183105,-0.061035
4787282291,0.00135803,0.00680542,-1.00680542,0.244141,0.000000,-0.122070
4792258333,0.00172424,0.00680542,-1.00653076,0.122070,0.061035,0.000000
4797274916,0.00241089,0.00651550,-1.00653076,0.427246,0.061035,0.061035
4802223291,0.00247192,0.00607300,-1.00694275,0.366211,-0.122070,-0.183105
4807232750,0.00187683,0.00581360,-1.00700378,0.305176,0.061035,-0.061035
4812233458,0.00173950,0.00573730,-1.00646973,0.305176,0.000000,0.000000
4817230541,0.00244141,0.00558472,-1.00630188,0.244141,0.000000,-0.122070
4822270791,0.00309753,0.00543213,-1.00698853,0.244141,0.122070,-0.122070
4827254541,0.00326538,0.00543213,-1.00787354,0.366211,0.122070,-0.061035
4832379375,0.00306702,0.00556946,-1.00814819,0.366211,0.000000,-0.122070
4837247166,0.00270081,0.00550842,-1.00738525,0.305176,0.061035,-0.122070
4842233333,0.00256348,0.00524902,-1.00596619,0.366211,0.122070,-0.122070
4847241166,0.00251770,0.00520325,-1.00498962,0.305176,0.061035,-0.061035
4852259708,0.00227356,0.00546265,-1.00508118,0.305176,0.000000,-0.244141
4857246250,0.00199890,0.00564575,-1.00596619,0.488281,0.061035,0.061035
4862227208,0.00201416,0.00581360,-1.00671387,0.366211,0.061035,0.000000
4867260833,0.00215149,0.00613403,-1.00672913,0.366211,0.061035,-0.061035
4872251125,0.00199890,0.00663757,-1.00643921,0.183105,-0.061035,0.000000
4877268958,0.00160217,0.00729370,-1.00636292,0.183105,0.122070,-0.061035
4882266583,0.00135803,0.00791931,-1.00669861,0.366211,0.061035,0.000000
4887261458,0.00129700,0.00848389,-1.00706482,0.488281,0.061035,-0.122070
4892255666,0.00114441,0.00920105,-1.00694275,0.244141,0.122070,0.000000
4897244041,0.00080872,0.01007080,-1.00645447,0.488281,0.000000,-0.122070
4902258291,0.00076294,0.01083374,-1.00582886,0.427246,0.122070,-0.061035
4907239958,0.00141907,0.01104736,-1.00514221,0.366211,0.122070,-0.183105
4912267208,0.00218201,0.01055908,-1.00509644,0.305176,0.061035,0.000000
4917274708,0.00230408,0.01014709,-1.00602722,0.244141,-0.061035,-0.061035
4922258541,0.00213623,0.01029968,-1.00686646,0.427246,0.000000,-0.061035
4927263625,0.00219727,0.01055908,-1.00648499,0.366211,0.122070,0.000000
4932240958,0.00221252,0.01045227,-1.00549316,0.427246,0.000000,-0.061035
4937266458,0.00195312,0.01010132,-1.00521851,0.305176,0.000000,0.000000
4942242666,0.00175476,0.00962830,-1.00550842,0.366211,0.000000,-0.061035
4947251208,0.00198364,0.00898743,-1.00579834,0.427246,0.122070,-0.061035
4952253375,0.00222778,0.00811768,-1.00637817,0.305176,0.061035,0.000000
4957277250,0.00210571,0.00720215,-1.00704956,0.427246,0.061035,-0.061035
4962328291,0.00180054,0.00657654,-1.00688171,0.366211,0.000000,0.061035
4967249125,0.00161743,0.00631714,-1.00579834,0.305176,-0.061035,-0.122070
4972237166,0.00190735,0.00608826,-1.00514221,0.488281,0.000000,-0.122070
4977255666,0.00242615,0.00567627,-1.00569153,0.305176,0.122070,-0.244141
4982257375,0.00251770,0.00520325,-1.00642395,0.366211,0.061035,0.000000
4987247541,0.00221252,0.00515747,-1.00622559,0.305176,0.122070,-0.061035
4992250041,0.00195312,0.00576782,-1.00566101,0.427246,0.061035,-0.183105
4997283458,0.00199890,0.00668335,-1.00559998,0.610352,0.122070,-0.122070
5002257875,0.00265503,0.00724792,-1.00575256,0.488281,0.244141,-0.122070
5007267333,0.00358582,0.00708008,-1.00549316,0.488281,0.244141,-0.061035
5012237416,0.00398254,0.00663757,-1.00512695,0.488281,0.183105,-0.122070
5017282500,0.00373840,0.00659180,-1.00572205,0.366211,0.183105,-0.061035
5022270583,0.00338745,0.00689697,-1.00721741,0.366211,0.061035,-0.244141
5027295041,0.00306702,0.00764465,-1.00798035,0.427246,0.000000,-0.244141
5032257708,0.00254822,0.00856018,-1.00779724,0.488281,0.061035,-0.061035
5037271791,0.00205994,0.00871277,-1.00785828,0.427246,0.061035,-0.061035
5042281333,0.00198364,0.00808716,-1.00811768,0.366211,0.000000,-0.061035
5047259958,0.00193787,0.00746155,-1.00799561,0.549316,0.122070,-0.244141
5052281291,0.00144958,0.00732422,-1.00735474,0.488281,0.061035,-0.122070
5057319208,0.00094604,0.00767517,-1.00636292,0.427246,0.122070,0.000000
5062259125,0.00099182,0.00813293,-1.00561523,0.427246,0.122070,-0.061035
5067257958,0.00157166,0.00820923,-1.00558472,0.549316,0.183105,-0.183105
5072250500,0.00221252,0.00785828,-1.00604248,0.427246,0.061035,0.000000
5077254916,0.00267029,0.00744629,-1.00675964,0.427246,0.000000,0.000000
5082249166,0.00308228,0.00740051,-1.00704956,0.488281,0.122070,-0.061035
5087306333,0.00338745,0.00781250,-1.00669861,0.305176,0.183105,-0.183105
5092265958,0.00338745,0.00834656,-1.00630188,0.366211,0.000000,-0.061035
5097275333,0.00337219,0.00839233,-1.00601196,0.366211,-0.061035,-0.183105
5102277500,0.00373840,0.00793457,-1.00558472,0.305176,0.061035,-0.122070
5107284958,0.00386047,0.00737000,-1.00546265,0.427246,0.183105,-0.122070
5112245666,0.00328064,0.00685120,-1.00593567,0.549316,0.122070,-0.061035
5117335500,0.00257874,0.00669861,-1.00639343,0.366211,0.183105,-0.122070
5122293500,0.00225830,0.00708008,-1.00643921,0.244141,0.061035,-0.122070
5127273125,0.00198364,0.00762939,-1.00617981,0.427246,0.122070,-0.183105
5132247000,0.00134277,0.00801086,-1.00614929,0.366211,0.061035,-0.061035
5137279208,0.00056458,0.00846863,-1.00672913,0.244141,0.000000,0.061035
5142262208,0.00015259,0.00895691,-1.00727844,0.244141,0.183105,-0.061035
5147276333,0.00038147,0.00878906,-1.00668335,0.244141,0.122070,-0.061035
5152299333,0.00083923,0.00813293,-1.00532532,0.305176,0.061035,-0.061035
5157304333,0.00103760,0.00790405,-1.00508118,0.427246,-0.061035,0.000000
5162294500,0.00093079,0.00834656,-1.00631714,0.244141,0.122070,-0.122070
5167300041,0.00094604,0.00866699,-1.00701904,0.366211,0.244141,-0.122070
5172259416,0.00163269,0.00833130,-1.00650024,0.366211,0.000000,0.000000
5177270666,0.00270081,0.00764465,-1.00640869,0.366211,0.244141,0.000000
5182308041,0.00312805,0.00691223,-1.00679016,0.366211,-0.061035,-0.183105
5187314458,0.00306702,0.00651550,-1.00651550,0.427246,0.061035,-0.061035
5192257833,0.00312805,0.00663757,-1.00546265,0.305176,0.061035,-0.061035
5197309666,0.00317383,0.00698853,-1.00439453,0.305176,0.061035,-0.061035
5202266458,0.00280762,0.00718689,-1.00497437,0.305176,-0.061035,0.122070
5207284041,0.00244141,0.00714111,-1.00744629,0.366211,0.000000,-0.061035
5212277166,0.00241089,0.00668335,-1.00883484,0.366211,0.122070,-0.061035
5217366125,0.00280762,0.00602722,-1.00778198,0.305176,0.000000,-0.183105
5222280791,0.00329590,0.00578308,-1.00631714,0.305176,0.061035,-0.061035
5227314291,0.00335693,0.00628662,-1.00541687,0.427246,0.000000,0.000000
5232265250,0.00306702,0.00698853,-1.00448608,0.305176,0.000000,-0.061035
5237292000,0.00273132,0.00711060,-1.00379944,0.427246,0.122070,-0.061035
5242262333,0.00236511,0.00692749,-1.00444031,0.183105,0.000000,-0.183105
5247288958,0.00166321,0.00700378,-1.00595093,0.305176,0.183105,0.000000
5252317208,0.00082397,0.00743103,-1.00674438,0.427246,-0.061035,-0.122070
5257291708,0.00039673,0.00770569,-1.00659180,0.305176,0.000000,-0.122070
5262293333,0.00054932,0.00769043,-1.00607300,0.183105,0.061035,-0.122070
5267279208,0.00111389,0.00767517,-1.00573730,0.427246,0.122070,0.122070
5272265916,0.00166321,0.00758362,-1.00630188,0.183105,-0.061035,-0.061035
5277283291,0.00180054,0.00732422,-1.00715637,0.366211,0.000000,-0.061035
5282287666,0.00175476,0.00700378,-1.00694275,0.366211,-0.061035,-0.183105
5287328708,0.00163269,0.00671387,-1.00598145,0.244141,0.061035,-0.122070
5292304375,0.00161743,0.00665283,-1.00567627,0.305176,0.000000,-0.061035
5297300666,0.00166321,0.00662231,-1.00605774,0.427246,0.061035,-0.183105
5302302583,0.00160217,0.00648499,-1.00634766,0.305176,0.183105,-0.122070
5307291750,0.00178528,0.00660706,-1.00636292,0.427246,0.061035,0.000000
5312264291,0.00238037,0.00700378,-1.00646973,0.244141,0.122070,-0.122070
5317280208,0.00285339,0.00704956,-1.00679016,0.366211,0.061035,0.000000
5322308333,0.00270081,0.00659180,-1.00703430,0.183105,-0.122070,-0.122070
5327296583,0.00209045,0.00610352,-1.00668335,0.305176,-0.061035,-0.183105
5332290416,0.00172424,0.00610352,-1.00622559,0.122070,0.000000,-0.122070
5337290083,0.00213623,0.00653076,-1.00628662,0.183105,0.000000,-0.183105
5342291416,0.00262451,0.00706482,-1.00654602,0.122070,-0.061035,0.000000
5347296416,0.00239563,0.00773621,-1.00679016,0.122070,-0.122070,-0.061035
5352338916,0.00177002,0.00848389,-1.00738525,0.183105,0.000000,-0.122070
5357315875,0.00137329,0.00878906,-1.00827026,0.061035,0.000000,-0.122070
5362283708,0.00126648,0.00840759,-1.00881958,0.122070,0.122070,-0.183105
5367290666,0.00103760,0.00759888,-1.00817871,0.183105,0.000000,-0.061035
5372329333,0.00077820,0.00703430,-1.00627136,0.244141,-0.061035,-0.183105
5377294750,0.00050354,0.00714111,-1.00471497,0.244141,0.122070,0.061035
5382272708,0.00035095,0.00761414,-1.00491333,0.122070,-0.061035,0.000000
5387300958,0.00042725,0.00778198,-1.00588989,0.122070,0.061035,-0.061035
5392308875,0.00010681,0.00747681,-1.00654602,0.122070,0.000000,0.000000
5397297583,-0.00047302,0.00732422,-1.00727844,-0.122070,-0.061035,-0.061035
5402291125,-0.00051880,0.00791931,-1.00791931,-0.061035,0.061035,-0.061035
5407297083,-0.00013733,0.00860596,-1.00817871,-0.732422,-0.122070,-0.183105
5412276666,0.00010681,0.00854492,-1.00767517,-0.061035,-0.061035,-0.061035
5417290625,0.00045776,0.00756836,-1.00601196,0.183105,0.122070,-0.061035
5422297250,0.00106812,0.00640869,-1.00604248,0.427246,0.122070,0.061035
5427323833,0.00205994,0.00563049,-1.00756836,0.305176,0.122070,-0.122070
5432282958,0.00375366,0.00515747,-1.00395203,0.305176,0.183105,-0.061035
5437312625,0.00556946,0.00521851,-1.00006104,0.549316,-0.061035,-0.061035
5442304541,0.00660706,0.00602722,-1.00205994,0.183105,0.122070,-0.183105
5447321250,0.00704956,0.00700378,-1.00524902,0.488281,0.122070,-0.122070
5452298500,0.00708008,0.00744629,-1.00613403,0.366211,0.183105,-0.061035
5457321875,0.00656128,0.00744629,-1.00668335,0.366211,0.122070,0.000000
5462290958,0.00592041,0.00759888,-1.00708008,0.366211,0.122070,-0.183105
5467321416,0.00546265,0.00799561,-1.00607300,0.305176,0.061035,-0.244141
5472296666,0.00474548,0.00813293,-1.00502014,0.244141,0.061035,-0.183105
5477313125,0.00338745,0.00825500,-1.00547791,0.305176,0.000000,-0.244141
5482281833,0.00209045,0.00877380,-1.00653076,0.549316,0.061035,-0.061035
5487359666,0.00132751,0.00953674,-1.00650024,0.305176,0.122070,-0.061035
5492326875,0.00048828,0.00996399,-1.00602722,0.244141,0.122070,0.000000
5497347208,-0.00057983,0.01016235,-1.00645447,0.366211,0.183105,-0.122070
5502301666,-0.00138855,0.01078796,-1.00698853,0.427246,0.000000,0.000000
5507316333,-0.00186157,0.01136780,-1.00695801,0.305176,0.061035,-0.122070
5512302000,-0.00242615,0.01119995,-1.00706482,0.305176,0.122070,-0.122070
5517339416,-0.00280762,0.01068115,-1.00750732,0.244141,0.061035,0.000000
5522301250,-0.00225830,0.01016235,-1.00747681,0.244141,0.061035,-0.183105
5527340000,-0.00106812,0.00973511,-1.00656128,0.244141,0.000000,-0.122070
5532306375,-0.00030518,0.00924683,-1.00585938,0.244141,0.122070,-0.061035
5537327500,0.00010681,0.00856018,-1.00617981,0.427246,0.061035,-0.122070
5542292958,0.00090027,0.00779724,-1.00666809,0.183105,0.000000,-0.061035
5547299125,0.00177002,0.00729370,-1.00682068,0.122070,0.122070,0.061035
5552299583,0.00239563,0.00692749,-1.00682068,0.366211,0.061035,-0.122070
5557324333,0.00320435,0.00630188,-1.00669861,0.305176,0.000000,-0.061035
5562282833,0.00401306,0.00581360,-1.00654602,0.427246,0.122070,0.061035
5567312458,0.00410461,0.00569153,-1.00640869,0.244141,0.061035,0.000000
5572282333,0.00376892,0.00576782,-1.00617981,0.244141,0.122070,-0.183105
5577312083,0.00372314,0.00587463,-1.00555420,0.366211,0.183105,-0.061035
5582311666,0.00399780,0.00605774,-1.00497437,0.305176,0.122070,-0.122070
5587352375,0.00436401,0.00611877,-1.00502014,0.244141,0.000000,0.000000
5592332958,0.00450134,0.00578308,-1.00537109,0.305176,-0.061035,-0.122070
5597352000,0.00386047,0.00540161,-1.00564575,0.305176,0.000000,-0.122070
5602301166,0.00279236,0.00538635,-1.00611877,0.305176,0.000000,-0.122070
5607322125,0.00224304,0.00579834,-1.00665283,0.366211,0.061035,0.000000
5612318750,0.00209045,0.00625610,-1.00666809,0.183105,0.061035,-0.061035
5617338541,0.00190735,0.00645447,-1.00637817,0.305176,0.122070,-0.122070
5622308708,0.00163269,0.00669861,-1.00613403,0.305176,0.061035,-0.122070
5627350666,0.00152588,0.00738525,-1.00598145,0.305176,0.000000,-0.122070
5632322583,0.00135803,0.00828552,-1.00616455,0.366211,0.000000,-0.183105
5637315500,0.00094604,0.00910950,-1.00666809,0.305176,0.000000,0.000000
5642300958,0.00085449,0.00981140,-1.00636292,0.427246,0.000000,-0.122070
5647330000,0.00128174,0.00997925,-1.00550842,0.244141,0.000000,0.061035
5652301041,0.00181580,0.00962830,-1.00543213,0.244141,-0.061035,-0.061035
5657365875,0.00190735,0.00949097,-1.00585938,0.305176,0.183105,-0.061035
5662356083,0.00134277,0.00965881,-1.00605774,0.305176,0.061035,0.000000
5667336750,0.00056458,0.00978088,-1.00617981,0.366211,0.000000,-0.122070
5672320541,0.00054932,0.00978088,-1.00630188,0.305176,0.061035,0.000000
5677330416,0.00135803,0.00968933,-1.00633240,0.183105,0.000000,-0.061035
5682409083,0.00186157,0.00936890,-1.00634766,0.427246,0.061035,0.000000
5687375750,0.00172424,0.00877380,-1.00640869,0.183105,0.000000,-0.061035
5692362166,0.00161743,0.00813293,-1.00663757,0.244141,0.061035,-0.061035
5697333583,0.00198364,0.00779724,-1.00683594,0.427246,0.000000,-0.061035
5702329875,0.00236511,0.00781250,-1.00677490,0.244141,0.061035,-0.183105
5707337708,0.00231934,0.00767517,-1.00624084,0.366211,-0.061035,-0.122070
5712313750,0.00196838,0.00744629,-1.00561523,0.427246,0.122070,-0.061035
5717345750,0.00163269,0.00746155,-1.00553894,0.305176,0.122070,-0.122070
5722344583,0.00149536,0.00738525,-1.00601196,0.305176,0.061035,0.000000
5727348083,0.00183105,0.00695801,-1.00627136,0.488281,0.000000,0.061035
5732330958,0.00265503,0.00648499,-1.00625610,0.366211,0.000000,-0.061035
5737324375,0.00332642,0.00646973,-1.00630188,0.244141,0.122070,0.061035
5742332541,0.00332642,0.00686646,-1.00637817,0.427246,-0.061035,0.000000
5747337125,0.00288391,0.00730896,-1.00646973,0.366211,0.122070,-0.122070
5752357666,0.00256348,0.00758362,-1.00660706,0.305176,-0.061035,-0.122070
5757323666,0.00253296,0.00741577,-1.00654602,0.366211,-0.061035,-0.061035
5762364000,0.00259399,0.00700378,-1.00637817,0.366211,0.000000,-0.183105
5767327000,0.00245667,0.00695801,-1.00617981,0.366211,0.183105,-0.122070
5772328125,0.00216675,0.00717163,-1.00602722,0.305176,0.122070,-0.183105
5777327875,0.00187683,0.00715637,-1.00622559,0.305176,0.000000,0.000000
5782312375,0.00154114,0.00697327,-1.00674438,0.305176,0.000000,-0.061035
5787393166,0.00112915,0.00718689,-1.00721741,0.366211,0.061035,-0.061035
5792340291,0.00086975,0.00755310,-1.00727844,0.305176,0.061035,-0.061035
5797348208,0.00077820,0.00758362,-1.00695801,0.427246,0.061035,0.000000
5802350000,0.00068665,0.00761414,-1.00663757,0.305176,0.122070,-0.061035
5807341250,0.00035095,0.00810242,-1.00660706,0.305176,0.000000,-0.122070
5812330166,-0.00016785,0.00866699,-1.00656128,0.244141,0.000000,-0.122070
5817381291,-0.00004578,0.00874329,-1.00656128,0.366211,0.183105,0.000000
5822344166,0.00051880,0.00843811,-1.00672913,0.244141,0.305176,0.000000
5827371375,0.00056458,0.00833130,-1.00683594,0.305176,0.061035,-0.061035
5832326458,0.00045776,0.00856018,-1.00668335,0.305176,0.122070,-0.122070
5837358458,0.00128174,0.00869751,-1.00645447,0.305176,-0.061035,-0.183105
5842317958,0.00239563,0.00851440,-1.00648499,0.244141,0.061035,-0.122070
5847342000,0.00257874,0.00842285,-1.00651550,0.305176,0.122070,-0.061035
5852354750,0.00205994,0.00860596,-1.00621033,0.122070,0.000000,0.000000
5857360041,0.00152588,0.00859070,-1.00598145,0.244141,0.061035,0.000000
5862365958,0.00144958,0.00807190,-1.00616455,0.305176,0.122070,-0.122070
5867369708,0.00205994,0.00738525,-1.00639343,0.366211,0.061035,0.000000
5872338875,0.00233459,0.00671387,-1.00627136,0.732422,0.183105,-0.122070
5877359916,0.00169373,0.00613403,-1.00608826,0.122070,-0.061035,-0.122070
5882360916,0.00111389,0.00607300,-1.00546265,0.183105,0.061035,-0.122070
5887336208,0.00140381,0.00596619,-1.00210571,0.915527,-0.061035,-0.183105
5892369541,0.00184631,0.00569153,-1.00556946,0.122070,0.061035,-0.061035
5897366750,0.00148010,0.00588989,-1.01783752,0.183105,0.183105,-0.122070
5902360333,0.00105286,0.00601196,-1.00991821,0.488281,-0.061035,0.000000
5907359375,0.00125122,0.00592041,-0.99621582,0.305176,0.122070,-0.122070
5912324166,0.00138855,0.00651550,-1.00257874,0.244141,-0.061035,-0.122070
5917371291,0.00138855,0.00772095,-1.00917053,0.366211,0.000000,-0.183105
5922376291,0.00163269,0.00856018,-1.00799561,0.366211,0.122070,-0.183105
5927379250,0.00202942,0.00830078,-1.00663757,0.427246,-0.061035,-0.122070
5932342375,0.00192261,0.00750732,-1.00579834,0.244141,0.183105,-0.061035
5937367500,0.00134277,0.00749207,-1.00621033,0.366211,0.122070,-0.122070
5942383041,0.00135803,0.00843811,-1.00579834,0.305176,-0.122070,-0.061035
5947368916,0.00193787,0.00939941,-1.00555420,0.305176,0.061035,0.000000
5952362208,0.00218201,0.00953674,-1.00695801,0.366211,0.061035,0.000000
5957392583,0.00193787,0.00881958,-1.00595093,0.244141,0.061035,0.000000
5962367791,0.00123596,0.00825500,-1.00483704,0.244141,-0.061035,0.000000
5967370791,0.00059509,0.00851440,-1.00601196,0.305176,-0.061035,-0.061035
5972353750,0.00091553,0.00927734,-1.00646973,0.305176,0.122070,-0.061035
5977357500,0.00170898,0.01002502,-1.00743103,0.366211,0.061035,-0.061035
5982352291,0.00213623,0.01007080,-1.00778198,0.366211,0.122070,-0.061035
5987388708,0.00241089,0.00910950,-1.00581360,0.427246,0.122070,-0.061035
5992372583,0.00303650,0.00785828,-1.00491333,0.244141,0.061035,-0.061035
5997364916,0.00398254,0.00737000,-1.00482178,0.305176,0.061035,-0.061035
6002345250,0.00408936,0.00749207,-1.00448608,0.488281,0.122070,-0.122070
6007354333,0.00291443,0.00735474,-1.00543213,0.366211,0.122070,0.000000
6012357791,0.00170898,0.00682068,-1.00671387,0.366211,0.061035,-0.061035
6017370750,0.00155640,0.00593567,-1.00672913,0.305176,0.061035,-0.061035
6022368875,0.00190735,0.00489807,-1.00582886,0.244141,0.000000,-0.183105
6027406625,0.00196838,0.00459290,-1.00488281,0.305176,0.122070,-0.122070
6032347583,0.00202942,0.00523376,-1.00476074,0.427246,0.122070,0.061035
6037381041,0.00219727,0.00610352,-1.00564575,0.427246,0.183105,-0.122070
6042364500,0.00215149,0.00686646,-1.00674438,0.305176,0.122070,-0.122070
6047370416,0.00202942,0.00733948,-1.00706482,0.427246,0.122070,-0.183105
6052377583,0.00190735,0.00733948,-1.00627136,0.366211,0.122070,-0.122070
6057411083,0.00148010,0.00747681,-1.00552368,0.244141,0.122070,0.000000
6062344791,0.00117493,0.00808716,-1.00555420,0.427246,0.000000,-0.061035
6067332208,0.00138855,0.00856018,-1.00570679,0.305176,0.183105,-0.122070
6072361166,0.00135803,0.00851440,-1.00556946,0.305176,0.000000,-0.183105
6077358000,0.00064087,0.00831604,-1.00544739,0.366211,0.061035,-0.183105
6082362458,0.00000000,0.00843811,-1.00552368,0.427246,0.122070,-0.061035
6087397250,-0.00018311,0.00898743,-1.00558472,0.427246,0.122070,-0.122070
6092375375,-0.00010681,0.00939941,-1.00588989,0.305176,-0.061035,-0.122070
6097410458,-0.00012207,0.00938416,-1.00662231,0.244141,0.183105,-0.061035
6102369791,-0.00019836,0.00941467,-1.00714111,0.366211,0.061035,-0.122070
6107381458,0.00030518,0.00946045,-1.00688171,0.427246,0.000000,0.061035
6112361291,0.00128174,0.00914001,-1.00640869,0.427246,0.183105,0.061035
6117409791,0.00210571,0.00869751,-1.00624084,0.244141,-0.061035,-0.061035
6122394541,0.00236511,0.00836182,-1.00610352,0.549316,0.122070,-0.061035
6127398500,0.00222778,0.00819397,-1.00575256,0.427246,0.000000,-0.122070
6132362791,0.00224304,0.00793457,-1.00544739,0.244141,0.000000,-0.122070
6137378541,0.00253296,0.00747681,-1.00508118,0.427246,0.122070,-0.061035
6142358916,0.00305176,0.00689697,-1.00416565,0.549316,0.000000,-0.061035
6147386000,0.00320435,0.00650024,-1.00668335,0.183105,0.000000,-0.061035
6152376208,0.00268555,0.00627136,-1.01002502,0.366211,0.000000,-0.122070
6157424458,0.00218201,0.00575256,-1.00595093,0.549316,0.061035,-0.061035
6162381208,0.00209045,0.00529480,-1.00346375,0.305176,0.183105,0.000000
6167405250,0.00244141,0.00523376,-1.00682068,0.305176,0.000000,-0.122070
6172373166,0.00273132,0.00535583,-1.00796509,0.366211,0.000000,-0.061035
6177366833,0.00271606,0.00563049,-1.00720215,0.305176,0.061035,0.000000
6182376291,0.00273132,0.00607300,-1.00689697,0.244141,0.000000,-0.061035
6187414000,0.00254822,0.00648499,-1.00642395,0.366211,0.061035,-0.061035
6192386791,0.00193787,0.00701904,-1.00608826,0.366211,0.061035,-0.061035
6197385458,0.00161743,0.00759888,-1.00630188,0.366211,0.122070,-0.244141
6202387583,0.00196838,0.00778198,-1.00706482,0.305176,0.122070,-0.061035
6207379708,0.00219727,0.00761414,-1.00691223,0.061035,0.122070,-0.061035
6212369208,0.00189209,0.00744629,-1.00546265,0.122070,0.000000,-0.061035
6217410583,0.00157166,0.00738525,-1.00529480,0.427246,0.061035,-0.122070
6222375875,0.00146484,0.00764465,-1.00654602,0.305176,0.061035,-0.061035
6227419791,0.00083923,0.00810242,-1.00689697,0.427246,0.061035,-0.061035
6232371708,0.00004578,0.00834656,-1.00643921,0.549316,0.000000,-0.122070
6237386375,0.00036621,0.00831604,-1.00608826,0.427246,0.000000,0.061035
6242363125,0.00123596,0.00810242,-1.00592041,0.366211,0.000000,-0.183105
6247388083,0.00111389,0.00811768,-1.00578308,0.305176,0.061035,-0.183105
6252381708,0.00038147,0.00885010,-1.00584412,0.366211,0.061035,0.000000
6257393333,0.00027466,0.00975037,-1.00645447,0.244141,0.122070,0.061035
6262383166,0.00073242,0.00976562,-1.00665283,0.244141,0.122070,-0.061035
6267306166,0.00090027,0.00918579,-1.00625610,0.427246,0.122070,-0.122070
6272373500,0.00071716,0.00901794,-1.00614929,0.427246,-0.061035,-0.061035
6277377791,0.00091553,0.00930786,-1.00601196,0.305176,0.122070,-0.122070
6282390583,0.00169373,0.00947571,-1.00581360,0.427246,0.122070,-0.122070
6287429041,0.00238037,0.00900269,-1.00625610,0.183105,0.061035,-0.122070
6292387125,0.00251770,0.00790405,-1.00706482,0.305176,0.183105,0.000000
6297426625,0.00222778,0.00677490,-1.00730896,0.305176,0.061035,-0.061035
6302435125,0.00198364,0.00639343,-1.00688171,0.366211,0.122070,-0.061035
6307394125,0.00181580,0.00663757,-1.00653076,0.244141,0.061035,-0.061035
6312377916,0.00177002,0.00695801,-1.00691223,0.366211,0.000000,0.000000
6317425458,0.00202942,0.00720215,-1.00740051,0.244141,0.244141,-0.061035
6322404416,0.00253296,0.00735474,-1.00726318,0.244141,0.061035,-0.122070
6327425375,0.00289917,0.00749207,-1.00682068,0.244141,0.061035,-0.061035
6332409625,0.00274658,0.00747681,-1.00627136,0.305176,0.061035,0.000000
6337402125,0.00233459,0.00727844,-1.00550842,0.427246,0.000000,-0.061035
6342378083,0.00222778,0.00709534,-1.00517273,0.427246,0.061035,-0.061035
6347389583,0.00245667,0.00674438,-1.00569153,0.183105,-0.061035,-0.122070
6352400541,0.00267029,0.00630188,-1.00646973,0.366211,0.122070,-0.061035
6357399000,0.00265503,0.00650024,-1.00700378,0.488281,0.122070,-0.122070
6362410583,0.00228882,0.00711060,-1.00685120,0.366211,0.000000,-0.061035
6367403375,0.00172424,0.00743103,-1.00637817,0.183105,0.000000,-0.183105
6372396666,0.00137329,0.00759888,-1.00642395,0.366211,0.122070,0.000000
6377389666,0.00117493,0.00808716,-1.00714111,0.366211,0.061035,-0.122070
6382398416,0.00091553,0.00846863,-1.00756836,0.305176,0.061035,-0.122070
6387402500,0.00070190,0.00827026,-1.00717163,0.366211,0.000000,-0.122070
6392393125,0.00093079,0.00813293,-1.00634766,0.427246,0.061035,-0.122070
6397409125,0.00126648,0.00849915,-1.00547791,0.244141,0.000000,-0.122070
6402395916,0.00119019,0.00903320,-1.00517273,0.305176,0.061035,-0.061035
6407399291,0.00097656,0.00947571,-1.00578308,0.366211,0.000000,0.000000
6412380041,0.00091553,0.00964355,-1.00679016,0.366211,0.122070,-0.122070
6417420416,0.00094604,0.00933838,-1.00758362,0.244141,-0.061035,-0.061035
6422425333,0.00091553,0.00888062,-1.00744629,0.305176,-0.183105,-0.122070
6427435916,0.00076294,0.00863647,-1.00642395,0.366211,0.244141,0.122070
6432408541,0.00074768,0.00836182,-1.00550842,0.427246,0.122070,0.061035
6437396541,0.00082397,0.00782776,-1.00549316,0.305176,0.000000,-0.061035
6442402958,0.00082397,0.00729370,-1.00619507,0.366211,0.061035,-0.122070
6447412458,0.00122070,0.00683594,-1.00694275,0.244141,0.122070,-0.061035
6452405000,0.00170898,0.00660706,-1.00703430,0.427246,-0.061035,-0.122070
6457431041,0.00178528,0.00660706,-1.00640869,0.427246,0.000000,-0.061035
6462419166,0.00202942,0.00646973,-1.00572205,0.488281,0.122070,-0.122070
6467426708,0.00279236,0.00614929,-1.00572205,0.244141,0.000000,-0.061035
6472409500,0.00326538,0.00585938,-1.00587463,0.122070,0.061035,-0.122070
6477413041,0.00273132,0.00579834,-1.00479126,0.427246,0.061035,-0.061035
6482396000,0.00190735,0.00592041,-1.00585938,0.427246,-0.061035,-0.183105
6487408958,0.00181580,0.00614929,-1.01026917,0.244141,0.061035,-0.183105
6492416708,0.00265503,0.00621033,-1.00854492,0.488281,0.000000,-0.061035
6497415958,0.00381470,0.00630188,-1.00436401,0.244141,0.122070,-0.122070
6502397000,0.00428772,0.00675964,-1.00608826,0.488281,0.061035,-0.244141
6507403500,0.00375366,0.00723267,-1.00767517,0.305176,0.000000,-0.122070
6512410625,0.00279236,0.00737000,-1.00698853,0.305176,0.061035,-0.061035
6517411083,0.00205994,0.00729370,-1.00685120,0.305176,0.061035,0.000000
6522418458,0.00195312,0.00726318,-1.00654602,0.244141,0.122070,-0.122070
6527446458,0.00186157,0.00730896,-1.00555420,0.366211,0.061035,-0.061035
6532404958,0.00135803,0.00752258,-1.00473022,0.427246,0.061035,-0.122070
6537423000,0.00091553,0.00808716,-1.00531006,0.366211,0.122070,-0.122070
6542414208,0.00061035,0.00856018,-1.00680542,0.305176,0.061035,-0.061035
6547425541,0.00027466,0.00866699,-1.00717163,0.122070,0.000000,-0.061035
6552419583,0.00030518,0.00897217,-1.00677490,0.488281,0.122070,0.000000
6557424416,0.00100708,0.00938416,-1.00669861,0.427246,0.122070,0.000000
6562413250,0.00146484,0.00942993,-1.00663757,0.427246,0.122070,-0.061035
6567403958,0.00093079,0.00912476,-1.00694275,0.366211,0.061035,-0.061035
6572401666,0.00018311,0.00854492,-1.00718689,0.366211,0.000000,-0.122070
6577409666,0.00027466,0.00794983,-1.00645447,0.366211,0.000000,-0.244141
6582414666,0.00103760,0.00746155,-1.00575256,0.305176,-0.061035,0.000000
6587445583,0.00192261,0.00694275,-1.00588989,0.366211,0.061035,-0.061035
6592439458,0.00262451,0.00682068,-1.00637817,0.366211,0.061035,-0.122070
6597442083,0.00302124,0.00730896,-1.00642395,0.305176,0.122070,0.000000
6602425750,0.00326538,0.00779724,-1.00617981,0.183105,0.183105,-0.061035
6607420833,0.00346375,0.00747681,-1.00619507,0.427246,0.122070,-0.122070
6612448291,0.00384521,0.00663757,-1.00604248,0.244141,0.061035,-0.122070
6617425083,0.00424194,0.00653076,-1.00579834,0.244141,0.000000,-0.244141
6622415791,0.00416565,0.00706482,-1.00595093,0.427246,0.061035,-0.122070
6627432208,0.00343323,0.00740051,-1.00628662,0.244141,0.061035,-0.061035
6632421208,0.00260925,0.00726318,-1.00642395,0.305176,0.183105,-0.122070
6637437583,0.00224304,0.00679016,-1.00636292,0.366211,0.061035,0.000000
6642398708,0.00202942,0.00639343,-1.00605774,0.366211,0.000000,-0.061035
6647439125,0.00170898,0.00674438,-1.00552368,0.427246,0.061035,-0.183105
6652419583,0.00140381,0.00778198,-1.00535583,0.183105,0.061035,-0.061035
6657459666,0.00099182,0.00863647,-1.00605774,0.427246,-0.061035,-0.122070
6662425208,0.00035095,0.00894165,-1.00697327,0.366211,0.000000,-0.061035
6667415958,-0.00013733,0.00909424,-1.00692749,0.427246,0.000000,-0.122070
6672424625,-0.00036621,0.00923157,-1.00593567,0.305176,0.061035,-0.061035
6677427416,-0.00024414,0.00929260,-1.00546265,0.244141,0.061035,-0.244141
6682438750,-0.00003052,0.00924683,-1.00601196,0.488281,0.122070,0.061035
6687443583,0.00006104,0.00915527,-1.00675964,0.549316,0.183105,-0.183105
6692429416,0.00018311,0.00924683,-1.00709534,0.366211,0.000000,-0.122070
6697432291,0.00012207,0.00949097,-1.00721741,0.427246,0.122070,0.000000
6702441000,-0.00022888,0.00927734,-1.00709534,0.366211,0.061035,0.061035
6707429666,-0.00041199,0.00860596,-1.00666809,0.366211,0.000000,-0.061035
6712433708,0.00018311,0.00793457,-1.00636292,0.183105,0.061035,0.000000
6717426916,0.00144958,0.00732422,-1.00633240,0.122070,0.000000,-0.061035
6722447166,0.00244141,0.00703430,-1.00625610,0.366211,0.061035,-0.061035
6727463875,0.00282288,0.00692749,-1.00590515,0.305176,0.061035,-0.122070
6732430958,0.00292969,0.00679016,-1.00569153,0.488281,0.000000,0.000000
6737436500,0.00312805,0.00645447,-1.00570679,0.366211,0.061035,-0.061035
6742426208,0.00357056,0.00601196,-1.00538635,0.305176,0.000000,-0.122070
6747442333,0.00389099,0.00578308,-1.00527954,0.305176,0.000000,-0.122070
6752431541,0.00376892,0.00564575,-1.00714111,0.427246,0.183105,0.000000
6757435083,0.00357056,0.00537109,-1.00856018,0.366211,0.061035,-0.061035
6762429291,0.00366211,0.00502014,-1.00675964,0.305176,0.061035,-0.061035
6767474875,0.00367737,0.00506592,-1.00480652,0.244141,0.000000,-0.122070
6772411916,0.00338745,0.00567627,-1.00434875,0.244141,0.000000,-0.122070
6777439666,0.00323486,0.00628662,-1.00485229,0.305176,0.000000,-0.122070
6782420750,0.00332642,0.00657654,-1.00599670,0.305176,0.061035,-0.122070
6787449708,0.00309753,0.00700378,-1.00651550,0.366211,0.122070,-0.183105
6792448166,0.00216675,0.00756836,-1.00642395,0.244141,0.061035,-0.183105
6797441833,0.00126648,0.00787354,-1.00631714,0.366211,0.000000,-0.122070
6802437791,0.00129700,0.00822449,-1.00621033,0.488281,0.061035,0.000000
6807448083,0.00163269,0.00900269,-1.00650024,0.427246,0.061035,-0.183105
6812608041,0.00131226,0.00970459,-1.00711060,0.366211,0.183105,-0.061035
6817520583,0.00045776,0.00994873,-1.00741577,0.427246,0.183105,0.183105
6822423333,-0.00007629,0.01005554,-1.00718689,0.366211,0.122070,-0.061035
6827454000,-0.00012207,0.01005554,-1.00656128,0.244141,0.061035,-0.061035
6832430041,0.00000000,0.00973511,-1.00601196,0.305176,0.061035,-0.122070
6837439625,0.00015259,0.00935364,-1.00604248,0.366211,0.000000,-0.183105
6842436125,0.00039673,0.00918579,-1.00657654,0.305176,0.061035,-0.061035
6847444833,0.00071716,0.00921631,-1.00729370,0.305176,0.061035,0.000000
6852458583,0.00129700,0.00914001,-1.00721741,0.305176,0.000000,-0.061035
6857443291,0.00187683,0.00874329,-1.00634766,0.366211,0.122070,-0.061035
6862454291,0.00219727,0.00827026,-1.00572205,0.366211,0.183105,-0.183105
6867461708,0.00241089,0.00793457,-1.00550842,0.305176,0.000000,-0.183105
6872438291,0.00277710,0.00784302,-1.00559998,0.305176,-0.061035,0.000000
6877445916,0.00346375,0.00785828,-1.00579834,0.366211,0.122070,0.000000
6882449541,0.00410461,0.00762939,-1.00592041,0.244141,0.061035,-0.244141
6887456125,0.00405884,0.00717163,-1.00595093,0.427246,0.061035,-0.061035
6892426708,0.00346375,0.00675964,-1.00608826,0.366211,0.122070,-0.061035
6897439625,0.00297546,0.00645447,-1.00625610,0.244141,0.000000,-0.061035
6902482625,0.00306702,0.00613403,-1.00642395,0.244141,0.000000,-0.183105
6907448833,0.00335693,0.00592041,-1.00671387,0.183105,0.000000,-0.061035
6912448458,0.00299072,0.00607300,-1.00682068,0.244141,0.122070,-0.122070
6917459208,0.00212097,0.00643921,-1.00634766,0.305176,0.183105,-0.122070
6922493958,0.00149536,0.00677490,-1.00563049,0.122070,0.061035,-0.122070
6927456666,0.00143433,0.00688171,-1.00552368,0.305176,0.183105,-0.061035
6932460083,0.00169373,0.00689697,-1.00639343,0.366211,0.122070,-0.122070
6937449208,0.00167847,0.00708008,-1.00747681,0.183105,0.061035,-0.244141
6942444666,0.00126648,0.00729370,-1.00775146,0.305176,0.122070,-0.122070
6947457708,0.00073242,0.00746155,-1.00740051,0.427246,0.061035,0.000000
6952459000,0.00062561,0.00779724,-1.00677490,0.305176,0.000000,-0.061035
6957464166,0.00115967,0.00820923,-1.00616455,0.305176,0.183105,-0.061035
6962465125,0.00178528,0.00856018,-1.00611877,0.366211,0.061035,-0.122070
6967465083,0.00184631,0.00917053,-1.00640869,0.427246,0.000000,-0.122070
6972448333,0.00138855,0.00991821,-1.00648499,0.488281,0.000000,-0.061035
6977457916,0.00123596,0.01016235,-1.00639343,0.366211,0.061035,0.000000
6982457208,0.00163269,0.00950623,-1.00640869,0.305176,0.061035,-0.122070
6987458916,0.00195312,0.00860596,-1.00656128,0.366211,0.122070,-0.061035
6992453833,0.00183105,0.00839233,-1.00639343,0.427246,0.183105,-0.061035
6997452958,0.00166321,0.00863647,-1.00582886,0.305176,0.122070,-0.061035
7002455083,0.00175476,0.00862122,-1.00559998,0.366211,0.122070,0.000000
7007454666,0.00164795,0.00805664,-1.00598145,0.183105,-0.061035,0.000000
7012450500,0.00090027,0.00740051,-1.00627136,0.427246,0.061035,-0.061035
7017469750,0.00003052,0.00715637,-1.00599670,0.305176,0.000000,0.000000
7022455625,0.00000000,0.00708008,-1.00566101,0.244141,0.000000,-0.061035
7027484833,0.00083923,0.00659180,-1.00595093,0.427246,0.061035,-0.122070
7032441958,0.00167847,0.00605774,-1.00688171,0.305176,0.061035,-0.061035
7037467250,0.00181580,0.00617981,-1.00749207,0.366211,0.122070,0.000000
7042462083,0.00189209,0.00682068,-1.00704956,0.488281,0.000000,-0.061035
7047466958,0.00239563,0.00729370,-1.00607300,0.244141,0.000000,-0.122070
7052470500,0.00270081,0.00724792,-1.00566101,0.244141,0.122070,-0.183105
7057492875,0.00250244,0.00715637,-1.00598145,0.427246,0.122070,0.000000
7062457791,0.00212097,0.00749207,-1.00645447,0.305176,0.000000,-0.122070
7067468291,0.00209045,0.00776672,-1.00657654,0.305176,0.183105,-0.122070
7072457666,0.00224304,0.00756836,-1.00595093,0.366211,0.000000,-0.122070
7077500166,0.00215149,0.00730896,-1.00540161,0.366211,0.122070,-0.122070
7082466041,0.00195312,0.00733948,-1.00569153,0.244141,0.061035,-0.122070
7087487291,0.00183105,0.00764465,-1.00605774,0.305176,-0.061035,-0.061035
7092459791,0.00178528,0.00807190,-1.00596619,0.366211,0.061035,0.000000
7097475375,0.00173950,0.00856018,-1.00605774,0.244141,0.122070,-0.061035
7102481041,0.00149536,0.00886536,-1.00651550,0.244141,0.122070,-0.061035
7107482833,0.00103760,0.00888062,-1.00659180,0.366211,0.183105,0.000000
7112476208,0.00068665,0.00886536,-1.00596619,0.305176,0.122070,-0.122070
7117479416,0.00093079,0.00888062,-1.00549316,0.366211,0.061035,-0.122070
7122469041,0.00137329,0.00883484,-1.00590515,0.427246,0.122070,-0.061035
7127491208,0.00149536,0.00881958,-1.00685120,0.366211,0.183105,-0.061035
7132455416,0.00123596,0.00885010,-1.00752258,0.671387,0.061035,-0.122070
7137727791,0.00106812,0.00865173,-1.00726318,0.122070,-0.122070,-0.122070
7142551208,0.00169373,0.00825500,-1.00576782,0.183105,0.122070,-0.122070
7147566166,0.00311279,0.00781250,-1.00352478,0.549316,0.000000,-0.183105
7152481833,0.00402832,0.00769043,-1.00697327,0.305176,0.061035,-0.122070
7157484166,0.00360107,0.00770569,-1.01359558,0.366211,0.122070,-0.061035
7162482583,0.00279236,0.00718689,-1.00840759,0.305176,-0.122070,-0.061035
7167487000,0.00276184,0.00643921,-1.00126648,0.183105,0.061035,-0.122070
7172457125,0.00334167,0.00621033,-1.00256348,0.305176,0.061035,-0.122070
7177484708,0.00367737,0.00648499,-1.00469971,0.366211,0.000000,-0.061035
7182509833,0.00355530,0.00650024,-1.00636292,0.366211,0.122070,-0.183105
7187481916,0.00332642,0.00587463,-1.00785828,0.122070,-0.061035,-0.244141
7192487625,0.00296021,0.00512695,-1.00755310,0.183105,0.000000,-0.122070
7197494083,0.00245667,0.00494385,-1.00650024,0.366211,0.061035,-0.122070
7202494708,0.00204468,0.00540161,-1.00518799,0.305176,0.061035,-0.061035
7207490333,0.00202942,0.00604248,-1.00497437,0.366211,0.122070,-0.122070
7212458041,0.00219727,0.00648499,-1.00593567,0.305176,0.000000,-0.183105
7217501791,0.00180054,0.00688171,-1.00608826,0.427246,0.000000,-0.122070
7222470958,0.00094604,0.00761414,-1.00622559,0.427246,0.061035,-0.122070
7227499250,0.00047302,0.00852966,-1.00680542,0.305176,0.122070,0.061035
7232527791,0.00032043,0.00933838,-1.00650024,0.366211,0.183105,-0.061035
7237501041,0.00022888,0.00985718,-1.00630188,0.305176,0.061035,-0.061035
7242475708,0.00042725,0.00958252,-1.00675964,0.244141,0.000000,-0.122070
7247492583,0.00048828,0.00920105,-1.00733948,0.366211,0.183105,0.061035
7252491333,0.00019836,0.00990295,-1.00721741,0.305176,0.122070,-0.061035
7257502458,0.00018311,0.01087952,-1.00604248,0.183105,0.061035,-0.122070
7262487750,0.00071716,0.01080322,-1.00518799,0.244141,0.000000,-0.122070
7267508625,0.00105286,0.00996399,-1.00558472,0.244141,0.183105,0.000000
7272459458,0.00119019,0.00921631,-1.00634766,0.366211,0.000000,-0.061035
7277483291,0.00180054,0.00880432,-1.00662231,0.366211,0.061035,0.000000
7282483250,0.00242615,0.00849915,-1.00608826,0.366211,0.061035,0.000000
7287515000,0.00276184,0.00785828,-1.00543213,0.427246,0.061035,-0.122070
7292498833,0.00291443,0.00706482,-1.00572205,0.427246,0.244141,0.000000
7297507541,0.00296021,0.00653076,-1.00624084,0.244141,-0.122070,-0.183105
7302485416,0.00318909,0.00608826,-1.00585938,0.366211,0.061035,0.000000
7307499958,0.00378418,0.00561523,-1.00517273,0.305176,0.000000,-0.061035
7312489416,0.00398254,0.00532532,-1.00509644,0.427246,0.061035,-0.244141
7317498208,0.00347900,0.00511169,-1.00543213,0.305176,0.061035,-0.244141
7322478250,0.00312805,0.00509644,-1.00585938,0.427246,0.000000,0.000000
7327497833,0.00309753,0.00540161,-1.00624084,0.305176,0.122070,-0.183105
7332541666,0.00321960,0.00573730,-1.00643921,0.305176,0.000000,-0.061035
7337572208,0.00352478,0.00570679,-1.00656128,0.244141,0.061035,-0.122070
7342482208,0.00358582,0.00553894,-1.00674438,0.244141,0.122070,-0.122070
7347519416,0.00292969,0.00573730,-1.00679016,0.244141,0.061035,-0.122070
7352470791,0.00227356,0.00616455,-1.00656128,0.305176,0.183105,-0.122070
7357499375,0.00198364,0.00656128,-1.00636292,0.183105,-0.061035,-0.183105
7362487791,0.00141907,0.00706482,-1.00631714,0.366211,0.061035,-0.183105
7367506416,0.00086975,0.00772095,-1.00634766,0.427246,0.183105,0.000000
7372475833,0.00106812,0.00833130,-1.00637817,0.244141,0.061035,-0.061035
7377503500,0.00128174,0.00903320,-1.00648499,0.366211,0.183105,-0.061035
7382494125,0.00086975,0.00952148,-1.00653076,0.305176,-0.061035,-0.061035
7387506791,0.00036621,0.00933838,-1.00636292,0.366211,-0.122070,-0.061035
7392499125,0.00004578,0.00889587,-1.00610352,0.183105,0.122070,-0.122070
7397504208,-0.00009155,0.00888062,-1.00584412,0.305176,0.122070,-0.061035
7402522000,-0.00003052,0.00921631,-1.00569153,0.427246,0.183105,0.061035
7407511833,0.00030518,0.00965881,-1.00608826,0.427246,0.122070,-0.122070
7412497958,0.00094604,0.00991821,-1.00680542,0.427246,0.122070,0.000000
7417515500,0.00132751,0.00961304,-1.00665283,0.244141,0.122070,0.000000
7422514000,0.00160217,0.00903320,-1.00564575,0.305176,0.000000,0.000000
7427515166,0.00221252,0.00888062,-1.00505066,0.427246,0.122070,-0.061035
7432501833,0.00274658,0.00895691,-1.00572205,0.366211,0.122070,-0.061035
7437491500,0.00283813,0.00842285,-1.00686646,0.366211,-0.061035,-0.061035
7442557208,0.00299072,0.00764465,-1.00712585,0.366211,0.000000,0.000000
7447501291,0.00311279,0.00735474,-1.00636292,0.305176,0.122070,0.000000
7452511583,0.00279236,0.00730896,-1.00544739,0.183105,0.183105,0.000000
7457497625,0.00244141,0.00712585,-1.00531006,0.305176,0.122070,0.061035
7462544916,0.00256348,0.00688171,-1.00587463,0.427246,0.000000,-0.183105
7467506291,0.00273132,0.00686646,-1.00637817,0.305176,0.000000,-0.061035
7472499750,0.00268555,0.00709534,-1.00653076,0.244141,-0.061035,0.000000
7477510375,0.00274658,0.00703430,-1.00656128,0.244141,0.183105,-0.061035
7482505583,0.00273132,0.00659180,-1.00636292,0.305176,0.061035,-0.061035
7487517958,0.00242615,0.00634766,-1.00611877,0.427246,0.122070,-0.061035
7492521375,0.00221252,0.00675964,-1.00645447,0.366211,0.061035,-0.061035
7497524708,0.00207520,0.00750732,-1.00711060,0.183105,0.122070,-0.061035
7502495333,0.00173950,0.00790405,-1.00704956,0.488281,0.061035,-0.061035
7507508333,0.00132751,0.00788879,-1.00628662,0.244141,0.122070,-0.061035
7512511083,0.00073242,0.00779724,-1.00578308,0.244141,0.061035,-0.122070
7517557333,0.00032043,0.00778198,-1.00575256,0.366211,0.061035,0.000000
7522531458,0.00053406,0.00791931,-1.00588989,0.305176,0.000000,-0.061035
7527540500,0.00100708,0.00833130,-1.00610352,0.305176,0.183105,0.061035
7532511583,0.00158691,0.00872803,-1.00633240,0.244141,0.000000,-0.061035
7537523125,0.00196838,0.00885010,-1.00640869,0.305176,0.061035,0.000000
7542509125,0.00160217,0.00866699,-1.00643921,0.305176,0.000000,-0.061035
7547502458,0.00099182,0.00852966,-1.00657654,0.305176,-0.122070,-0.122070
7552513166,0.00115967,0.00874329,-1.00657654,0.244141,0.061035,-0.122070
7557538500,0.00178528,0.00894165,-1.00637817,0.305176,-0.122070,-0.183105
7562483000,0.00225830,0.00875854,-1.00607300,0.366211,0.122070,-0.122070
7567518666,0.00245667,0.00839233,-1.00581360,0.244141,0.000000,0.000000
7572488916,0.00247192,0.00816345,-1.00572205,0.488281,0.061035,-0.061035
7577507125,0.00244141,0.00791931,-1.00579834,0.366211,0.000000,-0.122070
7582507291,0.00242615,0.00755310,-1.00588989,0.305176,0.061035,-0.122070
7587559666,0.00244141,0.00729370,-1.00611877,0.305176,0.061035,-0.122070
7592526458,0.00245667,0.00724792,-1.00672913,0.244141,0.000000,-0.183105
7597565208,0.00228882,0.00729370,-1.00721741,0.427246,0.061035,-0.183105
7602532541,0.00219727,0.00730896,-1.00691223,0.427246,0.061035,-0.122070
7607524208,0.00248718,0.00721741,-1.00624084,0.488281,0.122070,-0.061035
7612512375,0.00263977,0.00689697,-1.00608826,0.305176,0.122070,0.000000
7617552125,0.00238037,0.00648499,-1.00636292,0.427246,0.061035,-0.061035
7622547583,0.00199890,0.00625610,-1.00659180,0.427246,0.061035,-0.122070
7627538958,0.00190735,0.00608826,-1.00608826,0.366211,-0.061035,-0.061035
7632516250,0.00210571,0.00590515,-1.00498962,0.427246,-0.061035,-0.061035
7637532500,0.00184631,0.00585938,-1.00463867,0.427246,-0.061035,-0.122070
7642515583,0.00135803,0.00625610,-1.00524902,0.305176,-0.061035,-0.122070
7647565000,0.00157166,0.00712585,-1.00575256,0.366211,0.061035,-0.061035
7652548208,0.00205994,0.00782776,-1.00599670,0.427246,0.000000,-0.061035
7657557958,0.00172424,0.00814819,-1.00617981,0.244141,-0.122070,-0.061035
7662563000,0.00090027,0.00862122,-1.00607300,0.366211,0.122070,-0.183105
7667534125,0.00067139,0.00909424,-1.00576782,0.366211,0.000000,-0.122070
7672510083,0.00119019,0.00901794,-1.00579834,0.366211,0.000000,-0.061035
7677533791,0.00215149,0.00871277,-1.00628662,0.366211,0.061035,-0.061035
7682564166,0.00317383,0.00880432,-1.00663757,0.366211,0.000000,-0.122070
7687559750,0.00340271,0.00878906,-1.00625610,0.366211,0.122070,-0.122070
7692540125,0.00270081,0.00833130,-1.00596619,0.244141,0.000000,0.000000
7697540416,0.00180054,0.00785828,-1.00663757,0.183105,0.061035,0.000000
7702542791,0.00109863,0.00770569,-1.00759888,0.305176,-0.061035,-0.366211
7707541375,0.00064087,0.00775146,-1.00778198,0.305176,0.061035,-0.061035
7712572500,0.00064087,0.00784302,-1.00698853,0.305176,0.000000,-0.122070
7717556666,0.00123596,0.00808716,-1.00607300,0.427246,0.061035,-0.061035
7722510000,0.00190735,0.00839233,-1.00567627,0.427246,0.000000,-0.122070
7727524708,0.00218201,0.00819397,-1.00558472,0.183105,0.122070,-0.183105
7732508833,0.00245667,0.00764465,-1.00566101,0.366211,-0.061035,0.000000
7737545500,0.00286865,0.00744629,-1.00610352,0.366211,-0.061035,-0.122070
7742537333,0.00279236,0.00750732,-1.00688171,0.488281,0.000000,-0.061035
7747547541,0.00207520,0.00735474,-1.00735474,0.305176,0.000000,-0.061035
7752561708,0.00152588,0.00704956,-1.00688171,0.366211,0.183105,-0.183105
7757567166,0.00158691,0.00703430,-1.00598145,0.366211,0.000000,0.061035
7762535000,0.00189209,0.00723267,-1.00575256,0.122070,0.183105,-0.061035
7767534583,0.00199890,0.00720215,-1.00631714,0.366211,0.122070,-0.122070
7772536500,0.00196838,0.00695801,-1.00695801,0.366211,0.183105,-0.061035
7777541875,0.00190735,0.00682068,-1.00697327,0.427246,0.122070,-0.122070
7782569541,0.00178528,0.00698853,-1.00622559,0.183105,0.061035,-0.122070
7787586000,0.00177002,0.00724792,-1.00575256,0.427246,0.061035,-0.061035
7792545708,0.00183105,0.00735474,-1.00587463,0.305176,0.061035,-0.122070
7797584916,0.00161743,0.00733948,-1.00599670,0.305176,0.183105,-0.122070
7802572250,0.00131226,0.00740051,-1.00602722,0.305176,0.000000,-0.061035
7807543416,0.00128174,0.00764465,-1.00633240,0.427246,0.183105,-0.061035
7812544416,0.00128174,0.00798035,-1.00674438,0.366211,0.000000,-0.061035
7817535208,0.00085449,0.00849915,-1.00674438,0.305176,0.061035,-0.244141
7822546791,0.00039673,0.00889587,-1.00627136,0.305176,0.061035,-0.122070
7827576333,0.00057983,0.00869751,-1.00596619,0.366211,0.061035,0.000000
7832539291,0.00108337,0.00843811,-1.00625610,0.366211,0.122070,0.061035
7837540250,0.00137329,0.00869751,-1.00677490,0.305176,0.000000,-0.061035
7842543916,0.00149536,0.00932312,-1.00709534,0.305176,0.061035,-0.061035
7847553625,0.00137329,0.00956726,-1.00688171,0.366211,0.061035,-0.061035
7852553708,0.00109863,0.00900269,-1.00619507,0.427246,0.000000,0.000000
7857596250,0.00105286,0.00811768,-1.00569153,0.305176,0.000000,0.000000
7862565541,0.00152588,0.00753784,-1.00582886,0.549316,0.061035,-0.122070
7867548083,0.00230408,0.00737000,-1.00646973,0.366211,-0.061035,-0.061035
7872545041,0.00288391,0.00753784,-1.00704956,0.183105,0.061035,0.000000
7877549041,0.00294495,0.00773621,-1.00721741,0.366211,0.183105,-0.061035
7882567083,0.00262451,0.00758362,-1.00709534,0.488281,0.061035,-0.122070
7887592333,0.00234985,0.00712585,-1.00665283,0.305176,0.061035,-0.061035
7892557083,0.00212097,0.00682068,-1.00607300,0.305176,0.122070,-0.122070
7897568000,0.00192261,0.00694275,-1.00592041,0.549316,0.305176,-0.061035
7902561916,0.00177002,0.00718689,-1.00639343,0.549316,-0.122070,-0.122070
7907560750,0.00190735,0.00723267,-1.00672913,-0.061035,0.061035,0.000000
7912547666,0.00242615,0.00749207,-1.00492859,0.671387,0.183105,-0.183105
7917550541,0.00312805,0.00813293,-1.00248718,0.305176,-0.183105,-0.122070
7922596000,0.00321960,0.00859070,-1.00895691,0.061035,0.244141,-0.061035
7927559416,0.00297546,0.00820923,-1.01092529,0.549316,0.000000,-0.061035
7932555666,0.00331116,0.00726318,-1.00289917,0.305176,-0.061035,-0.122070
7937544583,0.00344849,0.00659180,-1.00631714,0.305176,0.244141,-0.122070
7942537458,0.00325012,0.00622559,-1.00866699,0.427246,0.061035,-0.122070
7947551625,0.00321960,0.00613403,-1.00334167,0.305176,0.000000,-0.122070
7952567958,0.00294495,0.00625610,-1.00460815,0.305176,0.000000,-0.122070
7957611791,0.00254822,0.00634766,-1.00787354,0.244141,0.061035,-0.122070
7962577625,0.00218201,0.00645447,-1.00753784,0.244141,0.000000,-0.122070
7967568041,0.00149536,0.00706482,-1.00765991,0.366211,0.061035,-0.061035
7972559500,0.00050354,0.00808716,-1.00813293,0.305176,0.244141,-0.122070
7977560833,-0.00025940,0.00845337,-1.00752258,0.488281,0.122070,-0.061035
7982552083,-0.00036621,0.00816345,-1.00592041,0.305176,-0.061035,-0.122070
7987578416,-0.00022888,0.00831604,-1.00482178,0.427246,0.000000,-0.122070
7992570166,-0.00032043,0.00904846,-1.00601196,0.244141,-0.061035,-0.122070
7997597416,-0.00047302,0.00967407,-1.00764465,0.305176,-0.061035,0.061035
8002554833,-0.00051880,0.00985718,-1.00767517,0.244141,0.122070,0.000000
8007567958,-0.00042725,0.00979614,-1.00698853,0.305176,0.061035,-0.061035
8012554916,-0.00004578,0.00973511,-1.00582886,0.427246,0.000000,-0.122070
8017580916,0.00062561,0.00971985,-1.00509644,0.366211,0.000000,-0.122070
8022576958,0.00125122,0.00958252,-1.00555420,0.244141,0.061035,-0.122070
8027590375,0.00138855,0.00914001,-1.00663757,0.366211,0.061035,0.061035
8032566208,0.00114441,0.00849915,-1.00749207,0.366211,0.122070,0.000000
8037566166,0.00096130,0.00746155,-1.00727844,0.427246,0.183105,0.061035
8042557416,0.00125122,0.00595093,-1.00633240,0.366211,0.000000,-0.122070
8047579958,0.00207520,0.00476074,-1.00559998,0.366211,0.061035,-0.122070
8052604500,0.00306702,0.00445557,-1.00524902,0.244141,0.122070,-0.061035
8057601375,0.00373840,0.00431824,-1.00561523,0.305176,0.122070,-0.122070
8062539916,0.00407410,0.00402832,-1.00634766,0.305176,0.000000,-0.122070
8067569375,0.00415039,0.00386047,-1.00640869,0.366211,0.000000,-0.061035
8072572125,0.00415039,0.00399780,-1.00587463,0.244141,0.000000,-0.061035
8077564000,0.00392151,0.00442505,-1.00572205,0.305176,0.000000,-0.244141
8082603583,0.00363159,0.00480652,-1.00604248,0.427246,0.122070,-0.122070
8087613333,0.00343323,0.00497437,-1.00624084,0.427246,0.122070,-0.183105
8092588083,0.00311279,0.00517273,-1.00611877,0.244141,0.122070,-0.122070
8097576541,0.00279236,0.00575256,-1.00617981,0.244141,0.061035,-0.183105
8102566500,0.00239563,0.00651550,-1.00622559,0.366211,0.183105,-0.061035
8107569541,0.00204468,0.00703430,-1.00585938,0.305176,0.061035,0.061035
8112621208,0.00196838,0.00756836,-1.00559998,0.305176,0.061035,0.000000
8117618750,0.00170898,0.00830078,-1.00585938,0.427246,0.061035,-0.061035
8122598750,0.00080872,0.00888062,-1.00642395,0.488281,0.000000,-0.122070
8127606833,-0.00012207,0.00947571,-1.00677490,0.366211,0.244141,-0.122070
8132556833,-0.00016785,0.01022339,-1.00675964,0.427246,0.061035,-0.244141
8137570416,0.00041199,0.01066589,-1.00663757,0.366211,0.122070,-0.122070
8142549625,0.00053406,0.01054382,-1.00636292,0.244141,0.122070,-0.061035
8147583083,0.00019836,0.01045227,-1.00614929,0.305176,-0.061035,-0.122070
8152567166,0.00030518,0.01060486,-1.00642395,0.244141,0.000000,0.000000
8157594625,0.00079346,0.01062012,-1.00694275,0.366211,0.061035,-0.061035
8162575250,0.00114441,0.01013184,-1.00712585,0.244141,0.000000,-0.122070
8167579000,0.00137329,0.00946045,-1.00634766,0.305176,-0.061035,-0.061035
8172570833,0.00155640,0.00915527,-1.00521851,0.366211,0.061035,-0.061035
