timestamp_ns,accel_x,accel_y,accel_z,gyro_x,gyro_y,gyro_z
63260666,0.00178528,0.00758362,-1.00611877,0.305176,0.000000,-0.061035
70875333,0.00201416,0.00794983,-1.00650024,0.366211,0.061035,-0.061035
73194583,0.00234985,0.00765991,-1.00683594,0.244141,0.000000,-0.122070
78106041,0.00250244,0.00715637,-1.00697327,0.305176,0.122070,0.000000
83486000,0.00250244,0.00686646,-1.00672913,0.305176,0.000000,-0.061035
88087291,0.00262451,0.00701904,-1.00741577,0.244141,0.061035,-0.122070
95104750,0.00279236,0.00727844,-1.00834656,0.244141,0.122070,0.000000
98079208,0.00260925,0.00727844,-1.00747681,0.244141,0.061035,-0.122070
106064458,0.00238037,0.00706482,-1.00579834,0.244141,0.061035,-0.061035
108712208,0.00280762,0.00706482,-1.00584412,0.427246,0.061035,0.000000
119163250,0.00331116,0.00720215,-1.00744629,0.305176,0.061035,-0.061035
119186125,0.00265503,0.00714111,-1.00862122,0.366211,0.122070,-0.122070
124657541,0.00141907,0.00712585,-1.00839233,0.244141,0.122070,-0.183105
128665083,0.00073242,0.00717163,-1.00677490,0.183105,0.122070,-0.061035
133058250,0.00057983,0.00720215,-1.00512695,0.427246,0.000000,0.000000
139094375,0.00070190,0.00743103,-1.00532532,0.427246,0.183105,0.061035
143415125,0.00099182,0.00738525,-1.00689697,0.366211,0.061035,0.000000
148821541,0.00126648,0.00689697,-1.00767517,0.305176,0.000000,-0.061035
154311458,0.00117493,0.00682068,-1.00698853,0.122070,0.061035,-0.061035
159298000,0.00079346,0.00715637,-1.00621033,0.427246,0.122070,-0.061035
163684958,0.00076294,0.00743103,-1.00643921,0.305176,0.061035,-0.122070
168074208,0.00129700,0.00770569,-1.00717163,0.427246,0.122070,-0.122070
173521000,0.00175476,0.00784302,-1.00762939,0.427246,0.122070,-0.061035
178089458,0.00184631,0.00746155,-1.00718689,0.366211,0.183105,-0.122070
183053375,0.00215149,0.00732422,-1.00628662,0.305176,0.000000,-0.122070
188093458,0.00263977,0.00782776,-1.00625610,0.183105,0.000000,-0.122070
193017166,0.00283813,0.00805664,-1.00679016,0.305176,0.122070,-0.061035
198095166,0.00299072,0.00755310,-1.00651550,0.305176,0.000000,-0.061035
203080750,0.00317383,0.00695801,-1.00581360,0.305176,0.122070,-0.122070
208122500,0.00306702,0.00682068,-1.00596619,0.366211,0.122070,-0.061035
213089708,0.00288391,0.00697327,-1.00659180,0.488281,0.122070,-0.061035
218104708,0.00280762,0.00733948,-1.00677490,0.366211,0.061035,-0.122070
223078166,0.00263977,0.00753784,-1.00656128,0.305176,0.061035,-0.061035
228150041,0.00231934,0.00729370,-1.00619507,0.305176,0.061035,0.000000
233102958,0.00205994,0.00697327,-1.00596619,0.366211,0.061035,-0.122070
238112208,0.00199890,0.00700378,-1.00636292,0.305176,0.061035,-0.122070
243092375,0.00157166,0.00711060,-1.00714111,0.244141,0.122070,0.000000
248121541,0.00099182,0.00697327,-1.00708008,0.427246,0.061035,-0.061035
253108083,0.00096130,0.00691223,-1.00628662,0.366211,0.183105,-0.061035
258124166,0.00109863,0.00704956,-1.00593567,0.366211,0.183105,0.000000
263106666,0.00085449,0.00711060,-1.00634766,0.305176,0.122070,-0.122070
268116041,0.00032043,0.00720215,-1.00679016,0.244141,0.122070,-0.122070
273107083,0.00010681,0.00743103,-1.00675964,0.244141,-0.061035,-0.183105
278105125,0.00067139,0.00747681,-1.00668335,0.488281,0.122070,-0.061035
283109208,0.00166321,0.00741577,-1.00686646,0.488281,0.122070,-0.122070
288104833,0.00251770,0.00752258,-1.00701904,0.305176,0.000000,-0.061035
293077250,0.00280762,0.00756836,-1.00685120,0.305176,0.061035,-0.061035
298116458,0.00282288,0.00732422,-1.00654602,0.366211,0.061035,-0.061035
303083666,0.00294495,0.00703430,-1.00617981,0.366211,0.061035,-0.183105
308112791,0.00286865,0.00721741,-1.00588989,0.366211,0.061035,0.000000
313090125,0.00259399,0.00782776,-1.00588989,0.427246,-0.061035,-0.061035
318113708,0.00260925,0.00810242,-1.00628662,0.366211,0.122070,-0.122070
323085916,0.00273132,0.00773621,-1.00692749,0.366211,0.122070,-0.122070
328114583,0.00227356,0.00730896,-1.00729370,0.610352,0.061035,-0.061035
333092583,0.00158691,0.00721741,-1.00732422,0.427246,0.061035,0.000000
338115416,0.00119019,0.00723267,-1.00727844,0.427246,0.061035,-0.183105
343098125,0.00100708,0.00697327,-1.00694275,0.366211,0.000000,-0.183105
348121416,0.00102234,0.00668335,-1.00662231,0.427246,0.122070,-0.122070
353097375,0.00097656,0.00697327,-1.00640869,0.244141,-0.122070,-0.122070
358121208,0.00080872,0.00740051,-1.00608826,0.305176,0.061035,-0.122070
363098666,0.00100708,0.00729370,-1.00584412,0.427246,0.061035,-0.183105
368116041,0.00120544,0.00706482,-1.00596619,0.244141,-0.061035,-0.183105
373188541,0.00083923,0.00724792,-1.00639343,0.366211,0.122070,-0.122070
378160791,0.00070190,0.00750732,-1.00686646,0.244141,0.122070,-0.122070
383203791,0.00131226,0.00764465,-1.00706482,0.305176,0.061035,-0.122070
388158333,0.00199890,0.00784302,-1.00695801,0.488281,0.061035,-0.183105
393173583,0.00205994,0.00820923,-1.00672913,0.244141,0.000000,0.000000
398113125,0.00187683,0.00845337,-1.00631714,0.366211,0.061035,-0.122070
403095625,0.00177002,0.00843811,-1.00613403,0.366211,0.122070,-0.122070
408111916,0.00163269,0.00825500,-1.00659180,0.549316,0.183105,-0.061035
413125625,0.00177002,0.00794983,-1.00714111,0.427246,0.061035,0.061035
418114416,0.00225830,0.00776672,-1.00729370,0.366211,0.061035,0.000000
423169250,0.00238037,0.00765991,-1.00743103,0.366211,0.122070,-0.061035
428152791,0.00204468,0.00755310,-1.00747681,0.488281,0.122070,-0.061035
433175791,0.00163269,0.00762939,-1.00724792,0.366211,0.000000,-0.244141
438159625,0.00137329,0.00779724,-1.00695801,0.244141,0.122070,-0.183105
443173208,0.00129700,0.00802612,-1.00666809,0.366211,0.000000,-0.122070
448153958,0.00149536,0.00810242,-1.00625610,0.427246,0.122070,-0.122070
453180208,0.00181580,0.00773621,-1.00622559,0.305176,0.061035,-0.122070
458537916,0.00193787,0.00738525,-1.00680542,0.366211,0.000000,-0.061035
463223500,0.00187683,0.00756836,-1.00715637,0.305176,0.061035,-0.061035
468181625,0.00158691,0.00785828,-1.00686646,0.122070,0.061035,-0.061035
473167833,0.00134277,0.00747681,-1.00643921,0.305176,0.061035,-0.122070
478224041,0.00117493,0.00686646,-1.00613403,0.366211,0.061035,-0.183105
483208875,0.00100708,0.00675964,-1.00624084,0.366211,0.061035,-0.183105
488567125,0.00117493,0.00706482,-1.00691223,0.488281,0.122070,-0.061035
493328625,0.00163269,0.00714111,-1.00759888,0.366211,0.061035,-0.061035
498175541,0.00181580,0.00689697,-1.00750732,0.305176,0.122070,-0.061035
503195583,0.00190735,0.00682068,-1.00672913,0.427246,0.061035,0.000000
508420041,0.00231934,0.00703430,-1.00590515,0.305176,0.000000,0.000000
513216375,0.00242615,0.00709534,-1.00563049,0.305176,0.122070,0.000000
518207791,0.00190735,0.00718689,-1.00584412,0.366211,0.061035,-0.061035
523179875,0.00152588,0.00755310,-1.00622559,0.244141,0.061035,-0.061035
528200416,0.00170898,0.00782776,-1.00642395,0.305176,0.183105,-0.122070
533135041,0.00187683,0.00776672,-1.00659180,0.305176,0.000000,-0.122070
538151125,0.00184631,0.00749207,-1.00682068,0.488281,0.122070,-0.061035
543195916,0.00178528,0.00747681,-1.00651550,0.366211,0.061035,0.000000
548153291,0.00175476,0.00787354,-1.00588989,0.427246,0.122070,0.061035
553259083,0.00184631,0.00799561,-1.00605774,0.366211,0.061035,-0.061035
558235041,0.00202942,0.00752258,-1.00692749,0.427246,0.183105,0.000000
563172041,0.00228882,0.00686646,-1.00746155,0.366211,0.061035,-0.061035
568202666,0.00245667,0.00660706,-1.00741577,0.244141,-0.061035,-0.122070
573166250,0.00245667,0.00711060,-1.00714111,0.366211,0.122070,-0.122070
578282541,0.00224304,0.00793457,-1.00688171,0.305176,0.000000,-0.122070
583153000,0.00177002,0.00839233,-1.00634766,0.366211,0.122070,-0.122070
588142125,0.00137329,0.00840759,-1.00582886,0.305176,0.061035,-0.061035
593204875,0.00125122,0.00843811,-1.00607300,0.427246,0.122070,-0.122070
598151166,0.00146484,0.00852966,-1.00668335,0.427246,0.122070,-0.122070
603128250,0.00181580,0.00828552,-1.00689697,0.244141,0.061035,-0.061035
608193583,0.00204468,0.00794983,-1.00653076,0.427246,0.061035,-0.122070
613207583,0.00202942,0.00756836,-1.00605774,0.305176,-0.061035,-0.122070
618196291,0.00184631,0.00689697,-1.00601196,0.183105,-0.061035,-0.122070
623208083,0.00146484,0.00633240,-1.00637817,0.183105,0.000000,-0.183105
628183000,0.00114441,0.00616455,-1.00683594,0.305176,-0.061035,-0.122070
633133166,0.00144958,0.00613403,-1.00672913,0.366211,0.122070,-0.122070
638139583,0.00199890,0.00630188,-1.00610352,0.305176,0.122070,0.000000
643173000,0.00205994,0.00672913,-1.00582886,0.244141,0.061035,-0.061035
648139958,0.00213623,0.00718689,-1.00643921,0.366211,0.000000,-0.244141
653127541,0.00268555,0.00737000,-1.00708008,0.366211,0.183105,-0.061035
658171625,0.00302124,0.00724792,-1.00691223,0.244141,0.061035,-0.061035
663140625,0.00276184,0.00718689,-1.00640869,0.244141,0.061035,0.061035
668130833,0.00234985,0.00744629,-1.00607300,0.427246,0.122070,-0.183105
673140791,0.00199890,0.00749207,-1.00610352,0.427246,0.000000,-0.061035
678148041,0.00193787,0.00723267,-1.00663757,0.305176,0.000000,-0.122070
683215875,0.00241089,0.00740051,-1.00711060,0.244141,0.122070,-0.122070
688159000,0.00271606,0.00819397,-1.00706482,0.244141,0.000000,-0.061035
693202583,0.00238037,0.00889587,-1.00675964,0.305176,0.061035,-0.244141
698152458,0.00204468,0.00898743,-1.00642395,0.183105,0.000000,-0.183105
703144833,0.00218201,0.00869751,-1.00622559,0.122070,0.122070,-0.061035
708245750,0.00233459,0.00816345,-1.00608826,0.244141,0.122070,-0.122070
713171375,0.00184631,0.00764465,-1.00604248,0.366211,0.061035,-0.183105
718149083,0.00076294,0.00765991,-1.00601196,0.427246,0.061035,-0.061035
723200250,0.00015259,0.00801086,-1.00595093,0.366211,0.000000,-0.061035
728154583,0.00047302,0.00807190,-1.00616455,0.183105,0.061035,-0.061035
733139041,0.00108337,0.00794983,-1.00662231,0.183105,0.122070,-0.122070
738166000,0.00140381,0.00794983,-1.00692749,0.122070,0.061035,-0.122070
743205958,0.00126648,0.00794983,-1.00704956,0.183105,0.122070,-0.122070
748169708,0.00108337,0.00804138,-1.00721741,0.244141,0.061035,0.000000
753134666,0.00109863,0.00805664,-1.00732422,0.366211,0.122070,0.000000
758140291,0.00112915,0.00788879,-1.00700378,0.244141,0.122070,-0.122070
763118875,0.00134277,0.00776672,-1.00650024,0.122070,0.061035,0.000000
768155958,0.00193787,0.00776672,-1.00628662,0.427246,0.061035,-0.061035
773176625,0.00263977,0.00779724,-1.00627136,0.305176,0.183105,-0.183105
778169458,0.00289917,0.00767517,-1.00628662,0.305176,0.061035,-0.122070
783137041,0.00270081,0.00727844,-1.00672913,0.183105,0.000000,-0.122070
788208541,0.00262451,0.00704956,-1.00720215,0.183105,0.000000,-0.122070
793143250,0.00280762,0.00724792,-1.00695801,0.305176,0.000000,0.061035
798161750,0.00294495,0.00711060,-1.00648499,0.183105,0.000000,-0.122070
803146333,0.00296021,0.00656128,-1.00653076,0.244141,0.183105,-0.122070
808160000,0.00291443,0.00628662,-1.00711060,0.366211,0.061035,-0.122070
813162208,0.00273132,0.00665283,-1.00781250,0.244141,0.244141,-0.061035
818166416,0.00201416,0.00741577,-1.00791931,0.305176,0.061035,-0.061035
823156250,0.00135803,0.00778198,-1.00712585,0.305176,0.122070,0.000000
828157750,0.00144958,0.00761414,-1.00602722,0.183105,0.061035,0.000000
833134083,0.00201416,0.00758362,-1.00544739,0.366211,0.122070,-0.122070
838169875,0.00251770,0.00784302,-1.00596619,0.244141,0.122070,-0.183105
843152708,0.00250244,0.00775146,-1.00712585,0.061035,0.183105,0.061035
848153416,0.00195312,0.00749207,-1.00779724,0.244141,0.000000,-0.061035
853145791,0.00148010,0.00762939,-1.00752258,0.244141,0.122070,-0.061035
858591625,0.00149536,0.00808716,-1.00677490,0.244141,0.122070,-0.183105
863350166,0.00205994,0.00857544,-1.00622559,0.305176,0.183105,-0.061035
868331916,0.00253296,0.00878906,-1.00633240,0.305176,0.061035,0.000000
873165458,0.00244141,0.00842285,-1.00674438,0.305176,0.183105,-0.061035
878242000,0.00218201,0.00769043,-1.00706482,0.122070,0.061035,-0.061035
883173416,0.00204468,0.00724792,-1.00733948,0.183105,0.000000,-0.122070
888404791,0.00204468,0.00733948,-1.00744629,0.305176,0.122070,-0.122070
893328250,0.00209045,0.00767517,-1.00720215,0.366211,0.000000,0.000000
898145583,0.00186157,0.00790405,-1.00686646,0.305176,0.000000,-0.122070
903220500,0.00166321,0.00808716,-1.00665283,0.183105,0.183105,-0.061035
908346875,0.00178528,0.00811768,-1.00643921,0.305176,0.061035,-0.244141
913215833,0.00218201,0.00772095,-1.00614929,0.366211,0.000000,0.000000
918186000,0.00256348,0.00692749,-1.00588989,0.183105,0.000000,0.000000
923182666,0.00236511,0.00617981,-1.00582886,0.305176,0.000000,-0.122070
928288625,0.00172424,0.00624084,-1.00625610,0.244141,0.061035,0.000000
933191208,0.00137329,0.00717163,-1.00695801,0.305176,0.061035,-0.061035
938180125,0.00146484,0.00813293,-1.00704956,0.427246,0.122070,0.000000
943203250,0.00178528,0.00845337,-1.00621033,0.366211,0.061035,-0.122070
948196333,0.00198364,0.00825500,-1.00534058,0.305176,0.061035,-0.183105
953180958,0.00198364,0.00772095,-1.00517273,0.244141,0.061035,-0.244141
958192000,0.00192261,0.00744629,-1.00553894,0.366211,0.061035,-0.183105
963162875,0.00173950,0.00802612,-1.00625610,0.305176,0.122070,-0.061035
968176125,0.00152588,0.00894165,-1.00718689,0.122070,0.061035,-0.183105
973155083,0.00151062,0.00921631,-1.00799561,0.183105,0.000000,-0.061035
978211791,0.00134277,0.00878906,-1.00807190,0.366211,0.061035,-0.122070
983150125,0.00088501,0.00830078,-1.00746155,0.183105,0.183105,0.000000
988173333,0.00096130,0.00819397,-1.00682068,0.427246,0.000000,0.000000
993248250,0.00186157,0.00839233,-1.00666809,0.305176,0.000000,-0.122070
998173250,0.00213623,0.00874329,-1.00714111,0.305176,0.122070,-0.122070
1003160708,0.00141907,0.00910950,-1.00778198,0.183105,0.000000,-0.061035
1008176791,0.00132751,0.00918579,-1.00769043,0.244141,0.061035,-0.122070
1013149958,0.00216675,0.00851440,-1.00669861,0.305176,0.122070,-0.122070
1018163791,0.00262451,0.00761414,-1.00598145,0.366211,0.061035,-0.183105
1023151041,0.00231934,0.00743103,-1.00654602,0.427246,0.122070,0.061035
1028175541,0.00195312,0.00801086,-1.00773621,0.183105,0.183105,-0.122070
1033176791,0.00199890,0.00839233,-1.00811768,0.366211,0.183105,-0.061035
1038174458,0.00236511,0.00799561,-1.00724792,0.305176,0.183105,-0.061035
1043186583,0.00273132,0.00741577,-1.00674438,0.366211,0.183105,0.000000
1048181875,0.00279236,0.00730896,-1.00706482,0.244141,0.061035,-0.061035
1053143666,0.00244141,0.00733948,-1.00695801,0.427246,0.061035,-0.061035
1058194000,0.00218201,0.00697327,-1.00621033,0.305176,0.061035,-0.122070
1063174000,0.00253296,0.00674438,-1.00596619,0.244141,0.061035,-0.122070
1068195083,0.00271606,0.00711060,-1.00665283,0.305176,-0.122070,-0.122070
1073168583,0.00212097,0.00743103,-1.00701904,0.488281,0.061035,-0.122070
1078198791,0.00177002,0.00753784,-1.00651550,0.305176,-0.061035,-0.183105
1083174125,0.00218201,0.00782776,-1.00576782,0.305176,0.183105,-0.183105
1088179208,0.00230408,0.00813293,-1.00564575,0.244141,0.000000,-0.061035
1093214833,0.00161743,0.00802612,-1.00625610,0.305176,0.061035,-0.122070
1098241625,0.00096130,0.00772095,-1.00672913,0.244141,0.061035,0.000000
1103188250,0.00082397,0.00773621,-1.00679016,0.366211,0.061035,-0.061035
1108234750,0.00093079,0.00817871,-1.00675964,0.122070,0.061035,0.000000
1113166416,0.00100708,0.00833130,-1.00657654,0.427246,0.122070,0.000000
1118193958,0.00111389,0.00793457,-1.00621033,0.366211,0.061035,-0.061035
1123175833,0.00131226,0.00764465,-1.00610352,0.305176,0.061035,-0.183105
1128188458,0.00141907,0.00799561,-1.00642395,0.305176,0.000000,-0.061035
1133171875,0.00146484,0.00859070,-1.00650024,0.305176,0.000000,0.000000
1138212833,0.00161743,0.00886536,-1.00619507,0.305176,0.000000,-0.122070
1143181041,0.00213623,0.00877380,-1.00624084,0.305176,-0.122070,-0.061035
1148182583,0.00294495,0.00839233,-1.00671387,0.366211,0.000000,0.000000
1153176000,0.00346375,0.00810242,-1.00711060,0.244141,0.122070,-0.061035
1158174958,0.00338745,0.00814819,-1.00695801,0.366211,0.000000,-0.122070
1163201083,0.00314331,0.00828552,-1.00677490,0.305176,-0.061035,-0.061035
1168218666,0.00318909,0.00831604,-1.00701904,0.427246,0.000000,-0.061035
1173207500,0.00337219,0.00828552,-1.00715637,0.366211,0.183105,-0.061035
1178182875,0.00328064,0.00822449,-1.00665283,0.610352,0.061035,-0.122070
1183164083,0.00282288,0.00796509,-1.00593567,0.488281,0.061035,-0.061035
1188194958,0.00230408,0.00744629,-1.00596619,0.488281,0.000000,-0.061035
1193176541,0.00180054,0.00688171,-1.00668335,0.366211,0.244141,-0.122070
1198182000,0.00114441,0.00682068,-1.00694275,0.488281,0.061035,-0.183105
1203201500,0.00059509,0.00730896,-1.00665283,0.366211,0.122070,-0.122070
1208253708,0.00067139,0.00762939,-1.00639343,0.366211,-0.061035,-0.122070
1213190583,0.00132751,0.00779724,-1.00622559,0.366211,0.061035,0.000000
1218176125,0.00193787,0.00784302,-1.00592041,0.366211,0.122070,0.000000
1223191208,0.00234985,0.00759888,-1.00604248,0.305176,0.061035,-0.061035
1228194583,0.00265503,0.00750732,-1.00686646,0.305176,-0.061035,-0.183105
1233171666,0.00260925,0.00776672,-1.00820923,0.244141,0.061035,-0.183105
1238191166,0.00227356,0.00817871,-1.00958252,0.305176,-0.122070,-0.122070
1243188000,0.00193787,0.00843811,-1.00971985,0.244141,0.000000,-0.061035
1248196833,0.00161743,0.00843811,-1.00862122,0.244141,0.000000,0.000000
1253166500,0.00109863,0.00830078,-1.00723267,0.183105,-0.061035,-0.061035
1258192458,0.00076294,0.00802612,-1.00596619,0.305176,0.000000,-0.061035
1263168291,0.00112915,0.00761414,-1.00512695,0.427246,0.061035,-0.122070
1268184500,0.00175476,0.00752258,-1.00491333,0.244141,0.000000,-0.244141
1273235416,0.00204468,0.00750732,-1.00555420,0.366211,0.061035,-0.122070
1278185083,0.00213623,0.00703430,-1.00660706,0.427246,0.061035,-0.122070
1283167541,0.00256348,0.00642395,-1.00683594,0.305176,0.061035,-0.061035
1288213208,0.00317383,0.00602722,-1.00627136,0.305176,0.000000,-0.244141
1293218000,0.00335693,0.00599670,-1.00601196,0.366211,0.061035,-0.305176
1298219833,0.00309753,0.00656128,-1.00631714,0.549316,0.000000,-0.122070
1303200208,0.00297546,0.00715637,-1.00672913,0.366211,0.061035,0.000000
1308199750,0.00309753,0.00700378,-1.00688171,0.610352,0.122070,-0.122070
1313183333,0.00273132,0.00651550,-1.00694275,0.671387,0.305176,-0.183105
1318197250,0.00170898,0.00650024,-1.00697327,0.610352,0.122070,-0.183105
1323273791,0.00097656,0.00709534,-1.00633240,0.610352,0.000000,-0.122070
1328247125,0.00103760,0.00787354,-1.00538635,0.610352,0.122070,0.000000
1333208791,0.00111389,0.00823975,-1.00526428,0.671387,0.122070,-0.061035
1338248500,0.00082397,0.00808716,-1.00572205,0.549316,-0.061035,-0.122070
1343202083,0.00070190,0.00814819,-1.00611877,0.366211,0.000000,-0.183105
1348212250,0.00071716,0.00875854,-1.00654602,0.610352,0.000000,-0.122070
1353184541,0.00041199,0.00920105,-1.00717163,0.671387,0.122070,-0.122070
1358266250,0.00016785,0.00914001,-1.00738525,0.549316,-0.061035,-0.061035
1363198125,0.00064087,0.00935364,-1.00697327,0.427246,0.183105,-0.122070
1368212916,0.00154114,0.01002502,-1.00679016,0.549316,0.183105,-0.122070
1373182375,0.00196838,0.01057434,-1.00791931,0.488281,0.122070,-0.061035
1378191500,0.00183105,0.01054382,-1.00933838,0.427246,0.000000,-0.061035
1383184333,0.00187683,0.00964355,-1.00912476,0.305176,0.122070,0.000000
1388196833,0.00238037,0.00814819,-1.00764465,0.427246,0.061035,-0.122070
1393212166,0.00305176,0.00695801,-1.00642395,0.488281,0.061035,-0.061035
1398225000,0.00363159,0.00660706,-1.00585938,0.366211,0.183105,-0.122070
1403202500,0.00372314,0.00662231,-1.00552368,0.427246,0.244141,0.000000
1408247041,0.00344849,0.00637817,-1.00547791,0.488281,0.000000,-0.122070
1413199958,0.00350952,0.00605774,-1.00588989,0.488281,-0.061035,-0.183105
1418216291,0.00384521,0.00604248,-1.00627136,0.366211,0.244141,-0.183105
1423191958,0.00413513,0.00604248,-1.00614929,0.427246,0.000000,-0.183105
1428264708,0.00448608,0.00590515,-1.00579834,0.427246,0.000000,-0.061035
1433205833,0.00497437,0.00588989,-1.00579834,0.549316,0.061035,-0.122070
1438241666,0.00509644,0.00601196,-1.00621033,0.427246,0.061035,-0.122070
1443191500,0.00407410,0.00631714,-1.00650024,0.488281,0.061035,-0.122070
1448210375,0.00247192,0.00671387,-1.00651550,0.427246,0.000000,-0.061035
1453181875,0.00196838,0.00700378,-1.00660706,0.488281,0.061035,-0.122070
1458202541,0.00247192,0.00740051,-1.00662231,0.488281,0.061035,-0.122070
1463223375,0.00259399,0.00788879,-1.00634766,0.366211,0.061035,-0.183105
1468252166,0.00210571,0.00856018,-1.00634766,0.427246,0.122070,-0.061035
1473197166,0.00140381,0.00917053,-1.00706482,0.427246,0.000000,-0.061035
1478213250,0.00065613,0.00912476,-1.00801086,0.305176,-0.061035,-0.122070
1483191875,0.00007629,0.00857544,-1.00828552,0.305176,0.000000,-0.061035
1488238875,-0.00024414,0.00827026,-1.00781250,0.366211,0.000000,-0.183105
1493266291,-0.00051880,0.00845337,-1.00750732,0.427246,0.122070,-0.183105
1498229166,-0.00056458,0.00865173,-1.00787354,0.366211,-0.061035,-0.244141
1503177666,-0.00019836,0.00840759,-1.00817871,0.427246,0.122070,-0.061035
1508454000,0.00048828,0.00790405,-1.00759888,0.549316,0.061035,0.000000
1513242166,0.00115967,0.00747681,-1.00668335,0.427246,0.183105,-0.122070
1518215083,0.00138855,0.00733948,-1.00656128,0.427246,0.061035,-0.061035
1523331083,0.00100708,0.00732422,-1.00706482,0.427246,0.000000,0.000000
1528239458,0.00053406,0.00691223,-1.00743103,0.427246,0.061035,-0.122070
1533218375,0.00053406,0.00631714,-1.00755310,0.488281,0.061035,-0.122070
1538218458,0.00103760,0.00627136,-1.00764465,0.488281,0.000000,-0.122070
1543230916,0.00146484,0.00645447,-1.00750732,0.488281,0.061035,0.061035
1548208208,0.00167847,0.00621033,-1.00709534,0.488281,0.061035,-0.122070
1553208208,0.00244141,0.00576782,-1.00628662,0.488281,0.061035,-0.122070
1558219500,0.00369263,0.00585938,-1.00523376,0.488281,0.183105,-0.061035
1563194416,0.00404358,0.00642395,-1.00531006,0.427246,0.000000,-0.061035
1568296125,0.00317383,0.00683594,-1.00654602,0.427246,0.061035,0.000000
1573230166,0.00231934,0.00695801,-1.00740051,0.427246,0.000000,-0.122070
1578232958,0.00215149,0.00695801,-1.00746155,0.427246,0.122070,-0.183105
1583206583,0.00225830,0.00692749,-1.00711060,0.366211,0.122070,-0.122070
1588223625,0.00244141,0.00688171,-1.00656128,0.488281,0.061035,-0.122070
1593210666,0.00263977,0.00672913,-1.00598145,0.488281,-0.061035,-0.122070
1598232083,0.00250244,0.00622559,-1.00558472,0.427246,0.061035,-0.122070
1603206333,0.00196838,0.00553894,-1.00555420,0.488281,0.122070,-0.183105
1608254541,0.00158691,0.00523376,-1.00645447,0.427246,0.000000,-0.183105
1613197541,0.00178528,0.00582886,-1.00839233,0.366211,0.000000,-0.244141
1618227833,0.00224304,0.00654602,-1.00900269,0.488281,0.061035,-0.122070
1623225458,0.00238037,0.00645447,-1.00701904,0.366211,0.122070,-0.183105
1628255791,0.00228882,0.00596619,-1.00506592,0.305176,0.183105,-0.183105
1633245000,0.00215149,0.00575256,-1.00569153,0.305176,0.122070,-0.061035
1638227958,0.00181580,0.00582886,-1.00778198,0.427246,0.244141,-0.183105
1643201625,0.00178528,0.00617981,-1.00877380,0.366211,0.122070,-0.122070
1648226333,0.00202942,0.00691223,-1.00833130,0.244141,-0.061035,-0.244141
1653214166,0.00190735,0.00758362,-1.00770569,0.549316,0.122070,-0.122070
1658225291,0.00154114,0.00772095,-1.00695801,0.366211,0.061035,-0.061035
1663242125,0.00138855,0.00781250,-1.00584412,0.427246,0.122070,-0.122070
1668265416,0.00141907,0.00820923,-1.00509644,0.366211,0.122070,-0.061035
1673293208,0.00152588,0.00865173,-1.00576782,0.427246,0.000000,-0.061035
1678237000,0.00181580,0.00883484,-1.00737000,0.427246,0.122070,0.000000
1683207333,0.00225830,0.00880432,-1.00820923,0.366211,0.061035,0.061035
1688247416,0.00245667,0.00851440,-1.00770569,0.305176,0.061035,-0.061035
1693292583,0.00231934,0.00784302,-1.00654602,0.549316,0.122070,-0.122070
1698287958,0.00216675,0.00720215,-1.00585938,0.427246,0.061035,-0.122070
1703235208,0.00192261,0.00675964,-1.00617981,0.305176,0.183105,-0.061035
1708232791,0.00137329,0.00671387,-1.00692749,0.427246,0.183105,-0.122070
1713218083,0.00106812,0.00717163,-1.00720215,0.366211,0.122070,0.122070
1718246333,0.00111389,0.00738525,-1.00717163,0.305176,0.000000,-0.183105
1723255208,0.00114441,0.00692749,-1.00723267,0.427246,0.122070,0.000000
1728245208,0.00125122,0.00650024,-1.00708008,0.305176,0.183105,-0.061035
1733237916,0.00144958,0.00645447,-1.00642395,0.366211,0.061035,0.000000
1738267291,0.00173950,0.00640869,-1.00595093,0.366211,0.061035,-0.061035
1743267250,0.00216675,0.00614929,-1.00634766,0.244141,0.000000,-0.061035
1748236750,0.00251770,0.00587463,-1.00709534,0.305176,0.061035,-0.183105
1753211916,0.00276184,0.00573730,-1.00740051,0.305176,0.122070,-0.122070
1758241041,0.00291443,0.00561523,-1.00711060,0.244141,0.122070,-0.122070
1763266541,0.00294495,0.00564575,-1.00660706,0.183105,0.122070,-0.183105
1768272166,0.00283813,0.00592041,-1.00633240,0.305176,0.061035,-0.061035
1773243208,0.00260925,0.00648499,-1.00650024,0.244141,0.122070,-0.244141
1778232125,0.00260925,0.00692749,-1.00698853,0.244141,0.061035,-0.061035
1783231500,0.00265503,0.00662231,-1.00721741,0.305176,0.000000,-0.122070
1788249333,0.00234985,0.00601196,-1.00717163,0.427246,0.122070,-0.061035
1793257750,0.00180054,0.00588989,-1.00701904,0.549316,0.061035,-0.122070
1798270666,0.00144958,0.00633240,-1.00674438,0.427246,0.000000,0.000000
1803242166,0.00151062,0.00701904,-1.00668335,0.366211,0.122070,-0.122070
1808248208,0.00161743,0.00759888,-1.00666809,0.427246,0.000000,-0.061035
1813223583,0.00120544,0.00787354,-1.00656128,0.427246,-0.122070,0.000000
1818249833,0.00082397,0.00799561,-1.00682068,0.305176,0.061035,-0.122070
1823214666,0.00122070,0.00817871,-1.00738525,0.305176,0.061035,0.000000
1828317666,0.00181580,0.00822449,-1.00741577,0.183105,0.000000,0.000000
1833238375,0.00178528,0.00775146,-1.00682068,0.305176,-0.061035,-0.183105
1838384916,0.00129700,0.00709534,-1.00648499,0.427246,0.122070,-0.122070
1843223833,0.00114441,0.00683594,-1.00685120,0.305176,0.122070,-0.122070
1848254458,0.00126648,0.00680542,-1.00730896,0.305176,-0.122070,-0.061035
1853229541,0.00154114,0.00663757,-1.00732422,0.244141,-0.061035,-0.061035
1858237708,0.00201416,0.00639343,-1.00685120,0.366211,0.061035,-0.061035
1863223708,0.00257874,0.00625610,-1.00642395,0.305176,0.000000,0.000000
1868288083,0.00291443,0.00601196,-1.00656128,0.427246,0.061035,-0.122070
1873268333,0.00280762,0.00569153,-1.00700378,0.183105,0.061035,-0.122070
1878263750,0.00267029,0.00582886,-1.00685120,0.244141,0.000000,-0.061035
1883313333,0.00291443,0.00630188,-1.00619507,0.244141,0.061035,-0.122070
1888244041,0.00311279,0.00680542,-1.00593567,0.305176,-0.061035,-0.122070
1893229125,0.00312805,0.00709534,-1.00627136,0.366211,0.000000,-0.183105
1898278833,0.00286865,0.00698853,-1.00660706,0.305176,0.000000,-0.122070
1903245708,0.00239563,0.00669861,-1.00672913,0.366211,0.000000,-0.061035
1908258291,0.00172424,0.00656128,-1.00711060,0.244141,0.000000,-0.061035
1913218541,0.00094604,0.00682068,-1.00779724,0.427246,0.061035,-0.183105
1918253125,0.00062561,0.00721741,-1.00805664,0.366211,0.122070,0.000000
1923235833,0.00086975,0.00732422,-1.00738525,0.305176,0.000000,0.061035
1928255916,0.00097656,0.00714111,-1.00627136,0.488281,0.183105,0.061035
1933248541,0.00073242,0.00712585,-1.00550842,0.305176,0.000000,-0.061035
1938254625,0.00051880,0.00744629,-1.00556946,0.366211,0.061035,0.000000
1943249500,0.00059509,0.00782776,-1.00614929,0.305176,0.244141,0.000000
1948262416,0.00108337,0.00811768,-1.00650024,0.244141,0.000000,-0.061035
1953250875,0.00166321,0.00802612,-1.00659180,0.305176,0.061035,-0.122070
1958268541,0.00178528,0.00747681,-1.00668335,0.366211,0.061035,-0.122070
1963259541,0.00166321,0.00724792,-1.00688171,0.244141,0.061035,-0.061035
1968294916,0.00167847,0.00749207,-1.00735474,0.183105,0.183105,0.000000
1973236708,0.00152588,0.00730896,-1.00720215,0.427246,0.000000,-0.122070
1978267041,0.00114441,0.00648499,-1.00622559,0.305176,0.061035,-0.061035
1983225125,0.00111389,0.00598145,-1.00575256,0.305176,0.061035,-0.061035
1988283333,0.00178528,0.00619507,-1.00624084,0.488281,0.061035,-0.061035
1993280375,0.00280762,0.00643921,-1.00669861,0.305176,0.122070,0.000000
1998286750,0.00346375,0.00636292,-1.00677490,0.366211,0.000000,-0.122070
2003287333,0.00355530,0.00598145,-1.00659180,0.427246,0.061035,-0.061035
2008261958,0.00343323,0.00553894,-1.00637817,0.366211,0.122070,-0.183105
2013230083,0.00338745,0.00558472,-1.00636292,0.366211,0.122070,0.000000
2018254333,0.00349426,0.00604248,-1.00657654,0.366211,0.122070,-0.183105
2023243791,0.00370789,0.00619507,-1.00688171,0.183105,-0.061035,-0.122070
2028271208,0.00372314,0.00598145,-1.00679016,0.305176,0.183105,-0.122070
2033270583,0.00364685,0.00582886,-1.00610352,0.305176,0.061035,-0.122070
2038295750,0.00363159,0.00595093,-1.00564575,0.427246,0.244141,-0.122070
2043264750,0.00328064,0.00622559,-1.00608826,0.244141,0.061035,-0.122070
2048263291,0.00263977,0.00640869,-1.00706482,0.366211,0.061035,0.000000
2053243625,0.00201416,0.00671387,-1.00791931,0.366211,0.122070,-0.122070
2058272875,0.00125122,0.00714111,-1.00825500,0.305176,0.122070,-0.061035
2063261458,0.00057983,0.00727844,-1.00765991,0.366211,0.000000,-0.183105
2068285708,0.00041199,0.00704956,-1.00639343,0.305176,-0.061035,-0.122070
2073266125,0.00074768,0.00688171,-1.00570679,0.366211,0.122070,-0.061035
2078286625,0.00138855,0.00698853,-1.00614929,0.366211,0.061035,-0.061035
2083257041,0.00202942,0.00721741,-1.00672913,0.305176,0.000000,-0.061035
2088265833,0.00224304,0.00756836,-1.00650024,0.488281,0.244141,-0.061035
2093285750,0.00158691,0.00762939,-1.00575256,0.427246,0.061035,0.000000
2098280375,0.00047302,0.00741577,-1.00550842,0.183105,0.061035,-0.122070
2103252500,-0.00021362,0.00729370,-1.00614929,0.305176,0.061035,-0.183105
2108270375,0.00021362,0.00732422,-1.00717163,0.366211,0.000000,-0.183105
2113242416,0.00154114,0.00715637,-1.00782776,0.366211,0.122070,-0.122070
2118280708,0.00256348,0.00674438,-1.00775146,0.366211,0.061035,-0.122070
2123237000,0.00238037,0.00671387,-1.00709534,0.305176,-0.061035,-0.061035
2128287500,0.00166321,0.00704956,-1.00645447,0.305176,0.183105,-0.122070
2133268083,0.00138855,0.00709534,-1.00642395,0.427246,-0.061035,-0.061035
2138272000,0.00172424,0.00679016,-1.00695801,0.366211,0.000000,-0.061035
2143303458,0.00216675,0.00665283,-1.00756836,0.122070,0.061035,-0.122070
2148268291,0.00210571,0.00697327,-1.00752258,0.183105,0.122070,-0.122070
2153261166,0.00183105,0.00724792,-1.00656128,0.305176,0.061035,-0.122070
2158275041,0.00192261,0.00712585,-1.00582886,0.366211,-0.061035,-0.061035
2163294416,0.00193787,0.00695801,-1.00645447,0.305176,0.122070,-0.122070
2168274750,0.00146484,0.00709534,-1.00758362,0.183105,0.000000,-0.122070
2173265625,0.00119019,0.00729370,-1.00823975,0.366211,0.122070,0.000000
2178266125,0.00149536,0.00729370,-1.00857544,0.427246,-0.061035,-0.305176
2183263875,0.00190735,0.00694275,-1.00856018,0.305176,0.061035,-0.122070
2188274000,0.00204468,0.00630188,-1.00785828,0.183105,0.000000,0.000000
2193368333,0.00216675,0.00584412,-1.00692749,0.305176,-0.061035,0.000000
2198286708,0.00244141,0.00590515,-1.00639343,0.366211,0.000000,-0.122070
2203280208,0.00254822,0.00625610,-1.00646973,0.366211,0.122070,-0.122070
2208269375,0.00234985,0.00643921,-1.00692749,0.366211,0.000000,-0.305176
2213273500,0.00195312,0.00639343,-1.00711060,0.305176,0.000000,-0.122070
2218274208,0.00193787,0.00627136,-1.00698853,0.244141,0.000000,-0.122070
2223272916,0.00231934,0.00627136,-1.00706482,0.305176,-0.061035,-0.061035
2228258541,0.00231934,0.00640869,-1.00747681,0.488281,0.122070,-0.183105
2233288208,0.00195312,0.00654602,-1.00759888,0.366211,0.000000,0.000000
2238290458,0.00199890,0.00643921,-1.00721741,0.366211,0.122070,-0.061035
2243305833,0.00233459,0.00654602,-1.00685120,0.305176,0.122070,-0.061035
2248274000,0.00248718,0.00697327,-1.00671387,0.305176,0.122070,-0.183105
2253253166,0.00274658,0.00711060,-1.00642395,0.305176,0.061035,-0.122070
2258272166,0.00306702,0.00708008,-1.00601196,0.244141,-0.061035,-0.183105
2263244583,0.00299072,0.00737000,-1.00595093,0.305176,-0.061035,0.000000
2268268583,0.00263977,0.00782776,-1.00621033,0.305176,0.061035,-0.061035
2273260541,0.00236511,0.00810242,-1.00631714,0.427246,0.000000,0.000000
2278315625,0.00201416,0.00781250,-1.00617981,0.244141,0.000000,0.000000
2283245250,0.00128174,0.00717163,-1.00656128,0.244141,0.000000,0.000000
2288273750,0.00085449,0.00685120,-1.00730896,0.427246,0.061035,0.061035
2293253416,0.00126648,0.00704956,-1.00735474,0.366211,0.183105,-0.122070
2298264041,0.00201416,0.00732422,-1.00691223,0.427246,0.122070,-0.122070
2303263541,0.00227356,0.00746155,-1.00651550,0.244141,0.122070,-0.061035
2308297916,0.00195312,0.00735474,-1.00646973,0.366211,0.122070,-0.061035
2313274708,0.00158691,0.00682068,-1.00668335,0.244141,0.061035,0.000000
2318296583,0.00164795,0.00631714,-1.00697327,0.366211,-0.061035,-0.061035
2323298666,0.00193787,0.00651550,-1.00755310,0.244141,0.061035,-0.122070
2328281708,0.00213623,0.00709534,-1.00770569,0.244141,0.000000,-0.061035
2333281708,0.00186157,0.00733948,-1.00682068,0.244141,0.000000,-0.122070
2338289333,0.00160217,0.00714111,-1.00613403,0.366211,0.061035,-0.061035
2343376125,0.00233459,0.00700378,-1.00668335,0.244141,-0.061035,-0.061035
2348361750,0.00352478,0.00689697,-1.00772095,0.427246,0.122070,-0.244141
2353266916,0.00386047,0.00657654,-1.00784302,0.305176,0.000000,0.000000
2358314166,0.00311279,0.00640869,-1.00680542,0.427246,0.061035,-0.061035
2363282208,0.00239563,0.00657654,-1.00573730,0.488281,0.122070,0.000000
2368327791,0.00265503,0.00679016,-1.00553894,0.427246,-0.061035,-0.122070
2373287291,0.00334167,0.00700378,-1.00588989,0.305176,-0.061035,0.061035
2378280125,0.00340271,0.00700378,-1.00631714,0.305176,0.122070,-0.061035
2383282541,0.00294495,0.00656128,-1.00669861,0.366211,0.122070,-0.122070
2388304166,0.00238037,0.00601196,-1.00712585,0.183105,-0.061035,-0.122070
2393331916,0.00198364,0.00575256,-1.00759888,0.366211,0.122070,-0.122070
2398301208,0.00196838,0.00575256,-1.00788879,0.427246,0.000000,-0.122070
2403297750,0.00233459,0.00596619,-1.00761414,0.244141,-0.061035,-0.183105
2408290041,0.00276184,0.00654602,-1.00654602,0.366211,-0.061035,-0.122070
2413271166,0.00277710,0.00740051,-1.00550842,0.488281,0.122070,-0.061035
2418294416,0.00219727,0.00822449,-1.00529480,0.366211,0.122070,-0.061035
2423272000,0.00173950,0.00846863,-1.00582886,0.244141,0.061035,-0.183105
2428315541,0.00199890,0.00778198,-1.00639343,0.366211,0.061035,0.061035
2433345125,0.00253296,0.00674438,-1.00679016,0.427246,0.122070,0.000000
2438289250,0.00283813,0.00643921,-1.00698853,0.366211,0.000000,-0.122070
2443279458,0.00250244,0.00691223,-1.00666809,0.366211,0.061035,-0.122070
2448298958,0.00158691,0.00735474,-1.00640869,0.366211,0.122070,-0.122070
2453308458,0.00070190,0.00759888,-1.00692749,0.366211,0.000000,0.000000
2458405625,0.00068665,0.00764465,-1.00732422,0.305176,0.183105,-0.061035
2463290166,0.00155640,0.00720215,-1.00697327,0.366211,0.122070,-0.122070
2468332416,0.00233459,0.00657654,-1.00660706,0.183105,0.122070,-0.122070
2473296500,0.00242615,0.00653076,-1.00669861,0.305176,0.000000,-0.061035
2478301541,0.00233459,0.00701904,-1.00692749,0.305176,0.061035,0.061035
2483282750,0.00236511,0.00733948,-1.00698853,0.244141,0.061035,-0.061035
2488284958,0.00230408,0.00720215,-1.00650024,0.488281,-0.061035,-0.061035
2493322250,0.00221252,0.00703430,-1.00614929,0.427246,0.122070,-0.122070
2498339500,0.00227356,0.00738525,-1.00669861,0.549316,0.061035,-0.061035
2503297083,0.00242615,0.00782776,-1.00730896,0.366211,0.183105,0.000000
2508298500,0.00276184,0.00791931,-1.00721741,0.305176,0.000000,-0.061035
2513272500,0.00312805,0.00781250,-1.00689697,0.366211,0.061035,0.000000
2518307708,0.00300598,0.00761414,-1.00682068,0.427246,-0.061035,0.000000
2523277833,0.00257874,0.00714111,-1.00712585,0.366211,0.000000,-0.122070
2528339500,0.00233459,0.00663757,-1.00759888,0.427246,0.061035,0.000000
2533290750,0.00207520,0.00663757,-1.00775146,0.244141,0.061035,-0.122070
2538324041,0.00155640,0.00717163,-1.00753784,0.305176,0.061035,-0.061035
2543277583,0.00122070,0.00749207,-1.00753784,0.549316,0.000000,0.000000
2548304416,0.00129700,0.00718689,-1.00790405,0.427246,-0.061035,-0.061035
2553295500,0.00128174,0.00669861,-1.00836182,0.427246,-0.061035,-0.122070
2558317875,0.00096130,0.00636292,-1.00856018,0.488281,-0.244141,-0.122070
2563316000,0.00080872,0.00628662,-1.00863647,0.305176,-0.061035,-0.061035
2568340166,0.00112915,0.00645447,-1.00785828,0.183105,0.061035,0.122070
2573296125,0.00167847,0.00663757,-1.00541687,0.183105,0.122070,-0.061035
2578312375,0.00199890,0.00651550,-1.00384521,-0.122070,0.122070,0.000000
2583281583,0.00201416,0.00621033,-1.00590515,-0.183105,0.000000,-0.061035
2588310500,0.00189209,0.00627136,-1.00964355,-0.427246,-0.122070,-0.183105
2593344791,0.00166321,0.00659180,-1.01171875,-0.488281,0.061035,-0.122070
2598365166,0.00140381,0.00665283,-1.01176453,-0.488281,0.000000,0.061035
2603306833,0.00109863,0.00694275,-1.01100159,-0.488281,0.061035,-0.061035
2608339166,0.00070190,0.00811768,-1.01028442,-0.549316,0.244141,-0.122070
2613283833,0.00053406,0.00906372,-1.00889587,0.061035,0.122070,-0.061035
2618305666,0.00099182,0.00811768,-1.00605774,0.122070,-0.061035,0.000000
2623307583,0.00184631,0.00656128,-1.00471497,0.366211,0.061035,-0.122070
2628312958,0.00250244,0.00617981,-1.00393677,0.244141,0.061035,-0.061035
2633301583,0.00299072,0.00631714,-0.99943542,0.427246,0.061035,0.000000
2638343125,0.00352478,0.00611877,-0.99732971,0.549316,0.183105,-0.061035
2643320791,0.00390625,0.00598145,-1.00222778,0.366211,0.061035,-0.122070
2648310000,0.00407410,0.00646973,-1.00807190,0.427246,0.061035,-0.061035
2653302708,0.00437927,0.00732422,-1.00987244,0.244141,0.061035,-0.122070
2658334125,0.00459290,0.00799561,-1.00923157,0.183105,0.183105,-0.244141
2663316791,0.00405884,0.00813293,-1.00796509,0.488281,0.000000,-0.061035
2668329958,0.00317383,0.00793457,-1.00631714,0.427246,0.122070,-0.183105
2673325875,0.00267029,0.00793457,-1.00572205,0.427246,-0.061035,-0.183105
2678332250,0.00228882,0.00834656,-1.00692749,0.427246,0.061035,-0.122070
2683302250,0.00167847,0.00875854,-1.00814819,0.305176,0.061035,-0.061035
2688323000,0.00109863,0.00892639,-1.00755310,0.183105,0.122070,-0.061035
2693323083,0.00080872,0.00923157,-1.00646973,0.305176,0.183105,0.000000
2698320916,0.00053406,0.00975037,-1.00637817,0.244141,0.061035,-0.122070
2703328000,0.00009155,0.00979614,-1.00682068,0.305176,0.000000,-0.122070
2708327916,0.00001526,0.00923157,-1.00717163,0.183105,-0.061035,-0.183105
2713344375,-0.00001526,0.00889587,-1.00709534,0.427246,-0.061035,-0.061035
2718322500,-0.00064087,0.00877380,-1.00675964,0.305176,0.122070,0.000000
2723302958,-0.00108337,0.00825500,-1.00659180,0.244141,0.061035,-0.061035
2728340166,-0.00064087,0.00733948,-1.00630188,0.244141,0.061035,0.000000
2733310958,-0.00003052,0.00628662,-1.00617981,0.305176,0.122070,0.000000
2738350541,0.00033569,0.00547791,-1.00685120,0.244141,0.183105,-0.061035
2743335541,0.00090027,0.00527954,-1.00779724,0.305176,0.000000,-0.061035
2748316333,0.00181580,0.00550842,-1.00781250,0.244141,0.000000,-0.061035
2753312333,0.00267029,0.00570679,-1.00686646,0.244141,0.061035,-0.183105
2758336166,0.00305176,0.00611877,-1.00592041,0.244141,0.061035,-0.122070
2763418583,0.00320435,0.00689697,-1.00596619,0.305176,0.122070,-0.061035
2768327375,0.00354004,0.00729370,-1.00679016,0.366211,0.244141,-0.061035
2773298166,0.00354004,0.00720215,-1.00718689,0.366211,0.122070,0.000000
2778311791,0.00294495,0.00709534,-1.00650024,0.366211,0.122070,-0.061035
2783284125,0.00241089,0.00706482,-1.00570679,0.305176,0.183105,0.000000
2788320666,0.00242615,0.00735474,-1.00584412,0.244141,0.000000,-0.061035
2793346208,0.00289917,0.00791931,-1.00665283,0.305176,0.000000,-0.122070
2798364583,0.00302124,0.00802612,-1.00706482,0.305176,0.000000,-0.183105
2803303250,0.00233459,0.00744629,-1.00677490,0.305176,0.061035,-0.061035
2808325791,0.00154114,0.00668335,-1.00654602,0.366211,0.000000,-0.122070
2813324041,0.00129700,0.00624084,-1.00657654,0.122070,0.061035,-0.183105
2818332875,0.00137329,0.00595093,-1.00688171,0.366211,0.061035,0.000000
2823308041,0.00141907,0.00559998,-1.00730896,0.244141,0.000000,-0.183105
2828344000,0.00146484,0.00581360,-1.00773621,0.244141,0.000000,-0.122070
2833302750,0.00157166,0.00680542,-1.00822449,0.244141,0.000000,-0.122070
2838337375,0.00146484,0.00782776,-1.00820923,0.183105,0.122070,0.000000
2843332541,0.00114441,0.00859070,-1.00717163,0.122070,0.000000,-0.183105
2848324250,0.00102234,0.00912476,-1.00598145,0.244141,0.122070,-0.122070
2853303916,0.00148010,0.00933838,-1.00561523,0.244141,0.061035,0.000000
2858313708,0.00219727,0.00935364,-1.00617981,0.122070,0.244141,-0.122070
2863301208,0.00253296,0.00950623,-1.00685120,0.061035,0.061035,-0.061035
2868469625,0.00239563,0.00973511,-1.00720215,0.366211,0.061035,-0.183105
2873348041,0.00190735,0.00967407,-1.00732422,0.305176,0.183105,0.000000
2878321750,0.00148010,0.00938416,-1.00718689,0.183105,0.122070,0.061035
2883302583,0.00137329,0.00904846,-1.00672913,0.305176,0.061035,0.000000
2888312833,0.00141907,0.00859070,-1.00646973,0.244141,0.122070,-0.061035
2893304416,0.00146484,0.00823975,-1.00695801,0.122070,0.122070,0.000000
2898328791,0.00146484,0.00817871,-1.00741577,0.183105,0.122070,0.000000
2903334416,0.00144958,0.00805664,-1.00698853,0.183105,0.061035,0.061035
2908336125,0.00151062,0.00738525,-1.00613403,0.244141,0.122070,-0.061035
2913325958,0.00177002,0.00639343,-1.00584412,0.244141,0.061035,-0.122070
2918333416,0.00222778,0.00572205,-1.00624084,0.305176,0.061035,-0.061035
2923329791,0.00274658,0.00558472,-1.00651550,0.183105,0.000000,-0.122070
2928358166,0.00292969,0.00573730,-1.00599670,0.366211,0.061035,0.000000
2933331416,0.00221252,0.00592041,-1.00537109,0.061035,0.244141,-0.305176
2938414083,0.00135803,0.00622559,-1.00601196,0.122070,-0.122070,-0.061035
2943332625,0.00155640,0.00656128,-1.00781250,0.244141,0.000000,-0.122070
2948347000,0.00236511,0.00656128,-1.00894165,0.244141,0.122070,-0.061035
2953336416,0.00265503,0.00648499,-1.00860596,0.183105,0.061035,-0.183105
2958363500,0.00244141,0.00682068,-1.00765991,0.183105,0.061035,-0.061035
2963324583,0.00254822,0.00741577,-1.00698853,0.305176,0.183105,-0.122070
2968385416,0.00285339,0.00759888,-1.00694275,0.244141,-0.061035,-0.122070
2973358666,0.00289917,0.00743103,-1.00698853,0.122070,0.122070,-0.061035
2978357958,0.00247192,0.00743103,-1.00650024,0.183105,0.000000,-0.061035
2983316208,0.00192261,0.00785828,-1.00624084,0.305176,0.000000,0.000000
2988351291,0.00167847,0.00848389,-1.00712585,0.244141,0.122070,-0.061035
2993376666,0.00169373,0.00885010,-1.00811768,0.122070,0.000000,-0.244141
2998388083,0.00195312,0.00898743,-1.00788879,0.427246,0.000000,-0.122070
3003319166,0.00219727,0.00901794,-1.00703430,0.183105,0.061035,0.000000
3008347708,0.00187683,0.00895691,-1.00650024,0.244141,0.061035,0.000000
3013319041,0.00120544,0.00923157,-1.00640869,0.183105,0.061035,-0.122070
3018342500,0.00085449,0.00981140,-1.00679016,0.366211,0.122070,-0.122070
3023337125,0.00074768,0.01002502,-1.00706482,0.183105,-0.061035,-0.122070
3028340541,0.00059509,0.00985718,-1.00648499,0.244141,0.061035,-0.183105
3033365208,0.00064087,0.00953674,-1.00576782,0.366211,0.061035,-0.061035
3038380666,0.00103760,0.00859070,-1.00561523,0.366211,0.061035,-0.061035
3043358041,0.00148010,0.00708008,-1.00534058,0.244141,0.000000,0.000000
3048344333,0.00184631,0.00611877,-1.00486755,0.244141,0.122070,0.061035
3053341958,0.00207520,0.00608826,-1.00590515,0.183105,0.061035,-0.061035
3058332291,0.00207520,0.00651550,-1.00765991,0.244141,0.061035,0.000000
3063320333,0.00196838,0.00717163,-1.00804138,0.427246,0.000000,-0.122070
3068352666,0.00198364,0.00799561,-1.00700378,0.244141,0.061035,-0.122070
3073333291,0.00228882,0.00869751,-1.00598145,0.366211,0.183105,-0.061035
3078357708,0.00274658,0.00900269,-1.00585938,0.305176,0.122070,-0.183105
3083607625,0.00299072,0.00862122,-1.00621033,0.488281,0.122070,-0.061035
3088362041,0.00306702,0.00772095,-1.00631714,0.305176,0.061035,-0.183105
3093352916,0.00321960,0.00700378,-1.00651550,0.366211,0.000000,-0.122070
3098373750,0.00317383,0.00706482,-1.00683594,0.244141,0.000000,-0.244141
3103346625,0.00254822,0.00778198,-1.00674438,0.244141,-0.061035,-0.061035
3108354625,0.00154114,0.00839233,-1.00645447,0.366211,0.000000,-0.183105
3113322041,0.00096130,0.00831604,-1.00682068,0.305176,0.061035,-0.244141
3118356166,0.00123596,0.00769043,-1.00738525,0.305176,0.000000,-0.122070
3123328000,0.00180054,0.00723267,-1.00721741,0.305176,0.000000,0.000000
3128438750,0.00204468,0.00691223,-1.00709534,0.244141,0.122070,-0.061035
3133333583,0.00199890,0.00665283,-1.00747681,0.305176,0.061035,-0.122070
3138382791,0.00199890,0.00686646,-1.00756836,0.366211,-0.061035,-0.122070
3143339375,0.00230408,0.00741577,-1.00718689,0.244141,-0.061035,-0.122070
3148361416,0.00279236,0.00761414,-1.00674438,0.366211,0.122070,0.000000
3153343583,0.00303650,0.00755310,-1.00643921,0.488281,0.122070,-0.061035
3158350666,0.00297546,0.00769043,-1.00614929,0.305176,0.122070,0.000000
3163319291,0.00279236,0.00802612,-1.00604248,0.366211,0.061035,-0.183105
3168354875,0.00228882,0.00846863,-1.00610352,0.305176,0.061035,-0.061035
3173340000,0.00167847,0.00871277,-1.00596619,0.488281,0.061035,-0.061035
3178377333,0.00167847,0.00857544,-1.00601196,0.305176,0.061035,-0.122070
3183352333,0.00231934,0.00831604,-1.00630188,0.305176,0.061035,0.000000
3188352083,0.00265503,0.00825500,-1.00625610,0.244141,0.122070,-0.122070
3193398416,0.00218201,0.00846863,-1.00582886,0.305176,0.061035,-0.061035
3198385875,0.00141907,0.00871277,-1.00579834,0.305176,0.122070,0.000000
3203333375,0.00117493,0.00860596,-1.00651550,0.305176,0.122070,-0.061035
3208360166,0.00151062,0.00802612,-1.00755310,0.366211,0.000000,-0.122070
3213342625,0.00205994,0.00753784,-1.00801086,0.305176,0.061035,-0.061035
3218336958,0.00231934,0.00759888,-1.00750732,0.244141,-0.061035,-0.122070
3223328583,0.00199890,0.00762939,-1.00668335,0.244141,0.000000,-0.122070
3228380416,0.00175476,0.00743103,-1.00624084,0.305176,0.061035,-0.183105
3233333208,0.00205994,0.00727844,-1.00614929,0.427246,0.061035,-0.122070
3238363958,0.00227356,0.00735474,-1.00633240,0.427246,0.000000,-0.061035
3243320708,0.00195312,0.00733948,-1.00671387,0.427246,0.000000,0.061035
3248356791,0.00167847,0.00704956,-1.00669861,0.366211,0.061035,-0.122070
3253346791,0.00160217,0.00704956,-1.00630188,0.366211,0.122070,0.122070
3258380583,0.00157166,0.00761414,-1.00636292,0.366211,0.061035,-0.122070
3263344916,0.00180054,0.00823975,-1.00698853,0.427246,0.061035,0.000000
3268394625,0.00213623,0.00860596,-1.00769043,0.305176,0.000000,-0.122070
3273335625,0.00210571,0.00875854,-1.00794983,0.244141,0.000000,-0.061035
3278369208,0.00172424,0.00866699,-1.00759888,0.427246,0.061035,-0.183105
3283382583,0.00149536,0.00846863,-1.00733948,0.305176,0.061035,-0.122070
3288424166,0.00166321,0.00874329,-1.00711060,0.183105,0.061035,-0.122070
3293390583,0.00205994,0.00939941,-1.00654602,0.305176,0.122070,0.122070
3298381125,0.00231934,0.00958252,-1.00604248,0.305176,0.000000,-0.122070
3303363333,0.00210571,0.00917053,-1.00604248,0.305176,0.061035,-0.122070
3308365916,0.00152588,0.00894165,-1.00628662,0.366211,0.000000,-0.122070
3313341541,0.00135803,0.00889587,-1.00627136,0.305176,0.000000,0.000000
3318372833,0.00160217,0.00834656,-1.00614929,0.366211,0.000000,-0.061035
3323344958,0.00148010,0.00755310,-1.00651550,0.366211,0.061035,-0.061035
3328365583,0.00122070,0.00729370,-1.00717163,0.366211,0.061035,-0.244141
3333357208,0.00128174,0.00762939,-1.00746155,0.427246,-0.061035,-0.061035
3338371083,0.00146484,0.00772095,-1.00743103,0.305176,0.061035,-0.183105
3343356541,0.00160217,0.00746155,-1.00730896,0.427246,0.122070,-0.122070
3348383291,0.00181580,0.00735474,-1.00711060,0.488281,0.244141,0.061035
3353356208,0.00216675,0.00758362,-1.00697327,0.305176,0.000000,-0.183105
3358366875,0.00271606,0.00779724,-1.00723267,0.183105,0.122070,-0.061035
3363368166,0.00347900,0.00764465,-1.00762939,0.244141,0.122070,-0.061035
3368407458,0.00416565,0.00712585,-1.00755310,0.427246,0.122070,-0.122070
3373349083,0.00413513,0.00688171,-1.00695801,0.305176,0.061035,-0.244141
3378390958,0.00326538,0.00724792,-1.00628662,0.305176,0.183105,0.000000
3383368541,0.00227356,0.00752258,-1.00607300,0.488281,0.122070,-0.183105
3388382166,0.00183105,0.00752258,-1.00646973,0.366211,0.061035,-0.061035
3393421416,0.00212097,0.00752258,-1.00706482,0.549316,0.244141,-0.122070
3398421541,0.00260925,0.00733948,-1.00724792,0.244141,0.122070,-0.183105
3403373750,0.00250244,0.00723267,-1.00680542,0.427246,0.061035,0.000000
3408369500,0.00205994,0.00772095,-1.00588989,0.244141,0.061035,-0.244141
3413361708,0.00184631,0.00851440,-1.00521851,0.305176,0.000000,-0.122070
3418369083,0.00178528,0.00897217,-1.00544739,0.427246,0.061035,-0.061035
3423372916,0.00144958,0.00878906,-1.00625610,0.366211,0.183105,0.000000
3428407416,0.00080872,0.00856018,-1.00682068,0.244141,0.183105,0.000000
3433389166,0.00025940,0.00859070,-1.00682068,0.244141,0.061035,0.000000
3438391250,0.00018311,0.00857544,-1.00665283,0.366211,-0.122070,0.000000
3443365208,0.00045776,0.00871277,-1.00650024,0.366211,0.000000,-0.122070
3448378750,0.00079346,0.00923157,-1.00624084,0.305176,0.183105,-0.061035
3453381625,0.00128174,0.00956726,-1.00601196,0.244141,0.061035,0.000000
3458375375,0.00213623,0.00926208,-1.00624084,0.427246,0.122070,-0.061035
3463377375,0.00289917,0.00877380,-1.00668335,0.122070,0.061035,0.000000
3468398291,0.00299072,0.00842285,-1.00675964,0.366211,0.000000,-0.061035
3473414916,0.00270081,0.00834656,-1.00643921,0.366211,0.061035,-0.183105
3478380541,0.00270081,0.00827026,-1.00645447,0.244141,0.061035,0.000000
3483370291,0.00279236,0.00790405,-1.00708008,0.366211,0.061035,0.061035
3488390250,0.00262451,0.00750732,-1.00782776,0.244141,0.183105,-0.061035
3493402750,0.00244141,0.00747681,-1.00819397,0.244141,0.000000,-0.183105
3498418083,0.00239563,0.00753784,-1.00808716,0.427246,0.122070,-0.061035
3503413375,0.00253296,0.00741577,-1.00729370,0.305176,0.061035,-0.061035
3508384250,0.00251770,0.00735474,-1.00633240,0.427246,0.000000,-0.061035
3513373375,0.00207520,0.00752258,-1.00630188,0.305176,-0.061035,-0.122070
3518395291,0.00178528,0.00752258,-1.00727844,0.183105,0.000000,-0.122070
3523372291,0.00193787,0.00715637,-1.00785828,0.366211,0.122070,-0.183105
3528401875,0.00189209,0.00682068,-1.00756836,0.366211,0.000000,-0.122070
3533388125,0.00177002,0.00683594,-1.00701904,0.244141,-0.061035,-0.122070
3538418458,0.00202942,0.00714111,-1.00656128,0.427246,0.122070,-0.122070
3543374708,0.00216675,0.00749207,-1.00640869,0.366211,0.061035,-0.061035
3548385000,0.00167847,0.00790405,-1.00671387,0.305176,0.000000,-0.183105
3553379458,0.00126648,0.00842285,-1.00697327,0.305176,-0.061035,-0.122070
3558382625,0.00141907,0.00868225,-1.00674438,0.244141,0.000000,-0.122070
3563421333,0.00184631,0.00852966,-1.00639343,0.366211,0.122070,0.061035
3568425458,0.00216675,0.00834656,-1.00624084,0.305176,0.061035,-0.122070
3573377041,0.00245667,0.00846863,-1.00616455,0.305176,0.061035,-0.061035
3578417541,0.00245667,0.00854492,-1.00624084,0.305176,-0.061035,0.000000
3583367291,0.00199890,0.00840759,-1.00648499,0.549316,0.061035,0.000000
3588389041,0.00178528,0.00840759,-1.00680542,0.427246,0.061035,-0.122070
3593493791,0.00205994,0.00862122,-1.00709534,0.305176,0.000000,-0.122070
3598428416,0.00216675,0.00866699,-1.00711060,0.427246,0.061035,-0.061035
3603364541,0.00195312,0.00839233,-1.00659180,0.305176,0.000000,-0.061035
3608385375,0.00205994,0.00798035,-1.00598145,0.366211,0.061035,-0.183105
3613388416,0.00248718,0.00775146,-1.00575256,0.183105,0.000000,-0.122070
3618403250,0.00251770,0.00816345,-1.00576782,0.244141,0.122070,-0.122070
3623398500,0.00196838,0.00863647,-1.00552368,0.305176,0.061035,0.000000
3628432500,0.00140381,0.00843811,-1.00518799,0.305176,0.122070,-0.061035
3633404041,0.00122070,0.00785828,-1.00555420,0.366211,0.183105,0.000000
3638405958,0.00140381,0.00796509,-1.00645447,0.366211,0.122070,-0.122070
3643398625,0.00158691,0.00851440,-1.00695801,0.183105,0.061035,-0.122070
3648394541,0.00157166,0.00862122,-1.00671387,0.305176,0.000000,-0.122070
3653401833,0.00157166,0.00837708,-1.00645447,0.305176,-0.061035,-0.183105
3658413125,0.00190735,0.00814819,-1.00691223,0.488281,0.061035,-0.122070
3663438375,0.00227356,0.00791931,-1.00743103,0.427246,0.000000,-0.183105
3668412083,0.00210571,0.00775146,-1.00717163,0.244141,0.000000,-0.061035
3673376750,0.00167847,0.00756836,-1.00671387,0.305176,0.061035,-0.122070
3678412666,0.00163269,0.00744629,-1.00668335,0.427246,0.183105,0.061035
3683403666,0.00187683,0.00753784,-1.00680542,0.305176,0.000000,-0.061035
3688410166,0.00204468,0.00747681,-1.00669861,0.427246,0.061035,-0.183105
3693446458,0.00222778,0.00714111,-1.00653076,0.366211,0.061035,0.000000
3698539916,0.00230408,0.00711060,-1.00656128,0.244141,0.000000,-0.122070
3703437708,0.00199890,0.00769043,-1.00660706,0.366211,0.061035,-0.061035
3708415500,0.00155640,0.00842285,-1.00672913,0.305176,0.183105,-0.061035
3713388083,0.00129700,0.00883484,-1.00685120,0.305176,0.061035,-0.183105
3718410291,0.00131226,0.00885010,-1.00685120,0.427246,0.122070,-0.061035
3723373541,0.00180054,0.00863647,-1.00666809,0.305176,0.183105,-0.061035
3728428708,0.00225830,0.00837708,-1.00643921,0.427246,0.061035,-0.061035
3733424625,0.00202942,0.00823975,-1.00646973,0.305176,0.061035,-0.061035
3738401375,0.00135803,0.00828552,-1.00677490,0.244141,0.000000,-0.122070
3743408833,0.00109863,0.00849915,-1.00718689,0.305176,0.000000,0.000000
3748409833,0.00131226,0.00875854,-1.00756836,0.488281,0.061035,-0.183105
3753403416,0.00163269,0.00854492,-1.00762939,0.244141,0.061035,-0.061035
3758456083,0.00187683,0.00787354,-1.00723267,0.427246,0.122070,0.000000
3763433041,0.00189209,0.00755310,-1.00674438,0.427246,0.122070,0.000000
3768447833,0.00173950,0.00782776,-1.00630188,0.366211,0.122070,-0.061035
3773413458,0.00173950,0.00802612,-1.00605774,0.366211,0.122070,-0.061035
3778420541,0.00170898,0.00784302,-1.00633240,0.366211,-0.061035,-0.061035
3783400625,0.00155640,0.00759888,-1.00682068,0.244141,-0.122070,-0.122070
3788412458,0.00157166,0.00761414,-1.00715637,0.305176,0.000000,-0.122070
3793437833,0.00181580,0.00776672,-1.00746155,0.366211,0.122070,-0.122070
3798427458,0.00205994,0.00782776,-1.00764465,0.427246,0.061035,-0.061035
3803433458,0.00218201,0.00787354,-1.00717163,0.366211,0.061035,-0.244141
3808409416,0.00190735,0.00804138,-1.00624084,0.305176,0.000000,-0.244141
3813414833,0.00138855,0.00811768,-1.00575256,0.305176,0.000000,0.000000
3818408041,0.00102234,0.00794983,-1.00576782,0.427246,0.000000,-0.061035
3823407625,0.00117493,0.00781250,-1.00598145,0.183105,0.061035,-0.061035
3828447666,0.00189209,0.00798035,-1.00648499,0.366211,0.000000,0.061035
3833433791,0.00265503,0.00825500,-1.00727844,0.427246,0.061035,-0.183105
3838443458,0.00276184,0.00817871,-1.00765991,0.305176,0.122070,-0.061035
3843421500,0.00216675,0.00794983,-1.00735474,0.366211,0.061035,-0.061035
3848416083,0.00158691,0.00799561,-1.00665283,0.183105,0.061035,-0.122070
3853410958,0.00169373,0.00814819,-1.00639343,0.183105,0.061035,-0.122070
3858403958,0.00210571,0.00804138,-1.00694275,0.366211,0.122070,-0.122070
3863430791,0.00209045,0.00810242,-1.00732422,0.366211,0.122070,-0.122070
3868416541,0.00192261,0.00839233,-1.00677490,0.488281,0.061035,0.000000
3873408291,0.00199890,0.00828552,-1.00628662,0.244141,0.122070,-0.061035
3878420291,0.00189209,0.00788879,-1.00669861,0.305176,0.000000,-0.244141
3883416083,0.00167847,0.00755310,-1.00732422,0.244141,0.122070,-0.183105
3888427500,0.00158691,0.00761414,-1.00770569,0.244141,0.061035,0.000000
3893434291,0.00160217,0.00802612,-1.00775146,0.244141,0.061035,-0.061035
3898425833,0.00172424,0.00827026,-1.00730896,0.366211,0.000000,-0.061035
3903426791,0.00170898,0.00810242,-1.00686646,0.244141,0.061035,-0.061035
3908437833,0.00173950,0.00799561,-1.00675964,0.305176,0.000000,-0.061035
3913420416,0.00205994,0.00831604,-1.00682068,0.305176,0.122070,0.000000
3918423458,0.00241089,0.00859070,-1.00683594,0.427246,-0.061035,-0.122070
3923437708,0.00263977,0.00843811,-1.00656128,0.366211,0.061035,-0.061035
3928459958,0.00280762,0.00799561,-1.00611877,0.305176,0.061035,0.000000
3933423208,0.00268555,0.00750732,-1.00601196,0.305176,0.122070,-0.061035
3938430708,0.00210571,0.00747681,-1.00640869,0.366211,-0.061035,-0.244141
3943414541,0.00157166,0.00787354,-1.00675964,0.244141,0.000000,-0.061035
3948421291,0.00164795,0.00808716,-1.00663757,0.366211,0.183105,-0.061035
3953418708,0.00210571,0.00785828,-1.00651550,0.305176,0.000000,-0.122070
3958455833,0.00222778,0.00770569,-1.00668335,0.305176,0.122070,-0.122070
3963428791,0.00184631,0.00779724,-1.00677490,0.244141,0.061035,-0.122070
3968447041,0.00126648,0.00807190,-1.00642395,0.366211,0.122070,-0.061035
3973428208,0.00106812,0.00828552,-1.00590515,0.427246,0.061035,-0.122070
3978438416,0.00129700,0.00827026,-1.00587463,0.244141,0.000000,0.000000
3983416333,0.00167847,0.00804138,-1.00651550,0.305176,0.122070,-0.122070
3988436000,0.00190735,0.00790405,-1.00721741,0.122070,0.061035,-0.061035
3993510500,0.00178528,0.00805664,-1.00744629,0.244141,0.061035,-0.061035
3998451708,0.00149536,0.00822449,-1.00711060,0.366211,0.061035,-0.122070
4003422583,0.00120544,0.00837708,-1.00646973,0.366211,0.122070,-0.061035
4008458458,0.00096130,0.00854492,-1.00621033,0.305176,0.000000,-0.061035
4013417916,0.00073242,0.00839233,-1.00633240,0.305176,0.061035,-0.061035
4018422708,0.00074768,0.00810242,-1.00654602,0.427246,0.122070,-0.061035
4023411250,0.00143433,0.00813293,-1.00675964,0.244141,0.061035,-0.061035
4028461208,0.00218201,0.00831604,-1.00680542,0.183105,0.000000,-0.061035
4033461333,0.00234985,0.00827026,-1.00646973,0.427246,0.183105,-0.061035
4038458708,0.00231934,0.00798035,-1.00604248,0.244141,0.122070,-0.122070
4043435625,0.00224304,0.00776672,-1.00616455,0.244141,-0.061035,0.000000
4048446458,0.00201416,0.00787354,-1.00685120,0.305176,0.061035,0.000000
4053429791,0.00187683,0.00828552,-1.00721741,0.366211,-0.061035,0.000000
4058432041,0.00204468,0.00836182,-1.00659180,0.305176,0.000000,-0.061035
4063459458,0.00247192,0.00762939,-1.00575256,0.305176,0.061035,0.000000
4068473125,0.00283813,0.00686646,-1.00587463,0.122070,0.122070,-0.183105
4073439333,0.00279236,0.00666809,-1.00680542,0.305176,0.000000,-0.061035
4078449291,0.00251770,0.00691223,-1.00756836,0.305176,0.000000,-0.061035
4083426000,0.00238037,0.00723267,-1.00721741,0.427246,0.122070,-0.122070
4088429541,0.00236511,0.00735474,-1.00621033,0.427246,0.061035,-0.122070
4093484208,0.00218201,0.00733948,-1.00596619,0.305176,0.000000,-0.122070
4098440708,0.00184631,0.00730896,-1.00657654,0.305176,0.183105,-0.061035
4103433541,0.00190735,0.00735474,-1.00726318,0.305176,0.061035,-0.122070
4108449375,0.00241089,0.00765991,-1.00762939,0.488281,0.000000,-0.122070
4113472166,0.00277710,0.00796509,-1.00747681,0.488281,0.061035,-0.183105
4118444250,0.00268555,0.00796509,-1.00669861,0.549316,0.000000,-0.061035
4123431041,0.00238037,0.00787354,-1.00625610,0.549316,0.244141,0.061035
4128474083,0.00190735,0.00811768,-1.00657654,0.427246,0.061035,-0.122070
4133437500,0.00148010,0.00856018,-1.00711060,0.427246,0.061035,-0.122070
4138445250,0.00157166,0.00860596,-1.00708008,0.244141,0.061035,-0.061035
4143420666,0.00190735,0.00817871,-1.00617981,0.549316,0.000000,-0.061035
4148445416,0.00215149,0.00761414,-1.00544739,0.427246,0.183105,-0.183105
4153438208,0.00209045,0.00727844,-1.00573730,0.366211,0.061035,-0.061035
4158426291,0.00172424,0.00730896,-1.00622559,0.183105,0.061035,0.000000
4163450750,0.00134277,0.00775146,-1.00646973,0.305176,0.122070,-0.061035
4168444208,0.00093079,0.00842285,-1.00668335,0.305176,0.061035,-0.183105
4173432458,0.00068665,0.00865173,-1.00666809,0.427246,0.061035,-0.061035
4178453208,0.00108337,0.00820923,-1.00631714,0.366211,0.122070,0.000000
4183443791,0.00195312,0.00764465,-1.00628662,0.366211,0.061035,-0.061035
4188445416,0.00238037,0.00729370,-1.00656128,0.305176,0.183105,-0.122070
4193463375,0.00218201,0.00749207,-1.00682068,0.366211,0.061035,-0.061035
4198471333,0.00192261,0.00802612,-1.00709534,0.366211,0.061035,-0.061035
4203440458,0.00183105,0.00836182,-1.00700378,0.366211,0.061035,-0.061035
4208448791,0.00167847,0.00831604,-1.00651550,0.244141,0.061035,-0.122070
4213434916,0.00160217,0.00802612,-1.00624084,0.244141,0.061035,-0.122070
4218449166,0.00205994,0.00770569,-1.00651550,0.305176,0.122070,-0.244141
4223437500,0.00285339,0.00743103,-1.00672913,0.183105,0.061035,-0.183105
4228451708,0.00318909,0.00737000,-1.00672913,0.305176,0.122070,0.000000
4233437500,0.00299072,0.00735474,-1.00677490,0.305176,0.000000,0.000000
4238455958,0.00248718,0.00732422,-1.00683594,0.427246,0.061035,-0.061035
4243447416,0.00193787,0.00753784,-1.00671387,0.427246,0.122070,-0.061035
4248452500,0.00154114,0.00814819,-1.00637817,0.366211,0.000000,-0.122070
4253453083,0.00149536,0.00869751,-1.00625610,0.366211,0.061035,-0.061035
4258465958,0.00180054,0.00875854,-1.00651550,0.305176,0.122070,-0.061035
4263452625,0.00216675,0.00819397,-1.00646973,0.366211,0.061035,-0.122070
4268454958,0.00219727,0.00755310,-1.00619507,0.244141,-0.061035,-0.122070
4273441666,0.00192261,0.00746155,-1.00634766,0.366211,0.122070,0.000000
4278454750,0.00152588,0.00770569,-1.00666809,0.427246,0.000000,-0.061035
4283457041,0.00115967,0.00775146,-1.00665283,0.244141,0.122070,-0.122070
4288441250,0.00111389,0.00752258,-1.00669861,0.305176,0.061035,0.000000
4293455916,0.00137329,0.00746155,-1.00708008,0.366211,0.122070,-0.061035
4298449666,0.00157166,0.00784302,-1.00720215,0.244141,0.061035,0.122070
4303471041,0.00177002,0.00830078,-1.00674438,0.244141,0.061035,-0.061035
4308444041,0.00193787,0.00848389,-1.00608826,0.305176,0.000000,-0.122070
4313432208,0.00221252,0.00840759,-1.00592041,0.305176,0.183105,-0.122070
4318474458,0.00265503,0.00825500,-1.00619507,0.305176,0.061035,-0.122070
4323439791,0.00282288,0.00805664,-1.00662231,0.244141,0.183105,0.000000
4328467833,0.00251770,0.00787354,-1.00726318,0.366211,0.000000,-0.122070
4333453041,0.00207520,0.00796509,-1.00769043,0.366211,0.122070,-0.061035
4338453375,0.00180054,0.00814819,-1.00743103,0.305176,-0.061035,-0.122070
4343466500,0.00173950,0.00805664,-1.00700378,0.305176,-0.061035,0.000000
4348459750,0.00207520,0.00775146,-1.00675964,0.305176,0.000000,-0.061035
4353457083,0.00254822,0.00743103,-1.00650024,0.366211,0.122070,-0.061035
4358456041,0.00251770,0.00727844,-1.00637817,0.366211,0.061035,0.000000
4363445041,0.00183105,0.00727844,-1.00628662,0.427246,0.122070,-0.061035
4368530041,0.00134277,0.00743103,-1.00604248,0.366211,0.061035,-0.122070
4373434625,0.00173950,0.00782776,-1.00613403,0.427246,0.000000,-0.183105
4378464458,0.00234985,0.00807190,-1.00700378,0.244141,0.061035,-0.183105
4383439791,0.00247192,0.00778198,-1.00820923,0.366211,0.244141,0.061035
4388492500,0.00215149,0.00749207,-1.00848389,0.427246,0.061035,-0.122070
4393507000,0.00190735,0.00791931,-1.00732422,0.366211,0.183105,0.000000
4398482375,0.00177002,0.00859070,-1.00627136,0.305176,0.061035,-0.061035
4403443000,0.00175476,0.00859070,-1.00646973,0.244141,0.122070,0.000000
4408462541,0.00193787,0.00839233,-1.00680542,0.244141,0.000000,-0.183105
4413445208,0.00236511,0.00842285,-1.00651550,0.305176,0.000000,-0.122070
4418460083,0.00280762,0.00848389,-1.00625610,0.366211,0.061035,-0.183105
4423454375,0.00279236,0.00860596,-1.00627136,0.366211,-0.061035,-0.061035
4428476416,0.00210571,0.00846863,-1.00616455,0.366211,0.000000,-0.061035
4433462375,0.00119019,0.00804138,-1.00575256,0.427246,0.061035,-0.122070
4438484083,0.00079346,0.00779724,-1.00572205,0.244141,0.061035,-0.061035
4443490833,0.00108337,0.00798035,-1.00640869,0.366211,0.122070,-0.061035
4448474041,0.00155640,0.00814819,-1.00727844,0.305176,0.000000,-0.061035
4453466541,0.00199890,0.00778198,-1.00772095,0.366211,-0.061035,-0.183105
4458475875,0.00236511,0.00717163,-1.00747681,0.305176,0.000000,-0.061035
4463444250,0.00253296,0.00672913,-1.00680542,0.366211,0.000000,0.000000
4468478041,0.00271606,0.00657654,-1.00636292,0.488281,0.183105,0.061035
4473504125,0.00279236,0.00703430,-1.00653076,0.244141,0.122070,-0.122070
4478461333,0.00234985,0.00785828,-1.00724792,0.366211,0.061035,-0.061035
4483448125,0.00172424,0.00816345,-1.00813293,0.183105,0.061035,-0.061035
4488475416,0.00126648,0.00802612,-1.00843811,0.366211,-0.061035,-0.061035
4493501208,0.00132751,0.00787354,-1.00787354,0.305176,0.000000,-0.122070
4498500166,0.00190735,0.00775146,-1.00691223,0.610352,0.061035,-0.122070
4503508666,0.00253296,0.00752258,-1.00646973,0.244141,0.000000,-0.122070
4508467666,0.00253296,0.00737000,-1.00663757,0.366211,-0.061035,-0.061035
4513478375,0.00202942,0.00758362,-1.00677490,0.244141,0.122070,-0.122070
4518480375,0.00155640,0.00802612,-1.00659180,0.305176,0.183105,-0.122070
4523461250,0.00148010,0.00820923,-1.00659180,0.305176,0.061035,-0.122070
4528483791,0.00173950,0.00816345,-1.00680542,0.305176,0.061035,-0.183105
4533459458,0.00196838,0.00820923,-1.00701904,0.427246,-0.061035,-0.122070
4538482291,0.00201416,0.00828552,-1.00733948,0.488281,0.000000,-0.122070
4543470416,0.00201416,0.00830078,-1.00756836,0.244141,0.061035,-0.122070
4548470125,0.00196838,0.00819397,-1.00717163,0.305176,0.061035,-0.061035
4553464958,0.00192261,0.00802612,-1.00634766,0.366211,0.061035,-0.061035
4558470958,0.00173950,0.00790405,-1.00598145,0.488281,0.183105,-0.061035
4563468916,0.00138855,0.00785828,-1.00604248,0.427246,0.061035,-0.061035
4568487916,0.00128174,0.00807190,-1.00607300,0.305176,0.061035,-0.061035
4573462625,0.00154114,0.00837708,-1.00616455,0.244141,0.000000,-0.122070
4578491541,0.00184631,0.00823975,-1.00650024,0.366211,0.183105,-0.122070
4583475875,0.00196838,0.00793457,-1.00698853,0.427246,0.061035,-0.061035
4588479333,0.00212097,0.00796509,-1.00714111,0.366211,0.000000,-0.061035
4593466000,0.00227356,0.00798035,-1.00663757,0.183105,0.000000,-0.183105
4598490250,0.00219727,0.00770569,-1.00616455,0.244141,0.000000,-0.183105
4603458916,0.00218201,0.00773621,-1.00665283,0.305176,0.061035,0.000000
4608483000,0.00198364,0.00830078,-1.00753784,0.305176,0.061035,-0.122070
4613459958,0.00149536,0.00872803,-1.00756836,0.305176,0.183105,0.000000
4618475000,0.00146484,0.00836182,-1.00703430,0.305176,-0.061035,-0.061035
4623478250,0.00193787,0.00729370,-1.00669861,0.427246,-0.061035,-0.122070
4628551166,0.00231934,0.00683594,-1.00657654,0.366211,0.000000,0.000000
4633477458,0.00239563,0.00743103,-1.00679016,0.488281,0.122070,0.000000
4638475875,0.00238037,0.00813293,-1.00738525,0.366211,0.122070,-0.122070
4643472250,0.00222778,0.00805664,-1.00756836,0.244141,0.183105,-0.183105
4648482041,0.00190735,0.00735474,-1.00689697,0.366211,0.061035,-0.061035
4653484000,0.00196838,0.00692749,-1.00639343,0.427246,0.061035,-0.061035
4658478666,0.00230408,0.00729370,-1.00668335,0.427246,0.061035,-0.122070
4663469416,0.00221252,0.00799561,-1.00704956,0.427246,0.000000,0.000000
4668495291,0.00152588,0.00836182,-1.00706482,0.366211,0.305176,-0.122070
4673469541,0.00112915,0.00817871,-1.00697327,0.305176,0.183105,-0.122070
4678503916,0.00128174,0.00764465,-1.00675964,0.427246,0.122070,-0.122070
4683496208,0.00160217,0.00729370,-1.00646973,0.427246,0.183105,0.061035
4688514666,0.00173950,0.00752258,-1.00621033,0.305176,0.061035,-0.061035
4693580416,0.00170898,0.00827026,-1.00584412,0.305176,-0.061035,-0.183105
4698512541,0.00189209,0.00880432,-1.00593567,0.244141,0.244141,-0.122070
4703471458,0.00204468,0.00875854,-1.00674438,0.244141,0.122070,-0.183105
4708494333,0.00183105,0.00840759,-1.00695801,0.305176,0.000000,-0.183105
4713480875,0.00167847,0.00816345,-1.00599670,0.244141,0.061035,-0.183105
4718490541,0.00183105,0.00782776,-1.00531006,0.427246,0.122070,-0.061035
4723496083,0.00210571,0.00743103,-1.00588989,0.366211,0.061035,-0.061035
4728497166,0.00236511,0.00733948,-1.00692749,0.305176,0.061035,-0.061035
4733515083,0.00244141,0.00773621,-1.00740051,0.183105,0.000000,-0.122070
4738495291,0.00219727,0.00814819,-1.00697327,0.366211,0.061035,0.000000
4743540416,0.00173950,0.00805664,-1.00595093,0.183105,-0.061035,-0.183105
4748486666,0.00155640,0.00759888,-1.00550842,0.183105,0.122070,-0.061035
4753466250,0.00163269,0.00727844,-1.00630188,0.305176,0.122070,-0.061035
4758506041,0.00158691,0.00721741,-1.00698853,0.305176,0.122070,-0.183105
4763486291,0.00155640,0.00715637,-1.00672913,0.305176,0.061035,-0.061035
4768497208,0.00172424,0.00735474,-1.00633240,0.305176,0.183105,-0.061035
4773488916,0.00175476,0.00787354,-1.00617981,0.366211,0.061035,-0.061035
4778484750,0.00169373,0.00811768,-1.00578308,0.366211,0.061035,-0.061035
4783469291,0.00175476,0.00799561,-1.00521851,0.366211,0.183105,-0.061035
4788497750,0.00157166,0.00798035,-1.00547791,0.366211,0.061035,0.000000
4793489958,0.00106812,0.00802612,-1.00686646,0.366211,0.122070,-0.061035
4798498291,0.00093079,0.00801086,-1.00807190,0.427246,0.061035,-0.061035
4803493958,0.00146484,0.00804138,-1.00772095,0.366211,0.122070,-0.122070
4808522958,0.00218201,0.00820923,-1.00650024,0.366211,0.122070,-0.122070
4813503083,0.00270081,0.00828552,-1.00590515,0.305176,0.000000,-0.061035
4818494750,0.00306702,0.00801086,-1.00605774,0.427246,0.122070,-0.061035
4823541041,0.00306702,0.00755310,-1.00631714,0.366211,-0.061035,-0.061035
4828513875,0.00248718,0.00747681,-1.00651550,0.244141,0.061035,0.000000
4833471500,0.00180054,0.00785828,-1.00619507,0.305176,0.122070,-0.122070
4838547750,0.00135803,0.00805664,-1.00515747,0.610352,0.061035,-0.061035
4843484583,0.00096130,0.00759888,-1.00471497,0.488281,0.061035,0.000000
4848509625,0.00082397,0.00715637,-1.00561523,0.366211,0.061035,0.061035
4853495250,0.00131226,0.00733948,-1.00683594,0.305176,0.122070,0.000000
4858504125,0.00228882,0.00772095,-1.00747681,0.305176,0.000000,-0.122070
4863485583,0.00305176,0.00781250,-1.00709534,0.122070,0.061035,-0.061035
4868488833,0.00292969,0.00770569,-1.00599670,0.244141,0.061035,-0.122070
4873498041,0.00215149,0.00765991,-1.00512695,0.366211,0.122070,-0.122070
4878519583,0.00148010,0.00755310,-1.00521851,0.305176,-0.061035,0.000000
4883497333,0.00119019,0.00759888,-1.00611877,0.366211,0.122070,-0.122070
4888498458,0.00108337,0.00793457,-1.00691223,0.427246,0.122070,0.000000
4893495291,0.00122070,0.00810242,-1.00686646,0.366211,0.000000,-0.061035
4898501666,0.00154114,0.00804138,-1.00642395,0.183105,0.000000,0.000000
4903518541,0.00202942,0.00827026,-1.00611877,0.183105,0.061035,-0.122070
4908512708,0.00247192,0.00852966,-1.00608826,0.366211,0.000000,-0.061035
4913491250,0.00277710,0.00856018,-1.00645447,0.366211,0.183105,0.000000
4918495041,0.00280762,0.00825500,-1.00717163,0.366211,0.122070,-0.061035
4923498416,0.00233459,0.00765991,-1.00761414,0.427246,-0.122070,-0.122070
4928510166,0.00167847,0.00723267,-1.00730896,0.244141,0.000000,0.000000
4933496208,0.00155640,0.00701904,-1.00648499,0.183105,0.000000,-0.061035
4938511083,0.00215149,0.00698853,-1.00561523,0.305176,0.000000,-0.183105
4943564625,0.00267029,0.00752258,-1.00544739,0.305176,0.000000,0.000000
4948494750,0.00248718,0.00825500,-1.00630188,0.244141,-0.122070,-0.061035
4953492458,0.00219727,0.00808716,-1.00723267,0.366211,0.061035,0.000000
4958515375,0.00210571,0.00714111,-1.00737000,0.305176,0.061035,-0.061035
4963488041,0.00207520,0.00665283,-1.00692749,0.122070,0.061035,-0.122070
4968535125,0.00186157,0.00714111,-1.00660706,0.183105,0.000000,-0.183105
4973497541,0.00170898,0.00811768,-1.00654602,0.366211,0.000000,0.061035
4978534875,0.00166321,0.00891113,-1.00665283,0.488281,0.000000,-0.183105
4983498541,0.00137329,0.00904846,-1.00691223,0.427246,0.061035,-0.122070
4988504583,0.00097656,0.00857544,-1.00700378,0.244141,0.061035,-0.183105
4993525208,0.00080872,0.00805664,-1.00691223,0.427246,0.122070,-0.122070
4998529166,0.00120544,0.00788879,-1.00682068,0.427246,0.000000,-0.061035
5003506833,0.00212097,0.00784302,-1.00668335,0.305176,-0.061035,-0.061035
5008529500,0.00260925,0.00776672,-1.00654602,0.366211,0.183105,0.061035
5013550708,0.00201416,0.00787354,-1.00662231,0.427246,0.122070,0.000000
5018513166,0.00122070,0.00823975,-1.00671387,0.305176,0.000000,0.061035
5023573708,0.00141907,0.00852966,-1.00679016,0.366211,0.000000,0.000000
5028530333,0.00242615,0.00822449,-1.00683594,0.427246,-0.061035,-0.183105
5033503083,0.00297546,0.00775146,-1.00677490,0.427246,0.122070,-0.061035
5038527458,0.00263977,0.00784302,-1.00656128,0.183105,0.122070,-0.122070
5043609000,0.00187683,0.00807190,-1.00648499,0.427246,0.061035,0.000000
5048515958,0.00144958,0.00798035,-1.00634766,0.488281,0.061035,-0.122070
5053533708,0.00158691,0.00770569,-1.00604248,0.366211,0.000000,-0.122070
5058549625,0.00170898,0.00744629,-1.00584412,0.366211,0.061035,0.000000
5063533375,0.00183105,0.00743103,-1.00585938,0.427246,0.061035,-0.061035
5068557208,0.00215149,0.00765991,-1.00605774,0.305176,0.061035,0.000000
5073511250,0.00196838,0.00781250,-1.00617981,0.427246,0.061035,-0.061035
5078576750,0.00122070,0.00769043,-1.00625610,0.305176,0.061035,-0.183105
5083538333,0.00103760,0.00750732,-1.00646973,0.244141,0.061035,0.000000
5088515791,0.00167847,0.00769043,-1.00666809,0.488281,0.000000,0.000000
5093642375,0.00231934,0.00807190,-1.00656128,0.366211,0.122070,-0.122070
5098560333,0.00231934,0.00813293,-1.00625610,0.244141,0.000000,-0.122070
5103527000,0.00175476,0.00791931,-1.00616455,0.183105,-0.061035,-0.061035
5108524041,0.00115967,0.00804138,-1.00668335,0.244141,0.061035,-0.183105
5113544041,0.00108337,0.00883484,-1.00735474,0.366211,-0.061035,-0.061035
5118523125,0.00152588,0.00947571,-1.00746155,0.366211,0.000000,-0.061035
5123589958,0.00204468,0.00894165,-1.00692749,0.244141,0.122070,-0.183105
5128522458,0.00205994,0.00776672,-1.00659180,0.427246,-0.061035,-0.061035
5133508291,0.00172424,0.00724792,-1.00679016,0.061035,0.000000,-0.061035
5138528541,0.00199890,0.00727844,-1.00576782,0.183105,0.244141,0.000000
5143566708,0.00207520,0.00648499,-1.00373840,0.915527,0.000000,-0.061035
5148585000,0.00007629,0.00514221,-1.00975037,0.122070,0.000000,-0.061035
5153516666,-0.00238037,0.00506592,-1.01742554,0.061035,0.122070,-0.122070
5158571916,-0.00207520,0.00671387,-1.00610352,0.732422,-0.061035,-0.061035
5163592875,0.00062561,0.00880432,-0.99380493,0.366211,0.000000,-0.122070
5168548208,0.00303650,0.01011658,-1.00296021,0.366211,0.000000,-0.122070
5173645166,0.00421143,0.01075745,-1.01190186,0.549316,0.061035,-0.061035
5178536416,0.00466919,0.01089478,-1.00813293,0.427246,0.000000,-0.244141
5183531916,0.00424194,0.00985718,-1.00653076,0.488281,-0.122070,-0.061035
5188601166,0.00343323,0.00781250,-1.00775146,0.244141,0.061035,-0.061035
5193542750,0.00344849,0.00653076,-1.00523376,0.244141,0.061035,-0.122070
5198517458,0.00393677,0.00686646,-1.00341797,0.366211,0.000000,-0.061035
5203544416,0.00352478,0.00772095,-1.00631714,0.366211,0.122070,0.000000
5208627791,0.00204468,0.00804138,-1.00915527,0.244141,0.000000,-0.122070
5213557458,0.00042725,0.00810242,-1.00692749,0.366211,0.061035,0.000000
5218530375,-0.00048828,0.00862122,-1.00456238,0.366211,0.244141,0.000000
5223685666,-0.00019836,0.00929260,-1.00622559,0.366211,0.061035,0.000000
5228510791,0.00109863,0.00923157,-1.00756836,0.244141,0.122070,-0.061035
5233513625,0.00231934,0.00863647,-1.00657654,0.244141,0.061035,-0.244141
5238537333,0.00302124,0.00842285,-1.00535583,0.305176,0.122070,-0.122070
5243547750,0.00321960,0.00834656,-1.00480652,0.305176,0.000000,-0.061035
5248565083,0.00302124,0.00785828,-1.00532532,0.305176,0.061035,-0.122070
5253602875,0.00273132,0.00733948,-1.00627136,0.488281,0.061035,-0.061035
5258540750,0.00202942,0.00729370,-1.00708008,0.366211,0.061035,-0.183105
5263570125,0.00074768,0.00753784,-1.00822449,0.427246,0.000000,-0.061035
5268534916,0.00003052,0.00756836,-1.00779724,0.244141,0.061035,-0.061035
5273557000,0.00097656,0.00732422,-1.00474548,0.366211,0.122070,-0.122070
5278611750,0.00257874,0.00691223,-1.00262451,0.488281,0.000000,0.000000
5283567708,0.00300598,0.00653076,-1.00596619,0.244141,0.122070,-0.122070
5288547625,0.00245667,0.00636292,-1.01069641,0.427246,0.000000,-0.061035
5293560833,0.00218201,0.00613403,-1.00961304,0.427246,0.000000,-0.183105
5298547791,0.00236511,0.00598145,-1.00674438,0.366211,0.122070,0.000000
5303532416,0.00262451,0.00682068,-1.00627136,0.244141,0.061035,-0.061035
5308594166,0.00259399,0.00859070,-1.00532532,0.366211,0.061035,-0.122070
5313546916,0.00219727,0.00990295,-1.00463867,0.366211,0.061035,-0.122070
5318547083,0.00189209,0.00971985,-1.00602722,0.488281,0.061035,-0.061035
5323623416,0.00172424,0.00836182,-1.00720215,0.305176,0.061035,0.000000
5328591541,0.00146484,0.00708008,-1.00711060,0.427246,0.061035,-0.183105
5333555041,0.00140381,0.00663757,-1.00738525,0.366211,0.000000,-0.183105
5338594416,0.00167847,0.00692749,-1.00831604,0.366211,0.000000,-0.122070
5343574333,0.00161743,0.00772095,-1.00808716,0.366211,0.122070,-0.061035
5348546166,0.00097656,0.00839233,-1.00668335,0.427246,-0.061035,-0.061035
5353551708,0.00044250,0.00836182,-1.00633240,0.610352,0.000000,-0.122070
5358682333,0.00033569,0.00808716,-1.00697327,0.244141,0.061035,-0.122070
5363539291,0.00025940,0.00839233,-1.00685120,0.366211,0.061035,-0.061035
5368555666,0.00018311,0.00880432,-1.00654602,0.427246,0.000000,-0.122070
5373553208,0.00048828,0.00840759,-1.00723267,0.305176,-0.122070,0.122070
5378580875,0.00091553,0.00784302,-1.00804138,0.183105,0.000000,-0.061035
5383555250,0.00137329,0.00794983,-1.00770569,0.305176,0.000000,-0.122070
5388538916,0.00227356,0.00839233,-1.00669861,0.305176,0.000000,-0.061035
5393636750,0.00312805,0.00877380,-1.00639343,0.488281,0.000000,0.000000
5398698416,0.00308228,0.00915527,-1.00631714,0.305176,0.061035,0.000000
5403599833,0.00283813,0.00976562,-1.00601196,0.427246,0.000000,-0.061035
5408582500,0.00340271,0.01023865,-1.00688171,0.427246,0.061035,-0.122070
5413553125,0.00398254,0.01028442,-1.00877380,0.305176,0.061035,-0.061035
5418553708,0.00361633,0.00982666,-1.00871277,0.427246,0.061035,0.000000
5423549250,0.00279236,0.00886536,-1.00624084,0.488281,0.000000,-0.061035
5428549750,0.00215149,0.00796509,-1.00427246,0.488281,0.000000,-0.183105
5433550416,0.00169373,0.00761414,-1.00416565,0.427246,0.122070,-0.122070
5438543791,0.00157166,0.00761414,-1.00486755,0.183105,0.000000,-0.183105
5443592500,0.00167847,0.00770569,-1.00527954,0.305176,0.061035,0.000000
5448548166,0.00131226,0.00787354,-1.00601196,0.366211,0.122070,-0.122070
5453541500,0.00054932,0.00782776,-1.00805664,0.366211,-0.061035,0.000000
5458537958,0.00044250,0.00735474,-1.00895691,0.305176,0.000000,-0.061035
5463590000,0.00100708,0.00675964,-1.00563049,0.305176,0.122070,0.000000
5468544875,0.00148010,0.00680542,-1.00268555,0.488281,0.061035,-0.122070
5473544458,0.00164795,0.00755310,-1.00534058,0.366211,0.061035,0.000000
5478537583,0.00180054,0.00805664,-1.00888062,0.122070,0.122070,-0.122070
5483551500,0.00184631,0.00808716,-1.00877380,0.366211,0.061035,0.061035
5488565125,0.00170898,0.00811768,-1.00714111,0.366211,-0.122070,-0.122070
5493576958,0.00170898,0.00819397,-1.00616455,0.305176,0.122070,-0.061035
5498562125,0.00189209,0.00784302,-1.00570679,0.244141,0.122070,-0.061035
5503542041,0.00207520,0.00704956,-1.00596619,0.427246,0.061035,-0.061035
5508562666,0.00242615,0.00657654,-1.00680542,0.183105,0.122070,-0.244141
5513558083,0.00268555,0.00704956,-1.00720215,0.366211,0.061035,-0.183105
5518561791,0.00260925,0.00793457,-1.00656128,0.305176,0.183105,-0.122070
5523542875,0.00257874,0.00849915,-1.00595093,0.427246,0.244141,0.061035
5528576791,0.00292969,0.00875854,-1.00654602,0.305176,0.000000,-0.183105
5533560291,0.00308228,0.00875854,-1.00694275,0.366211,0.000000,-0.183105
5538554166,0.00279236,0.00834656,-1.00613403,0.244141,0.183105,-0.183105
5543560375,0.00268555,0.00791931,-1.00604248,0.305176,0.183105,-0.061035
5548566333,0.00279236,0.00790405,-1.00674438,0.488281,-0.122070,-0.122070
5553539166,0.00238037,0.00799561,-1.00636292,0.366211,-0.061035,-0.183105
5558557291,0.00160217,0.00767517,-1.00555420,0.488281,0.000000,0.000000
5563570000,0.00122070,0.00720215,-1.00563049,0.366211,0.000000,0.000000
5568565041,0.00135803,0.00698853,-1.00581360,0.305176,0.061035,-0.061035
5573567958,0.00170898,0.00723267,-1.00573730,0.305176,0.000000,0.000000
5578543875,0.00204468,0.00770569,-1.00613403,0.366211,-0.061035,-0.122070
5583558708,0.00219727,0.00827026,-1.00659180,0.305176,0.183105,-0.122070
5588561791,0.00241089,0.00904846,-1.00614929,0.427246,0.000000,-0.061035
5593543500,0.00241089,0.00965881,-1.00540161,0.366211,0.000000,-0.061035
5598564625,0.00195312,0.00967407,-1.00575256,0.366211,0.122070,-0.122070
5603565541,0.00149536,0.00929260,-1.00656128,0.366211,0.122070,-0.122070
5608572583,0.00151062,0.00880432,-1.00643921,0.366211,0.183105,-0.061035
5613526541,0.00186157,0.00833130,-1.00619507,0.305176,0.061035,-0.244141
5618589208,0.00207520,0.00802612,-1.00671387,0.427246,0.122070,-0.122070
5623552333,0.00198364,0.00794983,-1.00730896,0.244141,0.000000,-0.122070
5628609041,0.00216675,0.00816345,-1.00689697,0.305176,0.061035,-0.122070
5633563125,0.00263977,0.00837708,-1.00607300,0.366211,0.122070,-0.122070
5638575333,0.00283813,0.00813293,-1.00585938,0.244141,0.000000,-0.122070
5643551166,0.00247192,0.00759888,-1.00570679,0.366211,0.061035,-0.183105
5648561166,0.00216675,0.00762939,-1.00566101,0.427246,-0.061035,0.000000
5653565375,0.00248718,0.00823975,-1.00627136,0.366211,0.061035,-0.122070
5658576083,0.00285339,0.00839233,-1.00698853,0.427246,0.061035,0.000000
5663577291,0.00234985,0.00772095,-1.00704956,0.244141,0.061035,-0.183105
5668523958,0.00140381,0.00680542,-1.00646973,0.366211,0.000000,0.061035
5673594750,0.00103760,0.00662231,-1.00610352,0.305176,0.061035,-0.305176
5678578625,0.00128174,0.00732422,-1.00663757,0.305176,-0.061035,-0.122070
5683560125,0.00163269,0.00778198,-1.00741577,0.305176,0.122070,0.000000
5688574916,0.00192261,0.00749207,-1.00741577,0.366211,0.000000,-0.061035
5693593333,0.00195312,0.00746155,-1.00708008,0.366211,0.061035,-0.183105
5698586500,0.00177002,0.00831604,-1.00709534,0.366211,0.000000,-0.183105
5703569000,0.00192261,0.00927734,-1.00709534,0.427246,0.183105,-0.061035
5708575541,0.00242615,0.00910950,-1.00662231,0.366211,0.061035,-0.122070
5713550916,0.00280762,0.00816345,-1.00630188,0.183105,0.061035,-0.061035
5718575541,0.00254822,0.00798035,-1.00671387,0.427246,-0.061035,-0.183105
5723638291,0.00201416,0.00843811,-1.00706482,0.244141,0.000000,-0.244141
5728571666,0.00224304,0.00845337,-1.00665283,0.305176,0.000000,-0.061035
5733587375,0.00273132,0.00796509,-1.00656128,0.305176,0.061035,0.000000
5738580916,0.00236511,0.00743103,-1.00743103,0.305176,0.000000,0.000000
5743592416,0.00160217,0.00697327,-1.00772095,0.305176,-0.061035,0.000000
5748577208,0.00111389,0.00689697,-1.00704956,0.244141,0.061035,0.000000
5753572125,0.00103760,0.00746155,-1.00688171,0.305176,0.061035,-0.122070
5758560583,0.00126648,0.00825500,-1.00733948,0.305176,0.000000,-0.061035
5763572083,0.00148010,0.00851440,-1.00718689,0.366211,0.000000,-0.061035
5768591083,0.00167847,0.00823975,-1.00607300,0.427246,0.122070,-0.183105
5773576833,0.00204468,0.00787354,-1.00527954,0.488281,0.000000,-0.122070
5778589875,0.00238037,0.00773621,-1.00585938,0.366211,0.122070,-0.122070
5783573083,0.00228882,0.00775146,-1.00700378,0.305176,0.122070,-0.183105
5788577666,0.00187683,0.00765991,-1.00741577,0.366211,0.061035,-0.122070
5793624083,0.00151062,0.00749207,-1.00645447,0.427246,-0.061035,-0.061035
5798596208,0.00148010,0.00765991,-1.00559998,0.427246,0.122070,-0.122070
5803561375,0.00198364,0.00778198,-1.00578308,0.366211,0.122070,-0.061035
5808601458,0.00274658,0.00740051,-1.00599670,0.244141,0.183105,-0.061035
5813559250,0.00326538,0.00721741,-1.00602722,0.488281,0.061035,-0.061035
5818586541,0.00318909,0.00770569,-1.00665283,0.427246,0.061035,-0.183105
5823560083,0.00279236,0.00819397,-1.00737000,0.366211,0.061035,-0.122070
5828630958,0.00273132,0.00804138,-1.00708008,0.427246,0.122070,0.061035
5833571583,0.00274658,0.00744629,-1.00643921,0.305176,0.061035,-0.122070
5838628666,0.00241089,0.00704956,-1.00619507,0.244141,0.244141,-0.061035
5843575875,0.00215149,0.00712585,-1.00624084,0.305176,0.122070,-0.061035
5848583916,0.00209045,0.00729370,-1.00656128,0.366211,0.122070,-0.061035
5853578416,0.00201416,0.00740051,-1.00756836,0.366211,0.183105,-0.122070
5858582708,0.00187683,0.00758362,-1.00840759,0.183105,0.061035,-0.061035
5863589791,0.00166321,0.00778198,-1.00781250,0.305176,0.061035,-0.244141
5868568291,0.00146484,0.00782776,-1.00674438,0.488281,0.061035,0.000000
5873569125,0.00148010,0.00767517,-1.00637817,0.244141,-0.061035,0.000000
5878591083,0.00186157,0.00743103,-1.00633240,0.305176,0.122070,0.000000
5883587708,0.00233459,0.00750732,-1.00654602,0.366211,0.000000,-0.061035
5888577666,0.00221252,0.00805664,-1.00749207,0.244141,0.000000,-0.183105
5893622791,0.00167847,0.00840759,-1.00790405,0.244141,0.061035,-0.061035
5898614958,0.00154114,0.00819397,-1.00648499,0.305176,0.061035,-0.183105
5903572083,0.00196838,0.00802612,-1.00549316,0.305176,0.061035,-0.122070
5908592083,0.00244141,0.00814819,-1.00697327,0.244141,0.061035,-0.061035
5913564250,0.00262451,0.00828552,-1.00781250,0.244141,-0.061035,-0.061035
5918591875,0.00224304,0.00817871,-1.00653076,0.305176,0.000000,-0.122070
5923584875,0.00160217,0.00791931,-1.00625610,0.305176,0.061035,-0.061035
5928609625,0.00166321,0.00784302,-1.00727844,0.305176,0.000000,-0.122070
5933586541,0.00216675,0.00790405,-1.00741577,0.427246,0.061035,-0.122070
5938593750,0.00225830,0.00793457,-1.00711060,0.366211,0.000000,-0.122070
5943588083,0.00202942,0.00767517,-1.00737000,0.427246,0.122070,-0.061035
5948601791,0.00199890,0.00729370,-1.00746155,0.122070,0.000000,-0.183105
5953588083,0.00244141,0.00737000,-1.00668335,0.244141,-0.061035,0.000000
5958596458,0.00306702,0.00744629,-1.00538635,0.366211,0.061035,0.000000
5963607083,0.00325012,0.00715637,-1.00514221,0.244141,-0.061035,-0.122070
5968596791,0.00280762,0.00704956,-1.00646973,0.427246,0.000000,-0.061035
5973572000,0.00221252,0.00708008,-1.00749207,0.305176,0.061035,-0.183105
5978598708,0.00205994,0.00697327,-1.00729370,0.427246,0.061035,-0.061035
5983661250,0.00209045,0.00697327,-1.00663757,0.366211,0.061035,-0.183105
5988610166,0.00164795,0.00730896,-1.00593567,0.366211,0.061035,-0.122070
5993622166,0.00099182,0.00776672,-1.00572205,0.366211,0.000000,-0.122070
5998634458,0.00090027,0.00816345,-1.00633240,0.305176,0.122070,-0.122070
6003592208,0.00126648,0.00860596,-1.00738525,0.244141,0.000000,-0.244141
6008589958,0.00160217,0.00909424,-1.00773621,0.427246,0.122070,-0.061035
6013571041,0.00169373,0.00946045,-1.00675964,0.366211,0.122070,-0.183105
6018601875,0.00157166,0.00959778,-1.00585938,0.305176,0.122070,0.000000
6023582250,0.00144958,0.00926208,-1.00616455,0.427246,0.000000,0.000000
6028621166,0.00141907,0.00862122,-1.00717163,0.427246,-0.061035,-0.061035
6033602375,0.00131226,0.00828552,-1.00814819,0.427246,0.061035,-0.183105
6038628708,0.00109863,0.00854492,-1.00801086,0.183105,0.061035,-0.122070
6043621416,0.00119019,0.00907898,-1.00659180,0.366211,0.000000,-0.061035
6048592500,0.00154114,0.00933838,-1.00550842,0.183105,-0.061035,-0.122070
6053599125,0.00170898,0.00927734,-1.00552368,0.305176,0.122070,-0.061035
6058617583,0.00189209,0.00897217,-1.00595093,0.305176,0.122070,-0.061035
6063576583,0.00242615,0.00857544,-1.00640869,0.244141,0.183105,0.000000
6068604333,0.00311279,0.00825500,-1.00704956,0.244141,0.122070,0.000000
6073606541,0.00341797,0.00793457,-1.00746155,0.427246,0.000000,-0.061035
6078594500,0.00303650,0.00750732,-1.00723267,0.488281,0.122070,-0.122070
6083571916,0.00228882,0.00726318,-1.00700378,0.366211,0.000000,-0.061035
6088649625,0.00184631,0.00724792,-1.00708008,0.366211,0.061035,-0.061035
6093600041,0.00164795,0.00740051,-1.00697327,0.305176,0.061035,0.000000
6098630708,0.00131226,0.00762939,-1.00679016,0.244141,0.000000,-0.122070
6103580791,0.00117493,0.00770569,-1.00675964,0.305176,0.061035,0.000000
6108606875,0.00135803,0.00765991,-1.00654602,0.244141,0.122070,-0.122070
6113593458,0.00169373,0.00781250,-1.00611877,0.305176,0.122070,-0.122070
6118607625,0.00207520,0.00804138,-1.00575256,0.305176,0.122070,0.000000
6123595458,0.00238037,0.00816345,-1.00614929,0.305176,0.000000,0.000000
6128626458,0.00247192,0.00839233,-1.00718689,0.427246,0.122070,-0.061035
6133625875,0.00227356,0.00845337,-1.00775146,0.305176,0.000000,-0.183105
6138643458,0.00192261,0.00811768,-1.00726318,0.305176,0.061035,-0.122070
6143591041,0.00180054,0.00776672,-1.00650024,0.427246,0.122070,-0.122070
6148599625,0.00178528,0.00796509,-1.00622559,0.366211,0.061035,-0.122070
6153608333,0.00178528,0.00849915,-1.00630188,0.488281,0.183105,0.000000
6158603375,0.00190735,0.00865173,-1.00646973,0.366211,0.061035,-0.183105
6163624791,0.00201416,0.00846863,-1.00659180,0.427246,0.000000,-0.122070
6168642166,0.00178528,0.00848389,-1.00640869,0.366211,0.122070,-0.122070
6173622541,0.00155640,0.00851440,-1.00622559,0.244141,0.061035,-0.122070
6178609666,0.00186157,0.00828552,-1.00639343,0.244141,0.244141,-0.122070
6183602125,0.00268555,0.00784302,-1.00688171,0.488281,0.244141,-0.061035
6188635291,0.00309753,0.00738525,-1.00712585,0.244141,0.122070,0.000000
6193600458,0.00239563,0.00712585,-1.00679016,0.183105,0.000000,-0.183105
6198614541,0.00137329,0.00726318,-1.00637817,0.305176,0.000000,-0.122070
6203589833,0.00111389,0.00747681,-1.00619507,0.427246,0.061035,-0.183105
6208621916,0.00134277,0.00746155,-1.00613403,0.366211,0.061035,-0.061035
6213623000,0.00151062,0.00732422,-1.00637817,0.244141,0.000000,-0.061035
6218588250,0.00149536,0.00727844,-1.00657654,0.305176,-0.061035,-0.061035
6223607125,0.00140381,0.00724792,-1.00634766,0.427246,0.122070,-0.061035
6228632791,0.00128174,0.00738525,-1.00605774,0.366211,0.122070,-0.061035
6233620083,0.00134277,0.00802612,-1.00611877,0.366211,0.122070,0.000000
6238627333,0.00175476,0.00886536,-1.00616455,0.488281,0.000000,-0.061035
6243657833,0.00253296,0.00907898,-1.00622559,0.244141,0.061035,-0.061035
6248617625,0.00318909,0.00860596,-1.00665283,0.305176,0.061035,0.000000
6253612916,0.00306702,0.00813293,-1.00715637,0.366211,0.183105,0.000000
6258641958,0.00236511,0.00765991,-1.00703430,0.427246,0.122070,-0.061035
6263638333,0.00204468,0.00695801,-1.00616455,0.305176,0.244141,0.000000
6268649458,0.00230408,0.00634766,-1.00563049,0.305176,0.122070,-0.122070
6273617750,0.00231934,0.00631714,-1.00621033,0.183105,0.061035,0.000000
6278626291,0.00198364,0.00680542,-1.00715637,0.305176,0.061035,-0.122070
6283623333,0.00207520,0.00727844,-1.00761414,0.305176,0.061035,-0.244141
6288618208,0.00274658,0.00772095,-1.00776672,0.244141,0.061035,-0.061035
6293611541,0.00340271,0.00860596,-1.00778198,0.305176,0.061035,-0.183105
6298664125,0.00363159,0.00955200,-1.00708008,0.305176,0.122070,-0.061035
6303634375,0.00358582,0.00970459,-1.00541687,0.427246,0.061035,-0.122070
6308620291,0.00303650,0.00892639,-1.00479126,0.366211,0.061035,-0.122070
6313612291,0.00186157,0.00782776,-1.00625610,0.366211,0.061035,-0.183105
6318624291,0.00085449,0.00721741,-1.00796509,0.122070,0.122070,-0.061035
6323698750,0.00021362,0.00717163,-1.00804138,0.366211,0.000000,-0.122070
6328630291,0.00004578,0.00740051,-1.00679016,0.305176,0.061035,-0.122070
6333647791,0.00064087,0.00781250,-1.00573730,0.244141,0.122070,0.000000
6338628250,0.00164795,0.00836182,-1.00573730,0.305176,0.122070,-0.122070
6343618041,0.00212097,0.00885010,-1.00633240,0.305176,0.061035,-0.061035
6348646041,0.00184631,0.00897217,-1.00700378,0.244141,0.061035,-0.061035
6353616583,0.00146484,0.00862122,-1.00724792,0.244141,0.000000,-0.122070
6358632708,0.00140381,0.00822449,-1.00680542,0.244141,0.122070,0.000000
6363619166,0.00170898,0.00791931,-1.00613403,0.305176,0.000000,-0.061035
6368617208,0.00233459,0.00758362,-1.00575256,0.427246,0.183105,-0.183105
6373637583,0.00267029,0.00727844,-1.00570679,0.305176,-0.061035,-0.122070
6378615791,0.00238037,0.00698853,-1.00628662,0.366211,0.000000,-0.122070
6383640958,0.00198364,0.00682068,-1.00726318,0.366211,0.061035,-0.061035
6388675125,0.00205994,0.00688171,-1.00753784,0.427246,0.061035,0.061035
6393683666,0.00230408,0.00711060,-1.00668335,0.366211,0.061035,-0.183105
6398697750,0.00227356,0.00712585,-1.00550842,0.305176,0.000000,-0.061035
6403610875,0.00187683,0.00692749,-1.00546265,0.244141,0.000000,0.061035
6408630458,0.00164795,0.00694275,-1.00671387,0.305176,0.000000,-0.122070
6413618583,0.00196838,0.00737000,-1.00767517,0.244141,0.061035,-0.061035
6418625041,0.00238037,0.00804138,-1.00721741,0.244141,0.122070,-0.061035
6423641333,0.00251770,0.00866699,-1.00622559,0.366211,0.122070,-0.122070
6428661291,0.00247192,0.00907898,-1.00581360,0.488281,0.122070,0.000000
6433626875,0.00239563,0.00904846,-1.00588989,0.366211,0.000000,-0.061035
6438663250,0.00216675,0.00863647,-1.00611877,0.244141,-0.061035,-0.122070
6443661708,0.00170898,0.00846863,-1.00645447,0.366211,0.061035,-0.122070
6448644458,0.00123596,0.00863647,-1.00631714,0.427246,0.122070,0.000000
6453627250,0.00119019,0.00868225,-1.00575256,0.427246,0.122070,-0.061035
6458628291,0.00160217,0.00820923,-1.00575256,0.305176,0.000000,-0.122070
6463642541,0.00183105,0.00772095,-1.00660706,0.244141,0.000000,-0.122070
6468638208,0.00163269,0.00799561,-1.00738525,0.366211,0.061035,-0.244141
6473670541,0.00134277,0.00860596,-1.00752258,0.366211,0.000000,0.000000
6478642416,0.00108337,0.00874329,-1.00729370,0.366211,0.000000,-0.061035
6483628708,0.00108337,0.00846863,-1.00698853,0.366211,0.122070,-0.183105
6488640833,0.00160217,0.00828552,-1.00692749,0.366211,0.000000,-0.122070
6493675833,0.00216675,0.00811768,-1.00721741,0.305176,0.061035,-0.122070
6498668333,0.00195312,0.00765991,-1.00737000,0.427246,0.061035,0.061035
6503632250,0.00149536,0.00708008,-1.00711060,0.244141,0.183105,-0.061035
6508643083,0.00177002,0.00688171,-1.00695801,0.305176,0.183105,-0.183105
6513620208,0.00233459,0.00738525,-1.00695801,0.427246,0.061035,-0.183105
6518631083,0.00245667,0.00819397,-1.00651550,0.305176,0.122070,-0.122070
6523649041,0.00221252,0.00857544,-1.00575256,0.244141,0.183105,0.000000
6528673833,0.00216675,0.00843811,-1.00537109,0.305176,0.061035,-0.122070
6533653750,0.00221252,0.00816345,-1.00575256,0.366211,0.061035,-0.122070
6538676250,0.00193787,0.00793457,-1.00669861,0.305176,0.061035,-0.061035
6543638750,0.00155640,0.00779724,-1.00746155,0.183105,0.061035,0.000000
6548647625,0.00132751,0.00773621,-1.00723267,0.244141,0.122070,-0.122070
6553659458,0.00097656,0.00749207,-1.00633240,0.244141,0.122070,-0.122070
6558624458,0.00056458,0.00717163,-1.00576782,0.366211,0.061035,-0.183105
6563642041,0.00067139,0.00753784,-1.00585938,0.305176,0.061035,-0.122070
6568685250,0.00132751,0.00839233,-1.00634766,0.366211,0.061035,0.000000
6573671250,0.00190735,0.00878906,-1.00666809,0.305176,0.183105,-0.061035
6578644958,0.00205994,0.00843811,-1.00674438,0.366211,0.122070,-0.061035
6583635750,0.00198364,0.00801086,-1.00650024,0.366211,0.000000,-0.122070
6588643666,0.00192261,0.00776672,-1.00610352,0.366211,0.000000,-0.122070
6593639125,0.00187683,0.00733948,-1.00610352,0.427246,0.061035,-0.061035
6598656083,0.00167847,0.00715637,-1.00643921,0.305176,0.061035,0.000000
6603627208,0.00149536,0.00747681,-1.00653076,0.427246,0.061035,-0.183105
6608634666,0.00148010,0.00769043,-1.00646973,0.305176,-0.061035,-0.122070
6613639500,0.00166321,0.00762939,-1.00665283,0.183105,0.000000,-0.122070
6618655000,0.00218201,0.00761414,-1.00709534,0.366211,0.000000,-0.061035
6623655916,0.00254822,0.00753784,-1.00738525,0.305176,0.061035,0.000000
6628636000,0.00219727,0.00749207,-1.00753784,0.244141,0.061035,-0.122070
6633672625,0.00141907,0.00764465,-1.00741577,0.427246,0.061035,-0.061035
6638653750,0.00083923,0.00767517,-1.00659180,0.366211,0.061035,-0.061035
6643653958,0.00086975,0.00744629,-1.00564575,0.427246,0.000000,-0.122070
6648652708,0.00160217,0.00729370,-1.00563049,0.427246,0.122070,-0.061035
6653633416,0.00248718,0.00737000,-1.00645447,0.366211,0.061035,-0.122070
6658653791,0.00285339,0.00776672,-1.00709534,0.305176,0.000000,-0.122070
6663655000,0.00286865,0.00808716,-1.00691223,0.366211,0.061035,0.000000
6668678208,0.00296021,0.00793457,-1.00624084,0.366211,0.061035,0.000000
6673655041,0.00308228,0.00791931,-1.00595093,0.366211,0.122070,-0.061035
6678647083,0.00280762,0.00836182,-1.00630188,0.305176,0.061035,-0.122070
6683629833,0.00187683,0.00866699,-1.00662231,0.305176,0.000000,-0.122070
6688667041,0.00090027,0.00830078,-1.00653076,0.183105,0.122070,-0.061035
6693700666,0.00085449,0.00779724,-1.00672913,0.427246,0.000000,-0.061035
6698694750,0.00163269,0.00767517,-1.00701904,0.305176,0.183105,-0.122070
6703656750,0.00248718,0.00776672,-1.00701904,0.305176,0.061035,0.061035
6708688125,0.00303650,0.00790405,-1.00697327,0.549316,0.305176,-0.122070
6713628875,0.00331116,0.00813293,-1.00711060,0.305176,0.000000,0.000000
6718653000,0.00317383,0.00833130,-1.00708008,0.183105,-0.061035,-0.122070
6723631250,0.00254822,0.00849915,-1.00672913,0.183105,0.000000,-0.061035
6728669166,0.00181580,0.00854492,-1.00622559,0.244141,0.061035,-0.061035
6733666625,0.00161743,0.00843811,-1.00588989,0.244141,0.122070,-0.061035
6738669500,0.00169373,0.00833130,-1.00592041,0.305176,0.122070,-0.061035
6743677541,0.00160217,0.00840759,-1.00633240,0.366211,0.000000,0.000000
6748665500,0.00140381,0.00865173,-1.00679016,0.305176,0.061035,-0.244141
6753642791,0.00117493,0.00874329,-1.00689697,0.305176,0.061035,-0.122070
6758653583,0.00112915,0.00834656,-1.00662231,0.366211,0.000000,-0.122070
6763639500,0.00148010,0.00773621,-1.00624084,0.366211,0.183105,-0.061035
6768688500,0.00205994,0.00772095,-1.00593567,0.549316,0.122070,-0.122070
6773663750,0.00233459,0.00816345,-1.00582886,0.244141,-0.061035,-0.183105
6778668291,0.00201416,0.00820923,-1.00595093,0.427246,0.061035,0.000000
6783640375,0.00173950,0.00776672,-1.00642395,0.488281,0.000000,0.061035
6788660250,0.00193787,0.00769043,-1.00701904,0.488281,0.122070,-0.122070
6793743125,0.00196838,0.00805664,-1.00717163,0.366211,0.061035,-0.122070
6798696333,0.00141907,0.00817871,-1.00637817,0.244141,0.061035,-0.122070
6803662875,0.00103760,0.00778198,-1.00556946,0.305176,0.061035,-0.122070
6808660583,0.00138855,0.00747681,-1.00595093,0.244141,0.000000,-0.122070
6813650625,0.00172424,0.00759888,-1.00691223,0.488281,0.000000,-0.061035
6818658041,0.00161743,0.00779724,-1.00746155,0.366211,0.122070,-0.122070
6823646458,0.00144958,0.00784302,-1.00714111,0.427246,0.183105,-0.122070
6828664333,0.00137329,0.00779724,-1.00666809,0.366211,0.000000,-0.122070
6833665083,0.00135803,0.00762939,-1.00672913,0.305176,0.000000,-0.122070
6838700916,0.00157166,0.00718689,-1.00715637,0.244141,0.000000,-0.183105
6843654750,0.00183105,0.00711060,-1.00746155,0.305176,0.000000,0.000000
6848677583,0.00180054,0.00752258,-1.00706482,0.366211,0.061035,-0.122070
6853667791,0.00192261,0.00773621,-1.00601196,0.244141,0.000000,-0.122070
6858675583,0.00222778,0.00765991,-1.00524902,0.305176,0.000000,-0.061035
6863685291,0.00193787,0.00755310,-1.00552368,0.305176,0.000000,-0.183105
6868698541,0.00143433,0.00765991,-1.00653076,0.244141,0.000000,-0.122070
6873684875,0.00155640,0.00805664,-1.00724792,0.366211,0.122070,-0.183105
6878676541,0.00190735,0.00846863,-1.00726318,0.244141,0.000000,-0.122070
6883650958,0.00216675,0.00881958,-1.00689697,0.366211,0.000000,-0.061035
6888674375,0.00228882,0.00904846,-1.00631714,0.427246,0.122070,-0.061035
6893681750,0.00204468,0.00886536,-1.00598145,0.427246,0.000000,-0.305176
6898692750,0.00161743,0.00837708,-1.00613403,0.366211,0.122070,-0.061035
6903686541,0.00152588,0.00813293,-1.00656128,0.244141,0.061035,0.061035
6908667583,0.00178528,0.00823975,-1.00709534,0.244141,0.061035,-0.122070
6913732875,0.00198364,0.00834656,-1.00727844,0.305176,0.061035,-0.183105
6918666916,0.00210571,0.00827026,-1.00675964,0.427246,0.122070,-0.122070
6923655708,0.00210571,0.00816345,-1.00588989,0.244141,0.122070,-0.122070
6928710000,0.00183105,0.00816345,-1.00570679,0.305176,0.122070,-0.061035
6933690291,0.00161743,0.00801086,-1.00637817,0.366211,0.000000,-0.061035
6938680750,0.00196838,0.00761414,-1.00675964,0.305176,0.183105,-0.122070
6943662708,0.00251770,0.00730896,-1.00639343,0.488281,0.122070,-0.061035
6948683750,0.00253296,0.00738525,-1.00616455,0.366211,0.061035,-0.061035
6953667541,0.00212097,0.00746155,-1.00653076,0.427246,0.000000,-0.061035
6958696375,0.00187683,0.00738525,-1.00685120,0.305176,0.122070,-0.061035
6963659708,0.00189209,0.00735474,-1.00663757,0.244141,0.000000,-0.061035
6968712500,0.00193787,0.00755310,-1.00628662,0.244141,0.000000,-0.183105
6973674375,0.00201416,0.00781250,-1.00640869,0.305176,0.122070,-0.122070
6978691500,0.00215149,0.00810242,-1.00645447,0.366211,0.122070,-0.122070
6983659166,0.00215149,0.00842285,-1.00596619,0.366211,0.000000,-0.061035
6988670500,0.00195312,0.00846863,-1.00584412,0.366211,0.122070,0.000000
6993718833,0.00167847,0.00843811,-1.00653076,0.183105,-0.061035,-0.122070
6998723166,0.00163269,0.00865173,-1.00726318,0.305176,0.061035,-0.061035
7003664375,0.00164795,0.00877380,-1.00738525,0.244141,0.000000,0.000000
7008693583,0.00135803,0.00842285,-1.00706482,0.244141,0.122070,-0.061035
7013668083,0.00117493,0.00825500,-1.00668335,0.488281,0.000000,-0.244141
7018706833,0.00123596,0.00849915,-1.00624084,0.366211,0.000000,-0.183105
7023666666,0.00132751,0.00863647,-1.00608826,0.244141,0.061035,-0.122070
7028728583,0.00166321,0.00856018,-1.00640869,0.427246,0.000000,-0.183105
7033676208,0.00219727,0.00799561,-1.00692749,0.244141,0.061035,-0.183105
7038684750,0.00234985,0.00733948,-1.00697327,0.366211,0.183105,0.061035
7043705166,0.00198364,0.00733948,-1.00657654,0.305176,-0.122070,-0.061035
7048693041,0.00152588,0.00773621,-1.00621033,0.244141,0.000000,-0.061035
7053685208,0.00129700,0.00810242,-1.00634766,0.427246,0.061035,-0.183105
7058681500,0.00155640,0.00828552,-1.00669861,0.366211,0.000000,-0.122070
7063680833,0.00231934,0.00810242,-1.00723267,0.305176,0.000000,-0.061035
7068715500,0.00285339,0.00791931,-1.00788879,0.366211,0.122070,-0.061035
7073714041,0.00247192,0.00807190,-1.00781250,0.366211,0.122070,0.000000
7078696291,0.00152588,0.00823975,-1.00683594,0.305176,0.122070,-0.122070
7083678125,0.00106812,0.00804138,-1.00611877,0.366211,0.122070,-0.061035
7088706750,0.00141907,0.00753784,-1.00631714,0.488281,0.122070,-0.122070
7093737250,0.00189209,0.00721741,-1.00660706,0.366211,0.061035,0.000000
7098729625,0.00195312,0.00703430,-1.00657654,0.366211,0.061035,0.000000
7103700833,0.00173950,0.00700378,-1.00663757,0.366211,0.122070,-0.061035
7108701791,0.00198364,0.00743103,-1.00669861,0.366211,0.061035,-0.183105
7113665791,0.00262451,0.00779724,-1.00639343,0.427246,0.061035,-0.061035
7118692708,0.00283813,0.00746155,-1.00573730,0.244141,-0.061035,0.061035
7123679875,0.00239563,0.00709534,-1.00570679,0.366211,0.000000,0.000000
7128717750,0.00177002,0.00744629,-1.00654602,0.366211,0.061035,-0.122070
7133695791,0.00141907,0.00814819,-1.00711060,0.244141,-0.061035,-0.183105
7138690916,0.00151062,0.00862122,-1.00691223,0.366211,-0.061035,-0.122070
7143670375,0.00205994,0.00843811,-1.00625610,0.244141,0.061035,-0.122070
7148697333,0.00271606,0.00776672,-1.00608826,0.305176,0.122070,-0.122070
7153700541,0.00286865,0.00744629,-1.00700378,0.366211,0.122070,-0.061035
7158706500,0.00247192,0.00764465,-1.00796509,0.305176,0.000000,-0.183105
7163671375,0.00198364,0.00796509,-1.00778198,0.366211,0.000000,-0.183105
7168692916,0.00170898,0.00813293,-1.00697327,0.366211,-0.061035,-0.061035
7173743416,0.00172424,0.00799561,-1.00653076,0.244141,0.000000,-0.061035
7178751958,0.00180054,0.00781250,-1.00646973,0.244141,0.122070,0.000000
7183788625,0.00172424,0.00776672,-1.00628662,0.244141,0.000000,-0.122070
7188760333,0.00192261,0.00787354,-1.00630188,0.244141,0.000000,-0.122070
7193731166,0.00228882,0.00810242,-1.00657654,0.366211,0.000000,0.000000
7198710416,0.00218201,0.00810242,-1.00672913,0.305176,0.061035,-0.122070
7203692916,0.00152588,0.00798035,-1.00694275,0.427246,0.000000,-0.061035
7208697500,0.00117493,0.00791931,-1.00723267,0.427246,0.000000,-0.061035
7213708208,0.00163269,0.00769043,-1.00715637,0.305176,0.000000,-0.061035
7218690125,0.00222778,0.00733948,-1.00660706,0.549316,0.061035,-0.122070
7223679500,0.00216675,0.00706482,-1.00598145,0.427246,0.000000,-0.122070
7228707250,0.00152588,0.00704956,-1.00578308,0.366211,0.122070,-0.183105
7233691250,0.00076294,0.00759888,-1.00619507,0.305176,0.000000,-0.122070
7238697375,0.00041199,0.00837708,-1.00682068,0.305176,0.061035,-0.122070
7243698083,0.00061035,0.00877380,-1.00701904,0.183105,0.061035,-0.244141
7248691791,0.00137329,0.00849915,-1.00666809,0.244141,0.000000,-0.183105
7253738333,0.00218201,0.00785828,-1.00636292,0.305176,0.061035,-0.122070
7258776000,0.00245667,0.00747681,-1.00643921,0.427246,-0.061035,-0.061035
7263713458,0.00224304,0.00759888,-1.00634766,0.183105,0.000000,-0.183105
7268729125,0.00218201,0.00779724,-1.00590515,0.427246,0.061035,-0.122070
7273695250,0.00221252,0.00782776,-1.00588989,0.488281,-0.061035,-0.122070
7278787791,0.00213623,0.00765991,-1.00643921,0.366211,0.122070,-0.122070
7283682541,0.00219727,0.00746155,-1.00691223,0.305176,0.061035,-0.061035
7288699083,0.00227356,0.00765991,-1.00709534,0.427246,0.183105,0.000000
7293714750,0.00199890,0.00825500,-1.00715637,0.244141,-0.061035,-0.122070
7298740750,0.00161743,0.00854492,-1.00697327,0.366211,0.061035,-0.122070
7303695583,0.00164795,0.00827026,-1.00660706,0.183105,0.122070,-0.183105
7308725166,0.00187683,0.00804138,-1.00663757,0.305176,0.000000,-0.061035
7313695083,0.00193787,0.00802612,-1.00724792,0.244141,0.122070,0.000000
7318703666,0.00164795,0.00776672,-1.00741577,0.366211,0.061035,-0.061035
7323708583,0.00126648,0.00738525,-1.00666809,0.244141,0.000000,-0.122070
7328743958,0.00131226,0.00738525,-1.00607300,0.427246,0.061035,-0.122070
7333719958,0.00198364,0.00790405,-1.00650024,0.488281,-0.122070,-0.183105
7338694583,0.00260925,0.00833130,-1.00709534,0.427246,0.061035,0.061035
7343716458,0.00265503,0.00814819,-1.00703430,0.305176,0.061035,-0.122070
7348712291,0.00238037,0.00775146,-1.00643921,0.305176,0.122070,-0.061035
7353711541,0.00209045,0.00765991,-1.00599670,0.427246,0.183105,-0.061035
7358729916,0.00210571,0.00770569,-1.00608826,0.305176,0.061035,-0.183105
7363717375,0.00231934,0.00756836,-1.00636292,0.366211,0.122070,-0.061035
7369188958,0.00224304,0.00744629,-1.00665283,0.427246,0.122070,-0.061035
7373741000,0.00186157,0.00750732,-1.00711060,0.305176,0.183105,-0.061035
7378783666,0.00138855,0.00778198,-1.00755310,0.305176,0.122070,-0.061035
7383738375,0.00120544,0.00804138,-1.00752258,0.244141,0.183105,-0.122070
7388761083,0.00149536,0.00778198,-1.00700378,0.427246,0.122070,-0.061035
7393824625,0.00166321,0.00727844,-1.00657654,0.427246,0.061035,-0.122070
7398716833,0.00155640,0.00723267,-1.00679016,0.610352,0.000000,-0.183105
7403707791,0.00152588,0.00761414,-1.00729370,0.488281,0.061035,-0.061035
7408726375,0.00158691,0.00804138,-1.00764465,0.488281,0.061035,-0.122070
7413700583,0.00137329,0.00828552,-1.00756836,0.427246,0.061035,-0.061035
7418727208,0.00103760,0.00816345,-1.00718689,0.305176,0.122070,-0.061035
7423716541,0.00090027,0.00782776,-1.00686646,0.183105,0.061035,-0.061035
7428706875,0.00083923,0.00794983,-1.00666809,0.305176,0.000000,-0.061035
7433775541,0.00071716,0.00878906,-1.00631714,0.305176,-0.061035,-0.061035
7438704666,0.00093079,0.00930786,-1.00599670,0.366211,0.122070,-0.061035
7443745083,0.00155640,0.00881958,-1.00619507,0.305176,0.122070,-0.122070
7448722791,0.00199890,0.00810242,-1.00685120,0.427246,0.061035,-0.061035
7453722458,0.00204468,0.00813293,-1.00733948,0.305176,-0.061035,-0.183105
7458729000,0.00199890,0.00856018,-1.00730896,0.305176,0.122070,-0.061035
7463692208,0.00204468,0.00854492,-1.00703430,0.183105,0.000000,-0.122070
7468700166,0.00210571,0.00801086,-1.00701904,0.366211,0.000000,-0.061035
7473861375,0.00253296,0.00743103,-1.00682068,0.366211,0.183105,-0.061035
7478826458,0.00325012,0.00721741,-1.00610352,0.427246,0.000000,-0.183105
7483753750,0.00338745,0.00735474,-1.00581360,0.183105,0.183105,0.061035
7488697666,0.00262451,0.00764465,-1.00627136,0.244141,0.000000,-0.061035
7493747833,0.00190735,0.00787354,-1.00669861,0.427246,0.061035,0.000000
7498742708,0.00170898,0.00801086,-1.00692749,0.305176,0.061035,-0.122070
7503732541,0.00163269,0.00790405,-1.00708008,0.427246,0.183105,0.061035
7508754583,0.00152588,0.00764465,-1.00712585,0.366211,0.061035,-0.122070
7513723458,0.00163269,0.00756836,-1.00709534,0.183105,0.061035,-0.122070
7518723750,0.00183105,0.00755310,-1.00701904,0.305176,0.000000,-0.122070
7523724833,0.00187683,0.00781250,-1.00709534,0.183105,0.183105,-0.122070
7528744916,0.00193787,0.00836182,-1.00712585,0.427246,0.122070,-0.061035
7533721375,0.00190735,0.00839233,-1.00679016,0.244141,0.000000,-0.061035
7538733625,0.00149536,0.00788879,-1.00640869,0.305176,0.122070,-0.122070
7543708791,0.00137329,0.00782776,-1.00627136,0.366211,0.061035,0.000000
7548733916,0.00172424,0.00813293,-1.00634766,0.305176,0.000000,-0.122070
7553705500,0.00212097,0.00819397,-1.00657654,0.305176,0.000000,-0.122070
7558738333,0.00260925,0.00778198,-1.00692749,0.427246,0.000000,-0.122070
7563744833,0.00300598,0.00717163,-1.00697327,0.305176,0.183105,-0.061035
7568755041,0.00263977,0.00677490,-1.00663757,0.427246,-0.061035,-0.122070
7573760291,0.00180054,0.00666809,-1.00645447,0.244141,-0.061035,-0.183105
7578739000,0.00151062,0.00704956,-1.00630188,0.488281,0.122070,0.000000
7583729666,0.00210571,0.00767517,-1.00614929,0.366211,0.061035,-0.061035
7588787958,0.00270081,0.00796509,-1.00628662,0.244141,0.000000,-0.183105
7593754291,0.00239563,0.00802612,-1.00660706,0.305176,0.183105,-0.122070
7598774250,0.00172424,0.00816345,-1.00672913,0.244141,0.061035,-0.122070
7603733333,0.00167847,0.00820923,-1.00653076,0.244141,-0.122070,-0.122070
7608728125,0.00204468,0.00798035,-1.00636292,0.305176,0.000000,-0.061035
7613710791,0.00196838,0.00764465,-1.00657654,0.366211,0.061035,-0.183105
7618722125,0.00163269,0.00743103,-1.00709534,0.427246,0.000000,0.000000
7623727125,0.00173950,0.00762939,-1.00738525,0.427246,0.122070,-0.061035
7628777750,0.00224304,0.00817871,-1.00708008,0.366211,0.122070,-0.183105
7633752583,0.00234985,0.00860596,-1.00643921,0.305176,0.122070,-0.061035
7638741416,0.00189209,0.00843811,-1.00592041,0.244141,0.061035,-0.122070
7643717833,0.00166321,0.00796509,-1.00582886,0.305176,0.183105,-0.061035
7648740916,0.00199890,0.00785828,-1.00614929,0.305176,0.183105,-0.183105
7653721958,0.00204468,0.00810242,-1.00659180,0.244141,0.183105,-0.061035
7658775125,0.00173950,0.00825500,-1.00708008,0.366211,0.122070,-0.061035
7663757666,0.00198364,0.00825500,-1.00730896,0.244141,0.061035,-0.122070
7668766666,0.00297546,0.00807190,-1.00695801,0.366211,0.000000,-0.122070
7673725666,0.00341797,0.00770569,-1.00627136,0.427246,-0.061035,-0.061035
7678731250,0.00247192,0.00747681,-1.00607300,0.427246,0.000000,-0.061035
7683731166,0.00111389,0.00772095,-1.00657654,0.366211,0.122070,-0.061035
7688732208,0.00103760,0.00813293,-1.00711060,0.244141,0.122070,-0.061035
7693779916,0.00209045,0.00811768,-1.00688171,0.366211,0.122070,0.061035
7698729333,0.00276184,0.00773621,-1.00616455,0.427246,0.061035,-0.061035
7703724500,0.00277710,0.00769043,-1.00592041,0.366211,0.183105,-0.061035
7708755625,0.00251770,0.00805664,-1.00627136,0.366211,0.183105,0.061035
7713735958,0.00210571,0.00833130,-1.00672913,0.305176,-0.122070,-0.183105
7718742750,0.00169373,0.00846863,-1.00686646,0.427246,0.061035,-0.061035
7723720125,0.00173950,0.00845337,-1.00663757,0.488281,0.000000,-0.061035
7728778916,0.00234985,0.00816345,-1.00631714,0.488281,0.183105,-0.122070
7733742291,0.00270081,0.00775146,-1.00610352,0.305176,0.061035,-0.122070
7738742500,0.00230408,0.00761414,-1.00625610,0.427246,0.122070,0.000000
7743806791,0.00183105,0.00810242,-1.00683594,0.305176,0.000000,-0.122070
7748747541,0.00170898,0.00872803,-1.00732422,0.427246,0.122070,0.000000
7753731791,0.00154114,0.00871277,-1.00732422,0.122070,0.122070,0.000000
7758770166,0.00152588,0.00836182,-1.00685120,0.305176,0.061035,-0.061035
7763757666,0.00215149,0.00807190,-1.00637817,0.244141,0.061035,-0.122070
7768780125,0.00289917,0.00791931,-1.00640869,0.244141,0.000000,-0.244141
7773710375,0.00312805,0.00802612,-1.00654602,0.427246,0.061035,-0.061035
7778743500,0.00294495,0.00805664,-1.00657654,0.366211,0.000000,-0.183105
7783724333,0.00253296,0.00770569,-1.00654602,0.183105,0.061035,-0.061035
7788801500,0.00196838,0.00752258,-1.00637817,0.305176,0.000000,-0.122070
7793866583,0.00170898,0.00775146,-1.00592041,0.366211,0.000000,-0.183105
7798747083,0.00209045,0.00816345,-1.00521851,0.366211,0.000000,-0.061035
7803762291,0.00233459,0.00851440,-1.00524902,0.305176,-0.061035,-0.122070
7808746541,0.00195312,0.00852966,-1.00614929,0.366211,0.122070,-0.122070
7813726291,0.00170898,0.00813293,-1.00672913,0.183105,0.061035,0.000000
7818760458,0.00204468,0.00753784,-1.00668335,0.244141,0.000000,-0.122070
7823765916,0.00245667,0.00711060,-1.00668335,0.244141,0.122070,-0.061035
7828753708,0.00257874,0.00727844,-1.00688171,0.427246,0.000000,-0.061035
7833752333,0.00216675,0.00793457,-1.00718689,0.305176,0.244141,0.061035
7838763500,0.00149536,0.00825500,-1.00755310,0.427246,0.122070,-0.183105
7843745333,0.00149536,0.00802612,-1.00772095,0.366211,0.061035,-0.183105
7848765083,0.00202942,0.00782776,-1.00720215,0.366211,0.122070,-0.061035
7853747666,0.00239563,0.00779724,-1.00610352,0.305176,0.061035,-0.061035
7858744833,0.00242615,0.00772095,-1.00527954,0.305176,0.061035,-0.061035
7863749958,0.00212097,0.00753784,-1.00541687,0.427246,0.122070,-0.061035
7868756875,0.00155640,0.00741577,-1.00646973,0.244141,0.000000,-0.061035
7873759000,0.00126648,0.00729370,-1.00747681,0.305176,0.061035,-0.122070
7878754625,0.00186157,0.00718689,-1.00738525,0.488281,0.061035,-0.061035
7883737125,0.00260925,0.00740051,-1.00653076,0.427246,0.061035,-0.122070
7888757625,0.00236511,0.00794983,-1.00599670,0.305176,-0.061035,-0.061035
7893786208,0.00144958,0.00831604,-1.00613403,0.305176,0.000000,-0.122070
7898771625,0.00120544,0.00828552,-1.00637817,0.244141,0.000000,-0.122070
7903761750,0.00181580,0.00817871,-1.00642395,0.427246,0.000000,-0.061035
7908761750,0.00212097,0.00839233,-1.00643921,0.366211,0.000000,-0.122070
7913795291,0.00180054,0.00845337,-1.00665283,0.427246,0.122070,-0.122070
7918770541,0.00167847,0.00808716,-1.00703430,0.305176,0.000000,0.061035
7923731916,0.00184631,0.00785828,-1.00733948,0.427246,0.122070,-0.061035
7928793375,0.00196838,0.00804138,-1.00732422,0.305176,0.061035,-0.122070
7933846958,0.00183105,0.00819397,-1.00703430,0.427246,0.183105,-0.183105
7938809208,0.00158691,0.00810242,-1.00688171,0.488281,0.122070,0.000000
7943912166,0.00175476,0.00805664,-1.00703430,0.305176,0.122070,-0.061035
7948901916,0.00251770,0.00785828,-1.00703430,0.427246,-0.122070,-0.122070
7953831750,0.00311279,0.00765991,-1.00671387,0.427246,0.183105,-0.061035
7958849166,0.00253296,0.00788879,-1.00633240,0.549316,0.000000,-0.122070
7963805000,0.00135803,0.00825500,-1.00624084,0.305176,0.000000,-0.122070
7968777958,0.00090027,0.00836182,-1.00639343,0.427246,0.061035,-0.122070
7973808708,0.00135803,0.00834656,-1.00622559,0.366211,-0.061035,-0.122070
7978862250,0.00192261,0.00828552,-1.00585938,0.305176,0.000000,-0.061035
7983834250,0.00216675,0.00804138,-1.00575256,0.366211,0.061035,-0.122070
7988856333,0.00212097,0.00787354,-1.00613403,0.305176,0.061035,-0.122070
7993831916,0.00184631,0.00814819,-1.00648499,0.244141,0.183105,-0.061035
7998800833,0.00177002,0.00857544,-1.00665283,0.427246,-0.061035,-0.061035
8003839250,0.00195312,0.00846863,-1.00680542,0.366211,0.061035,-0.122070
8008813541,0.00222778,0.00814819,-1.00695801,0.305176,0.000000,-0.061035
8013829708,0.00242615,0.00830078,-1.00700378,0.244141,0.061035,-0.061035
8018794875,0.00241089,0.00866699,-1.00671387,0.488281,0.122070,-0.061035
8023773625,0.00228882,0.00865173,-1.00637817,0.305176,0.000000,-0.122070
8028793458,0.00215149,0.00839233,-1.00616455,0.244141,0.061035,-0.122070
8033757375,0.00193787,0.00831604,-1.00581360,0.305176,0.000000,-0.061035
8038776833,0.00157166,0.00827026,-1.00566101,0.488281,0.061035,0.000000
8043754458,0.00154114,0.00801086,-1.00614929,0.244141,0.061035,-0.061035
8048770958,0.00212097,0.00782776,-1.00692749,0.305176,0.061035,-0.122070
8053812958,0.00259399,0.00799561,-1.00733948,0.366211,0.122070,-0.061035
8058784500,0.00224304,0.00807190,-1.00733948,0.427246,-0.122070,-0.061035
8063778041,0.00152588,0.00779724,-1.00703430,0.305176,0.000000,-0.061035
8068800875,0.00129700,0.00776672,-1.00666809,0.366211,0.061035,-0.122070
8073790208,0.00138855,0.00796509,-1.00663757,0.305176,0.122070,-0.061035
8078774416,0.00125122,0.00801086,-1.00675964,0.305176,0.000000,-0.183105
8083744208,0.00117493,0.00807190,-1.00666809,0.427246,0.000000,0.000000
8088769916,0.00125122,0.00814819,-1.00669861,0.244141,0.000000,-0.061035
8093827708,0.00120544,0.00799561,-1.00691223,0.427246,0.000000,-0.122070
8098797416,0.00148010,0.00794983,-1.00679016,0.244141,0.122070,-0.183105
8103777416,0.00233459,0.00813293,-1.00646973,0.366211,0.061035,-0.122070
8108770416,0.00291443,0.00830078,-1.00650024,0.244141,0.000000,-0.061035
8113784333,0.00263977,0.00820923,-1.00677490,0.305176,0.061035,-0.122070
8118786208,0.00195312,0.00776672,-1.00709534,0.366211,0.122070,-0.061035
8123777375,0.00180054,0.00746155,-1.00749207,0.244141,0.000000,-0.061035
8128779416,0.00201416,0.00779724,-1.00743103,0.366211,0.061035,0.000000
8133771291,0.00181580,0.00846863,-1.00660706,0.427246,0.000000,-0.183105
8138780291,0.00131226,0.00868225,-1.00590515,0.427246,0.244141,-0.122070
8143830125,0.00109863,0.00827026,-1.00602722,0.244141,0.061035,-0.183105
8148799208,0.00141907,0.00782776,-1.00679016,0.366211,0.061035,-0.061035
8153763083,0.00184631,0.00779724,-1.00758362,0.305176,0.061035,-0.061035
8158828375,0.00199890,0.00805664,-1.00787354,0.305176,0.061035,0.000000
8163775833,0.00207520,0.00811768,-1.00735474,0.366211,0.183105,-0.122070
8168804958,0.00230408,0.00799561,-1.00631714,0.366211,0.122070,-0.183105
8173783500,0.00210571,0.00811768,-1.00592041,0.366211,0.061035,-0.183105
8178816000,0.00140381,0.00827026,-1.00653076,0.366211,0.122070,0.000000
8183787000,0.00093079,0.00805664,-1.00697327,0.366211,0.000000,-0.061035
