timestamp_ns,accel_x,accel_y,accel_z,gyro_x,gyro_y,gyro_z
84444375,0.00175476,0.00866699,-1.00724792,0.000000,0.000000,0.000000
95918583,0.00166321,0.00775146,-1.00547791,0.183105,0.000000,0.000000
103441666,0.00248718,0.00735474,-1.00541687,0.427246,0.000000,-0.061035
109315291,0.00248718,0.00735474,-1.00541687,0.244141,0.000000,0.000000
111979541,0.00245667,0.00796509,-1.00558472,0.244141,0.000000,0.000000
117949875,0.00245667,0.00796509,-1.00558472,0.244141,0.061035,-0.122070
120659666,0.00067139,0.00776672,-1.00592041,0.244141,0.061035,-0.122070
130629125,0.00054932,0.00727844,-1.00474548,0.427246,0.061035,-0.061035
138205041,0.00054932,0.00727844,-1.00474548,0.366211,-0.061035,-0.061035
140737791,0.00068665,0.00692749,-1.00587463,0.366211,-0.061035,-0.061035
148274375,0.00068665,0.00692749,-1.00587463,0.305176,-0.061035,-0.244141
150793833,0.00184631,0.00682068,-1.00563049,0.305176,-0.061035,-0.244141
158329416,0.00184631,0.00682068,-1.00563049,0.183105,-0.061035,-0.061035
160847625,0.00161743,0.00737000,-1.00793457,0.183105,-0.061035,-0.061035
168368083,0.00161743,0.00737000,-1.00793457,0.366211,0.000000,-0.183105
170877458,0.00163269,0.00834656,-1.00497437,0.366211,0.000000,-0.183105
178408625,0.00163269,0.00834656,-1.00497437,0.244141,-0.061035,0.000000
180924000,0.00271606,0.00735474,-1.00602722,0.244141,-0.061035,0.000000
188462000,0.00271606,0.00735474,-1.00602722,0.305176,0.061035,-0.061035
191009291,0.00309753,0.00799561,-1.00941467,0.305176,0.061035,-0.061035
198539875,0.00309753,0.00799561,-1.00941467,0.122070,0.061035,-0.122070
201049708,0.00277710,0.00697327,-1.00534058,0.122070,0.061035,-0.122070
208574875,0.00277710,0.00697327,-1.00534058,0.244141,-0.061035,-0.061035
211084500,0.00213623,0.00727844,-1.00558472,0.244141,-0.061035,-0.061035
218609541,0.00213623,0.00727844,-1.00558472,0.305176,0.000000,-0.061035
221119333,0.00277710,0.00727844,-1.00677490,0.305176,0.000000,-0.061035
228646208,0.00277710,0.00727844,-1.00677490,0.183105,0.061035,-0.061035
231155166,0.00160217,0.00703430,-1.00602722,0.183105,0.061035,-0.061035
238688750,0.00160217,0.00703430,-1.00602722,0.366211,0.122070,-0.183105
241208625,0.00062561,0.00718689,-1.00553894,0.366211,0.122070,-0.183105
248768875,0.00062561,0.00718689,-1.00553894,0.305176,-0.183105,0.000000
251287416,0.00079346,0.00643921,-1.00555420,0.305176,-0.183105,0.000000
258853291,0.00079346,0.00643921,-1.00555420,0.427246,0.122070,0.000000
261394416,0.00036621,0.00708008,-1.00566101,0.427246,0.122070,0.000000
268991250,0.00036621,0.00708008,-1.00566101,0.366211,-0.061035,-0.061035
271563333,0.00170898,0.00849915,-1.00563049,0.366211,-0.061035,-0.061035
279150625,0.00170898,0.00849915,-1.00563049,0.244141,0.000000,-0.183105
281689291,0.00173950,0.00802612,-1.00675964,0.244141,0.000000,-0.183105
289278750,0.00173950,0.00802612,-1.00675964,0.427246,0.122070,0.000000
291817625,0.00148010,0.00817871,-1.00541687,0.427246,0.122070,0.000000
299421750,0.00148010,0.00817871,-1.00541687,0.244141,0.122070,-0.183105
301968333,0.00175476,0.00801086,-1.00634766,0.244141,0.122070,-0.183105
307015458,0.00175476,0.00801086,-1.00634766,0.305176,0.061035,-0.122070
312060250,0.00205994,0.00769043,-1.00540161,0.305176,0.061035,-0.122070
317095500,0.00205994,0.00769043,-1.00540161,0.366211,0.061035,-0.183105
322134166,0.00318909,0.00762939,-1.00640869,0.366211,0.061035,-0.183105
327182416,0.00318909,0.00762939,-1.00640869,0.549316,0.061035,-0.061035
332221583,0.00260925,0.00839233,-1.00598145,0.549316,0.061035,-0.061035
337288750,0.00260925,0.00839233,-1.00598145,0.427246,0.000000,-0.061035
342339791,0.00141907,0.00805664,-1.00535583,0.427246,0.000000,-0.061035
347369041,0.00141907,0.00805664,-1.00535583,0.305176,0.000000,-0.122070
349885083,0.00143433,0.00700378,-1.00569153,0.305176,0.000000,-0.122070
357438375,0.00143433,0.00700378,-1.00569153,0.122070,0.000000,-0.183105
359956083,0.00070190,0.00843811,-1.00625610,0.122070,0.000000,-0.183105
370013916,0.00128174,0.00836182,-1.00709534,0.122070,0.000000,-0.122070
377573916,0.00128174,0.00836182,-1.00709534,0.183105,0.000000,-0.061035
380100041,0.00192261,0.00726318,-1.00607300,0.183105,0.000000,-0.061035
387690583,0.00192261,0.00726318,-1.00607300,0.244141,-0.122070,0.000000
390219708,0.00199890,0.00804138,-1.00619507,0.244141,-0.122070,0.000000
397791208,0.00199890,0.00804138,-1.00619507,0.366211,-0.061035,-0.122070
400311916,0.00228882,0.00790405,-1.00546265,0.366211,-0.061035,-0.122070
407873333,0.00228882,0.00790405,-1.00546265,0.305176,0.000000,0.000000
410410208,0.00160217,0.00697327,-1.00657654,0.305176,0.000000,0.000000
417991916,0.00160217,0.00697327,-1.00657654,0.549316,0.061035,0.000000
420593791,0.00140381,0.00703430,-1.00660706,0.549316,0.061035,0.000000
428260500,0.00140381,0.00703430,-1.00660706,0.427246,0.000000,0.000000
430841791,0.00155640,0.00659180,-1.00621033,0.427246,0.000000,0.000000
438408250,0.00155640,0.00659180,-1.00621033,0.366211,0.061035,0.000000
440952708,0.00137329,0.00599670,-1.00509644,0.366211,0.061035,0.000000
448430916,0.00137329,0.00599670,-1.00509644,0.366211,-0.061035,-0.122070
450973166,0.00256348,0.00701904,-1.00590515,0.366211,-0.061035,-0.122070
458562791,0.00256348,0.00701904,-1.00590515,0.366211,0.122070,-0.183105
461094875,0.00189209,0.00723267,-1.00642395,0.366211,0.122070,-0.183105
468660083,0.00189209,0.00723267,-1.00642395,0.488281,0.061035,0.061035
471192166,0.00093079,0.00785828,-1.00621033,0.488281,0.061035,0.061035
478762833,0.00093079,0.00785828,-1.00621033,0.366211,0.061035,-0.122070
481295750,0.00141907,0.00767517,-1.00578308,0.366211,0.061035,-0.122070
488390500,0.00141907,0.00767517,-1.00578308,0.305176,0.061035,-0.122070
490937500,0.00195312,0.00834656,-1.00651550,0.305176,0.061035,-0.122070
498273041,0.00195312,0.00834656,-1.00651550,0.366211,0.122070,-0.183105
500434500,0.00129700,0.00773621,-1.00527954,0.366211,0.122070,-0.183105
508057166,0.00129700,0.00773621,-1.00527954,0.183105,0.122070,0.000000
510611416,0.00164795,0.00724792,-1.00671387,0.183105,0.122070,0.000000
518224583,0.00164795,0.00724792,-1.00671387,0.366211,0.000000,-0.061035
520807583,0.00129700,0.00782776,-1.00495911,0.366211,0.000000,-0.061035
528404708,0.00129700,0.00782776,-1.00495911,0.183105,0.000000,-0.122070
530944333,0.00093079,0.00848389,-1.00671387,0.183105,0.000000,-0.122070
538300541,0.00093079,0.00848389,-1.00671387,0.183105,-0.061035,-0.122070
540859291,0.00126648,0.00733948,-1.00566101,0.183105,-0.061035,-0.122070
548305083,0.00126648,0.00733948,-1.00566101,0.427246,0.122070,-0.061035
550871375,0.00207520,0.00816345,-1.00602722,0.427246,0.122070,-0.061035
558491375,0.00207520,0.00816345,-1.00602722,0.244141,0.061035,-0.061035
561046041,0.00143433,0.00805664,-1.00547791,0.244141,0.061035,-0.061035
568670875,0.00143433,0.00805664,-1.00547791,0.305176,0.061035,0.000000
571214166,0.00119019,0.00781250,-1.00585938,0.305176,0.061035,0.000000
578814541,0.00119019,0.00781250,-1.00585938,0.244141,0.061035,-0.061035
581359166,0.00263977,0.00817871,-1.00604248,0.244141,0.061035,-0.061035
588425791,0.00263977,0.00817871,-1.00604248,0.366211,0.061035,0.061035
590994666,0.00247192,0.00723267,-1.00616455,0.366211,0.061035,0.061035
598359708,0.00247192,0.00723267,-1.00616455,0.366211,-0.061035,-0.122070
600575666,0.00181580,0.00749207,-1.00613403,0.366211,-0.061035,-0.122070
607771000,0.00181580,0.00749207,-1.00613403,0.305176,0.061035,-0.122070
610313583,0.00105286,0.00680542,-1.00581360,0.305176,0.061035,-0.122070
617894500,0.00105286,0.00680542,-1.00581360,0.183105,0.061035,-0.061035
620454791,0.00106812,0.00691223,-1.00567627,0.183105,0.061035,-0.061035
628064583,0.00106812,0.00691223,-1.00567627,0.183105,-0.122070,-0.122070
630607583,0.00137329,0.00657654,-1.00772095,0.183105,-0.122070,-0.122070
638228708,0.00137329,0.00657654,-1.00772095,0.305176,0.061035,-0.183105
640782583,0.00143433,0.00738525,-1.00531006,0.305176,0.061035,-0.183105
648356958,0.00143433,0.00738525,-1.00531006,0.305176,0.061035,-0.061035
650906875,0.00157166,0.00802612,-1.00651550,0.305176,0.061035,-0.061035
658517875,0.00157166,0.00802612,-1.00651550,0.427246,0.061035,-0.061035
661062958,0.00137329,0.00752258,-1.00340271,0.427246,0.061035,-0.061035
668661333,0.00137329,0.00752258,-1.00340271,0.366211,-0.061035,-0.122070
670820958,0.00108337,0.00833130,-1.00646973,0.366211,-0.061035,-0.122070
678413500,0.00108337,0.00833130,-1.00646973,0.305176,0.061035,0.000000
680951291,0.00154114,0.00837708,-1.00563049,0.305176,0.061035,0.000000
688574333,0.00154114,0.00837708,-1.00563049,0.244141,0.000000,-0.183105
691134791,0.00167847,0.00784302,-1.00672913,0.244141,0.000000,-0.183105
698742416,0.00167847,0.00784302,-1.00672913,0.366211,-0.061035,-0.061035
701315416,0.00132751,0.00813293,-1.00624084,0.366211,-0.061035,-0.061035
708927458,0.00132751,0.00813293,-1.00624084,0.244141,0.122070,-0.122070
711467958,0.00204468,0.00680542,-1.00634766,0.244141,0.122070,-0.122070
719113083,0.00204468,0.00680542,-1.00634766,0.305176,-0.061035,-0.183105
721692125,0.00190735,0.00712585,-1.00570679,0.305176,-0.061035,-0.183105
729380375,0.00190735,0.00712585,-1.00570679,0.305176,0.061035,0.000000
731940416,0.00189209,0.00727844,-1.00642395,0.305176,0.061035,0.000000
739577000,0.00189209,0.00727844,-1.00642395,0.366211,0.000000,-0.122070
742165625,0.00198364,0.00794983,-1.00611877,0.366211,0.000000,-0.122070
747390791,0.00198364,0.00794983,-1.00611877,0.244141,0.000000,-0.061035
750028750,0.00189209,0.00813293,-1.00578308,0.244141,0.000000,-0.061035
757547916,0.00189209,0.00813293,-1.00578308,0.244141,0.000000,-0.061035
760134333,0.00270081,0.00718689,-1.00584412,0.244141,0.000000,-0.061035
767739125,0.00270081,0.00718689,-1.00584412,0.427246,0.122070,0.061035
770300250,0.00221252,0.00773621,-1.00601196,0.427246,0.122070,0.061035
777949541,0.00221252,0.00773621,-1.00601196,0.305176,0.000000,-0.122070
780042083,0.00180054,0.00831604,-1.00538635,0.305176,0.000000,-0.122070
787478583,0.00180054,0.00831604,-1.00538635,0.305176,0.000000,-0.061035
790063375,0.00134277,0.00793457,-1.00617981,0.305176,0.000000,-0.061035
797687833,0.00134277,0.00793457,-1.00617981,0.366211,-0.061035,-0.061035
800250916,0.00108337,0.00744629,-1.00599670,0.366211,-0.061035,-0.061035
807876958,0.00108337,0.00744629,-1.00599670,0.305176,0.061035,0.000000
810462750,0.00256348,0.00804138,-1.00733948,0.305176,0.061035,0.000000
818074500,0.00256348,0.00804138,-1.00733948,0.366211,0.122070,-0.061035
820677875,0.00260925,0.00765991,-1.00675964,0.366211,0.122070,-0.061035
828398000,0.00260925,0.00765991,-1.00675964,0.366211,0.122070,0.061035
830956000,0.00160217,0.00758362,-1.00631714,0.366211,0.122070,0.061035
838606208,0.00160217,0.00758362,-1.00631714,0.305176,0.122070,-0.061035
841183625,0.00205994,0.00819397,-1.00579834,0.305176,0.122070,-0.061035
848790416,0.00205994,0.00819397,-1.00579834,0.305176,0.122070,0.000000
851337583,0.00276184,0.00666809,-1.00729370,0.305176,0.122070,0.000000
858934083,0.00276184,0.00666809,-1.00729370,0.244141,0.000000,-0.122070
861373166,0.00300598,0.00730896,-1.00607300,0.244141,0.000000,-0.122070
868958583,0.00300598,0.00730896,-1.00607300,0.305176,0.000000,-0.061035
871509291,0.00311279,0.00697327,-1.00643921,0.305176,0.000000,-0.061035
879109041,0.00311279,0.00697327,-1.00643921,0.244141,0.000000,-0.122070
881656125,0.00273132,0.00706482,-1.00692749,0.244141,0.000000,-0.122070
889282833,0.00273132,0.00706482,-1.00692749,0.305176,0.061035,0.000000
891843208,0.00119019,0.00770569,-1.00642395,0.305176,0.061035,0.000000
899458000,0.00119019,0.00770569,-1.00642395,0.366211,-0.061035,-0.122070
902001500,0.00215149,0.00782776,-1.00584412,0.366211,-0.061035,-0.122070
907128250,0.00215149,0.00782776,-1.00584412,0.183105,0.061035,-0.061035
912422708,0.00169373,0.00726318,-1.00477600,0.183105,0.061035,-0.061035
917389208,0.00169373,0.00726318,-1.00477600,0.366211,0.061035,-0.122070
919957291,0.00132751,0.00738525,-1.00622559,0.366211,0.061035,-0.122070
927288416,0.00132751,0.00738525,-1.00622559,0.305176,0.000000,-0.183105
932235375,0.00158691,0.00868225,-1.00637817,0.305176,0.000000,-0.183105
937272666,0.00158691,0.00868225,-1.00637817,0.366211,-0.061035,-0.122070
941872083,0.00102234,0.00804138,-1.00666809,0.366211,-0.061035,-0.122070
949359083,0.00102234,0.00804138,-1.00666809,0.305176,0.122070,-0.061035
951876500,0.00128174,0.00718689,-1.00506592,0.305176,0.122070,-0.061035
958737166,0.00128174,0.00718689,-1.00506592,0.244141,-0.061035,-0.061035
961250583,0.00149536,0.00778198,-1.00563049,0.244141,-0.061035,-0.061035
968320666,0.00149536,0.00778198,-1.00563049,0.183105,-0.061035,-0.061035
970850000,0.00134277,0.00772095,-1.00628662,0.183105,-0.061035,-0.061035
978428791,0.00134277,0.00772095,-1.00628662,0.183105,0.061035,-0.061035
980957250,0.00204468,0.00758362,-1.00573730,0.183105,0.061035,-0.061035
988520083,0.00204468,0.00758362,-1.00573730,0.305176,0.061035,-0.061035
991051875,0.00253296,0.00743103,-1.00598145,0.305176,0.061035,-0.061035
998228000,0.00253296,0.00743103,-1.00598145,0.366211,-0.122070,0.061035
1000759791,0.00172424,0.00765991,-1.00593567,0.366211,-0.122070,0.061035
1008307583,0.00172424,0.00765991,-1.00593567,0.305176,0.061035,-0.061035
1010833583,0.00192261,0.00730896,-1.00663757,0.305176,0.061035,-0.061035
1018389541,0.00192261,0.00730896,-1.00663757,0.244141,0.061035,-0.122070
1020917208,0.00201416,0.00691223,-1.00613403,0.244141,0.061035,-0.122070
1028485000,0.00201416,0.00691223,-1.00613403,0.305176,0.061035,-0.061035
1031011208,0.00334167,0.00712585,-1.00529480,0.305176,0.061035,-0.061035
1038541708,0.00334167,0.00712585,-1.00529480,0.366211,0.000000,-0.122070
1041071791,0.00257874,0.00746155,-1.00701904,0.366211,0.000000,-0.122070
1048649333,0.00257874,0.00746155,-1.00701904,0.305176,0.061035,-0.122070
1051171208,0.00277710,0.00830078,-1.00578308,0.305176,0.061035,-0.122070
1058749958,0.00277710,0.00830078,-1.00578308,0.427246,0.061035,-0.183105
1061274375,0.00210571,0.00794983,-1.00582886,0.427246,0.061035,-0.183105
1068861333,0.00210571,0.00794983,-1.00582886,0.183105,0.000000,-0.183105
1071386166,0.00140381,0.00704956,-1.00581360,0.183105,0.000000,-0.183105
1078934583,0.00140381,0.00704956,-1.00581360,0.366211,-0.061035,-0.122070
1081474625,0.00189209,0.00720215,-1.00727844,0.366211,-0.061035,-0.122070
1089035958,0.00189209,0.00720215,-1.00727844,0.366211,0.122070,-0.122070
1091558250,0.00160217,0.00730896,-1.00558472,0.366211,0.122070,-0.122070
1099115833,0.00160217,0.00730896,-1.00558472,0.183105,0.061035,-0.061035
1101634458,0.00152588,0.00730896,-1.00614929,0.183105,0.061035,-0.061035
1109196791,0.00152588,0.00730896,-1.00614929,0.183105,-0.061035,-0.061035
1111736291,0.00158691,0.00762939,-1.00595093,0.183105,-0.061035,-0.061035
1118977875,0.00158691,0.00762939,-1.00595093,0.366211,-0.183105,-0.122070
1121553708,0.00164795,0.00897217,-1.00712585,0.366211,-0.183105,-0.122070
1129179541,0.00164795,0.00897217,-1.00712585,0.183105,0.061035,0.000000
1131746833,0.00263977,0.00851440,-1.00593567,0.183105,0.061035,0.000000
1139333500,0.00263977,0.00851440,-1.00593567,0.366211,0.000000,-0.061035
1141856500,0.00140381,0.00723267,-1.00619507,0.366211,0.000000,-0.061035
1148949291,0.00140381,0.00723267,-1.00619507,0.244141,0.061035,-0.061035
1151485375,0.00169373,0.00698853,-1.00550842,0.244141,0.061035,-0.061035
1158829875,0.00169373,0.00698853,-1.00550842,0.305176,0.000000,-0.061035
1161369541,0.00227356,0.00746155,-1.00735474,0.305176,0.000000,-0.061035
1168951625,0.00227356,0.00746155,-1.00735474,0.366211,-0.061035,-0.061035
1171703958,0.00106812,0.00798035,-1.00634766,0.366211,-0.061035,-0.061035
1179291375,0.00106812,0.00798035,-1.00634766,0.427246,0.122070,-0.061035
1181455958,0.00106812,0.00715637,-1.00598145,0.427246,0.122070,-0.061035
1188613166,0.00106812,0.00715637,-1.00598145,0.305176,0.000000,0.000000
1191153958,0.00177002,0.00765991,-1.00549316,0.305176,0.000000,0.000000
1198783208,0.00177002,0.00765991,-1.00549316,0.305176,0.061035,0.000000
1201350708,0.00201416,0.00785828,-1.00691223,0.305176,0.061035,0.000000
1208625750,0.00201416,0.00785828,-1.00691223,0.183105,0.122070,-0.061035
1211203041,0.00238037,0.00790405,-1.00573730,0.183105,0.122070,-0.061035
1218875375,0.00238037,0.00790405,-1.00573730,0.244141,0.061035,0.000000
1221565875,0.00277710,0.00712585,-1.00643921,0.244141,0.061035,0.000000
1229308083,0.00277710,0.00712585,-1.00643921,0.427246,0.061035,-0.061035
1231821083,0.00219727,0.00704956,-1.00567627,0.427246,0.061035,-0.061035
1239638541,0.00219727,0.00704956,-1.00567627,0.244141,0.000000,-0.061035
1242153000,0.00201416,0.00675964,-1.00674438,0.244141,0.000000,-0.061035
1247396000,0.00201416,0.00675964,-1.00674438,0.305176,0.122070,0.000000
1250017500,0.00245667,0.00669861,-1.00657654,0.305176,0.122070,0.000000
1257673541,0.00245667,0.00669861,-1.00657654,0.427246,0.061035,-0.183105
1260238708,0.00164795,0.00735474,-1.00737000,0.427246,0.061035,-0.183105
1267226666,0.00164795,0.00735474,-1.00737000,0.244141,0.061035,-0.061035
1272314708,0.00183105,0.00691223,-1.00498962,0.244141,0.061035,-0.061035
1277391791,0.00183105,0.00691223,-1.00498962,0.183105,0.000000,-0.061035
1282239208,0.00180054,0.00671387,-1.00584412,0.183105,0.000000,-0.061035
1287265333,0.00180054,0.00671387,-1.00584412,0.305176,0.061035,-0.122070
1289999791,0.00151062,0.00790405,-1.00630188,0.305176,0.061035,-0.122070
1297668583,0.00151062,0.00790405,-1.00630188,0.366211,0.061035,-0.122070
1300244708,0.00091553,0.00753784,-1.00607300,0.366211,0.061035,-0.122070
1307830333,0.00091553,0.00753784,-1.00607300,0.244141,0.000000,-0.122070
1310421750,0.00146484,0.00804138,-1.00599670,0.244141,0.000000,-0.122070
1318099208,0.00146484,0.00804138,-1.00599670,0.366211,0.183105,0.000000
1320669875,0.00186157,0.00733948,-1.00566101,0.366211,0.183105,0.000000
1328333125,0.00186157,0.00733948,-1.00566101,0.427246,0.061035,0.000000
1330950833,0.00167847,0.00802612,-1.00616455,0.427246,0.061035,0.000000
1338650416,0.00167847,0.00802612,-1.00616455,0.305176,0.000000,-0.061035
1340958833,0.00167847,0.00781250,-1.00585938,0.305176,0.000000,-0.061035
1348574166,0.00167847,0.00781250,-1.00585938,0.305176,-0.061035,-0.061035
1351124583,0.00109863,0.00784302,-1.00590515,0.305176,-0.061035,-0.061035
1358718083,0.00109863,0.00784302,-1.00590515,0.244141,-0.061035,-0.061035
1361276083,0.00178528,0.00808716,-1.00740051,0.244141,-0.061035,-0.061035
1368617041,0.00178528,0.00808716,-1.00740051,0.244141,0.061035,-0.061035
1371183208,0.00216675,0.00798035,-1.00575256,0.244141,0.061035,-0.061035
1378810375,0.00216675,0.00798035,-1.00575256,0.366211,0.183105,-0.061035
1381380208,0.00135803,0.00775146,-1.00642395,0.366211,0.183105,-0.061035
1389105666,0.00135803,0.00775146,-1.00642395,0.488281,0.061035,0.000000
1391694500,0.00212097,0.00706482,-1.00613403,0.488281,0.061035,0.000000
1398920000,0.00212097,0.00706482,-1.00613403,0.305176,-0.061035,-0.061035
1401466750,0.00273132,0.00672913,-1.00640869,0.305176,-0.061035,-0.061035
1408988125,0.00273132,0.00672913,-1.00640869,0.244141,-0.061035,-0.122070
1411556458,0.00233459,0.00804138,-1.00617981,0.244141,-0.061035,-0.122070
1419214541,0.00233459,0.00804138,-1.00617981,0.305176,0.000000,-0.122070
1421818750,0.00201416,0.00711060,-1.00590515,0.305176,0.000000,-0.122070
1429499208,0.00201416,0.00711060,-1.00590515,0.366211,0.061035,-0.061035
1432072458,0.00221252,0.00750732,-1.00654602,0.366211,0.061035,-0.061035
1439561916,0.00221252,0.00750732,-1.00654602,0.305176,0.000000,-0.122070
1442276000,0.00184631,0.00784302,-1.00588989,0.305176,0.000000,-0.122070
1447396041,0.00184631,0.00784302,-1.00588989,0.366211,0.000000,-0.061035
1449973875,0.00140381,0.00776672,-1.00636292,0.366211,0.000000,-0.061035
1457599708,0.00140381,0.00776672,-1.00636292,0.305176,0.000000,0.000000
1460149875,0.00100708,0.00727844,-1.00572205,0.305176,0.000000,0.000000
1467754708,0.00100708,0.00727844,-1.00572205,0.305176,0.122070,-0.244141
1470297625,0.00245667,0.00762939,-1.00654602,0.305176,0.122070,-0.244141
1477910541,0.00245667,0.00762939,-1.00654602,0.122070,-0.061035,0.000000
1480486333,0.00138855,0.00776672,-1.00581360,0.122070,-0.061035,0.000000
1487809000,0.00138855,0.00776672,-1.00581360,0.183105,-0.061035,-0.061035
1490423833,0.00083923,0.00708008,-1.00619507,0.183105,-0.061035,-0.061035
1498127416,0.00083923,0.00708008,-1.00619507,0.366211,0.000000,-0.061035
1500701916,0.00134277,0.00765991,-1.00582886,0.366211,0.000000,-0.061035
1508327750,0.00134277,0.00765991,-1.00582886,0.427246,0.061035,0.000000
1510878708,0.00198364,0.00837708,-1.00656128,0.427246,0.061035,0.000000
1518018666,0.00198364,0.00837708,-1.00656128,0.183105,-0.061035,-0.122070
1520583708,0.00151062,0.00798035,-1.00654602,0.183105,-0.061035,-0.122070
1528191750,0.00151062,0.00798035,-1.00654602,0.305176,0.000000,-0.122070
1530751583,0.00163269,0.00709534,-1.00648499,0.305176,0.000000,-0.122070
1538381458,0.00163269,0.00709534,-1.00648499,0.305176,0.122070,-0.061035
1540948083,0.00213623,0.00640869,-1.00610352,0.305176,0.122070,-0.061035
1548563625,0.00213623,0.00640869,-1.00610352,0.366211,0.000000,-0.183105
1551109500,0.00173950,0.00709534,-1.00529480,0.366211,0.000000,-0.183105
1558708416,0.00173950,0.00709534,-1.00529480,0.366211,0.122070,0.000000
1561252750,0.00175476,0.00790405,-1.00595093,0.366211,0.122070,0.000000
1568862333,0.00175476,0.00790405,-1.00595093,0.366211,0.061035,-0.061035
1571406250,0.00195312,0.00746155,-1.00674438,0.366211,0.061035,-0.061035
1579018208,0.00195312,0.00746155,-1.00674438,0.183105,-0.061035,0.000000
1581565041,0.00166321,0.00807190,-1.00559998,0.183105,-0.061035,0.000000
1589186291,0.00166321,0.00807190,-1.00559998,0.183105,-0.122070,-0.061035
1591731625,0.00132751,0.00802612,-1.00627136,0.183105,-0.122070,-0.061035
1599086708,0.00132751,0.00802612,-1.00627136,0.366211,0.000000,-0.061035
1601624833,0.00163269,0.00723267,-1.00476074,0.366211,0.000000,-0.061035
1609265666,0.00163269,0.00723267,-1.00476074,0.244141,0.061035,-0.061035
1611842791,0.00109863,0.00733948,-1.00628662,0.244141,0.061035,-0.061035
1619482041,0.00109863,0.00733948,-1.00628662,0.305176,0.061035,0.000000
1622051333,0.00172424,0.00674438,-1.00531006,0.305176,0.061035,0.000000
1629671458,0.00172424,0.00674438,-1.00531006,0.122070,-0.122070,0.000000
1632234625,0.00193787,0.00817871,-1.00611877,0.122070,-0.122070,0.000000
1637355458,0.00193787,0.00817871,-1.00611877,0.244141,-0.061035,-0.122070
1639902916,0.00173950,0.00761414,-1.00566101,0.244141,-0.061035,-0.122070
1647448333,0.00173950,0.00761414,-1.00566101,0.305176,0.061035,-0.061035
1649990958,0.00236511,0.00860596,-1.00613403,0.305176,0.061035,-0.061035
1659194083,0.00236511,0.00860596,-1.00613403,0.305176,0.122070,0.000000
1661748083,0.00198364,0.00814819,-1.00599670,0.305176,0.122070,0.000000
1669339083,0.00198364,0.00814819,-1.00599670,0.244141,-0.061035,-0.183105
1671890000,0.00152588,0.00781250,-1.00701904,0.244141,-0.061035,-0.183105
1679139666,0.00152588,0.00781250,-1.00701904,0.366211,-0.122070,0.000000
1681707500,0.00169373,0.00767517,-1.00646973,0.366211,-0.122070,0.000000
1689306375,0.00169373,0.00767517,-1.00646973,0.366211,-0.061035,-0.061035
1691854208,0.00119019,0.00698853,-1.00549316,0.366211,-0.061035,-0.061035
1699465750,0.00119019,0.00698853,-1.00549316,0.366211,0.122070,-0.061035
1702047666,0.00167847,0.00796509,-1.00567627,0.366211,0.122070,-0.061035
1709658666,0.00167847,0.00796509,-1.00567627,0.305176,0.061035,-0.183105
1712215166,0.00177002,0.00788879,-1.00695801,0.305176,0.061035,-0.183105
1717301333,0.00177002,0.00788879,-1.00695801,0.305176,0.061035,-0.061035
1722393583,0.00161743,0.00733948,-1.00663757,0.305176,0.061035,-0.061035
1727474666,0.00161743,0.00733948,-1.00663757,0.305176,0.000000,-0.061035
1730017750,0.00155640,0.00711060,-1.00738525,0.305176,0.000000,-0.061035
1737460791,0.00155640,0.00711060,-1.00738525,0.305176,-0.061035,-0.122070
1740000875,0.00198364,0.00827026,-1.00514221,0.305176,-0.061035,-0.122070
1747596541,0.00198364,0.00827026,-1.00514221,0.183105,0.122070,-0.061035
1750146541,0.00228882,0.00737000,-1.00616455,0.183105,0.122070,-0.061035
1757742583,0.00228882,0.00737000,-1.00616455,0.244141,0.122070,-0.183105
1760286500,0.00193787,0.00793457,-1.00559998,0.244141,0.122070,-0.183105
1767886250,0.00193787,0.00793457,-1.00559998,0.305176,-0.061035,0.000000
1772863208,0.00119019,0.00805664,-1.00622559,0.305176,-0.061035,0.000000
1777926958,0.00119019,0.00805664,-1.00622559,0.366211,0.183105,-0.244141
1780458708,0.00137329,0.00793457,-1.00529480,0.366211,0.183105,-0.244141
1788085166,0.00137329,0.00793457,-1.00529480,0.244141,0.000000,-0.061035
1790647250,0.00157166,0.00717163,-1.00608826,0.244141,0.000000,-0.061035
1798298750,0.00157166,0.00717163,-1.00608826,0.366211,0.061035,-0.061035
1800846458,0.00256348,0.00735474,-1.00587463,0.366211,0.061035,-0.061035
1808270458,0.00256348,0.00735474,-1.00587463,0.366211,0.061035,-0.061035
1810815833,0.00219727,0.00723267,-1.00627136,0.366211,0.061035,-0.061035
1818414916,0.00219727,0.00723267,-1.00627136,0.366211,0.000000,-0.122070
1820978333,0.00285339,0.00785828,-1.00579834,0.366211,0.000000,-0.122070
1828137916,0.00285339,0.00785828,-1.00579834,0.366211,0.122070,-0.122070
1830699291,0.00144958,0.00737000,-1.00602722,0.366211,0.122070,-0.122070
1838359458,0.00144958,0.00737000,-1.00602722,0.122070,0.000000,-0.122070
1840932625,0.00158691,0.00778198,-1.00617981,0.122070,0.000000,-0.122070
1847677250,0.00158691,0.00778198,-1.00617981,0.366211,0.000000,-0.122070
1850219375,0.00230408,0.00839233,-1.00506592,0.366211,0.000000,-0.122070
1857756041,0.00230408,0.00839233,-1.00506592,0.244141,0.000000,-0.061035
1860307958,0.00141907,0.00753784,-1.00692749,0.244141,0.000000,-0.061035
1867922208,0.00141907,0.00753784,-1.00692749,0.366211,0.000000,-0.061035
1870490666,0.00175476,0.00752258,-1.00720215,0.366211,0.000000,-0.061035
1878131375,0.00175476,0.00752258,-1.00720215,0.366211,0.061035,-0.122070
1880695416,0.00152588,0.00814819,-1.00633240,0.366211,0.061035,-0.122070
1888332083,0.00152588,0.00814819,-1.00633240,0.305176,-0.061035,-0.061035
1890900166,0.00149536,0.00836182,-1.00614929,0.305176,-0.061035,-0.061035
1898409166,0.00149536,0.00836182,-1.00614929,0.305176,-0.061035,-0.061035
1900976791,0.00202942,0.00737000,-1.00584412,0.305176,-0.061035,-0.061035
1908661583,0.00202942,0.00737000,-1.00584412,0.427246,0.000000,0.000000
1911254375,0.00210571,0.00709534,-1.00616455,0.427246,0.000000,0.000000
1918911208,0.00210571,0.00709534,-1.00616455,0.488281,0.000000,-0.061035
1921477500,0.00241089,0.00729370,-1.00543213,0.488281,0.000000,-0.061035
1929098416,0.00241089,0.00729370,-1.00543213,0.305176,0.122070,-0.122070
1931653916,0.00234985,0.00823975,-1.00668335,0.305176,0.122070,-0.122070
1939271666,0.00234985,0.00823975,-1.00668335,0.244141,0.000000,-0.061035
1941825083,0.00183105,0.00770569,-1.00617981,0.244141,0.000000,-0.061035
1949443041,0.00183105,0.00770569,-1.00617981,0.366211,0.000000,-0.122070
1952013750,0.00137329,0.00732422,-1.00640869,0.366211,0.000000,-0.122070
1959251041,0.00137329,0.00732422,-1.00640869,0.366211,0.061035,0.000000
1961795458,0.00190735,0.00775146,-1.00621033,0.366211,0.061035,0.000000
1969394958,0.00190735,0.00775146,-1.00621033,0.244141,0.000000,-0.244141
1971835833,0.00151062,0.00712585,-1.00575256,0.244141,0.000000,-0.244141
1979425208,0.00151062,0.00712585,-1.00575256,0.488281,0.000000,0.000000
1981975708,0.00123596,0.00721741,-1.00671387,0.488281,0.000000,0.000000
1989570416,0.00123596,0.00721741,-1.00671387,0.305176,0.000000,-0.061035
1992122250,0.00244141,0.00833130,-1.00593567,0.305176,0.000000,-0.061035
1999761583,0.00244141,0.00833130,-1.00593567,0.427246,-0.061035,-0.061035
2002330125,0.00093079,0.00772095,-1.00648499,0.427246,-0.061035,-0.061035
2007419000,0.00093079,0.00772095,-1.00648499,0.244141,0.000000,-0.061035
2009973833,0.00158691,0.00718689,-1.00587463,0.244141,0.000000,-0.061035
2017330333,0.00158691,0.00718689,-1.00587463,0.366211,0.122070,-0.183105
2022419916,0.00149536,0.00796509,-1.00703430,0.366211,0.122070,-0.183105
2027480041,0.00149536,0.00796509,-1.00703430,0.427246,-0.122070,-0.122070
2030016083,0.00122070,0.00773621,-1.00541687,0.427246,-0.122070,-0.122070
2037672000,0.00122070,0.00773621,-1.00541687,0.305176,0.061035,-0.122070
2040231583,0.00199890,0.00827026,-1.00643921,0.305176,0.061035,-0.122070
2047829291,0.00199890,0.00827026,-1.00643921,0.366211,0.061035,-0.061035
2050371375,0.00170898,0.00740051,-1.00650024,0.366211,0.061035,-0.061035
2057971333,0.00170898,0.00740051,-1.00650024,0.244141,0.061035,-0.061035
2060532291,0.00166321,0.00685120,-1.00531006,0.244141,0.061035,-0.061035
2068160916,0.00166321,0.00685120,-1.00531006,0.366211,0.122070,-0.061035
2070706541,0.00184631,0.00767517,-1.00582886,0.366211,0.122070,-0.061035
2078330833,0.00184631,0.00767517,-1.00582886,0.366211,-0.061035,-0.122070
2080889125,0.00158691,0.00756836,-1.00662231,0.366211,-0.061035,-0.122070
2088530000,0.00158691,0.00756836,-1.00662231,0.366211,0.000000,-0.061035
2091105166,0.00141907,0.00784302,-1.00587463,0.366211,0.000000,-0.061035
2098721208,0.00141907,0.00784302,-1.00587463,0.427246,0.061035,-0.122070
2101262875,0.00167847,0.00755310,-1.00595093,0.427246,0.061035,-0.122070
2108868333,0.00167847,0.00755310,-1.00595093,0.305176,0.000000,-0.122070
2111432333,0.00263977,0.00694275,-1.00556946,0.305176,0.000000,-0.122070
2119030583,0.00263977,0.00694275,-1.00556946,0.183105,0.000000,-0.122070
2121576958,0.00306702,0.00683594,-1.00753784,0.183105,0.000000,-0.122070
2129190416,0.00306702,0.00683594,-1.00753784,0.183105,0.183105,-0.183105
2131756166,0.00251770,0.00701904,-1.00584412,0.183105,0.183105,-0.183105
2139364916,0.00251770,0.00701904,-1.00584412,0.427246,0.061035,-0.122070
2141440416,0.00184631,0.00781250,-1.00611877,0.427246,0.061035,-0.122070
2149043375,0.00184631,0.00781250,-1.00611877,0.305176,0.061035,-0.122070
2151601708,0.00224304,0.00746155,-1.00512695,0.305176,0.061035,-0.122070
2159206625,0.00224304,0.00746155,-1.00512695,0.244141,0.000000,-0.305176
2161743500,0.00128174,0.00697327,-1.00758362,0.244141,0.000000,-0.305176
2169310750,0.00128174,0.00697327,-1.00758362,0.244141,0.000000,-0.061035
2171880000,0.00102234,0.00793457,-1.00601196,0.244141,0.000000,-0.061035
2179534750,0.00102234,0.00793457,-1.00601196,0.305176,0.000000,-0.061035
2182084041,0.00190735,0.00849915,-1.00695801,0.305176,0.000000,-0.061035
2189563333,0.00190735,0.00849915,-1.00695801,0.244141,0.061035,-0.122070
2191868166,0.00123596,0.00700378,-1.00622559,0.244141,0.061035,-0.122070
2199476458,0.00123596,0.00700378,-1.00622559,0.183105,0.000000,-0.061035
2202036875,0.00054932,0.00758362,-1.00642395,0.183105,0.000000,-0.061035
2209334166,0.00054932,0.00758362,-1.00642395,0.305176,0.000000,-0.122070
2211880666,0.00111389,0.00723267,-1.00614929,0.305176,0.000000,-0.122070
2219502750,0.00111389,0.00723267,-1.00614929,0.244141,0.000000,-0.061035
2221633000,0.00186157,0.00686646,-1.00524902,0.244141,0.000000,-0.061035
2229233333,0.00186157,0.00686646,-1.00524902,0.366211,-0.061035,-0.122070
2231783916,0.00233459,0.00805664,-1.00640869,0.366211,-0.061035,-0.122070
2239374083,0.00233459,0.00805664,-1.00640869,0.305176,-0.061035,0.000000
2241905208,0.00190735,0.00755310,-1.00656128,0.305176,-0.061035,0.000000
2249387875,0.00190735,0.00755310,-1.00656128,0.183105,0.122070,-0.122070
2251962291,0.00257874,0.00753784,-1.00572205,0.183105,0.122070,-0.122070
2259563333,0.00257874,0.00753784,-1.00572205,0.183105,0.061035,-0.061035
2262111291,0.00236511,0.00672913,-1.00677490,0.183105,0.061035,-0.061035
2269727041,0.00236511,0.00672913,-1.00677490,0.244141,0.000000,-0.122070
2272289000,0.00195312,0.00680542,-1.00607300,0.244141,0.000000,-0.122070
2279900583,0.00192261,0.00686646,-1.00679016,0.366211,0.061035,-0.061035
2289578416,0.00192261,0.00686646,-1.00679016,0.305176,0.122070,-0.061035
2291756833,0.00180054,0.00787354,-1.00556946,0.305176,0.122070,-0.061035
2299414166,0.00180054,0.00787354,-1.00556946,0.366211,-0.061035,0.000000
2301617958,0.00106812,0.00679016,-1.00701904,0.366211,-0.061035,0.000000
2309246916,0.00106812,0.00679016,-1.00701904,0.244141,-0.061035,-0.061035
2311838000,0.00177002,0.00775146,-1.00573730,0.244141,-0.061035,-0.061035
2319463666,0.00177002,0.00775146,-1.00573730,0.183105,0.122070,-0.183105
2321895250,0.00137329,0.00814819,-1.00712585,0.183105,0.122070,-0.183105
2329627791,0.00137329,0.00814819,-1.00712585,0.366211,0.061035,-0.061035
2332242375,0.00212097,0.00732422,-1.00625610,0.366211,0.061035,-0.061035
2339797500,0.00212097,0.00732422,-1.00625610,0.183105,0.000000,-0.061035
2342369416,0.00111389,0.00662231,-1.00650024,0.183105,0.000000,-0.061035
2350032166,0.00108337,0.00793457,-1.00564575,0.427246,-0.122070,-0.122070
2359852541,0.00108337,0.00793457,-1.00564575,0.244141,0.000000,-0.061035
2362416375,0.00230408,0.00798035,-1.00529480,0.244141,0.000000,-0.061035
2370025875,0.00158691,0.00779724,-1.00593567,0.427246,0.061035,-0.061035
2380165500,0.00231934,0.00802612,-1.00559998,0.366211,0.000000,-0.061035
2389997708,0.00183105,0.00723267,-1.00541687,0.061035,0.000000,-0.122070
2399628541,0.00183105,0.00723267,-1.00541687,0.366211,-0.061035,-0.244141
2402162000,0.00109863,0.00720215,-1.00659180,0.366211,-0.061035,-0.244141
2409410875,0.00109863,0.00720215,-1.00659180,0.305176,0.000000,-0.061035
2411952041,0.00152588,0.00744629,-1.00672913,0.305176,0.000000,-0.061035
2419544791,0.00152588,0.00744629,-1.00672913,0.427246,0.000000,-0.061035
2422090208,0.00202942,0.00717163,-1.00697327,0.427246,0.000000,-0.061035
2429678416,0.00202942,0.00717163,-1.00697327,0.305176,-0.061035,-0.061035
2432241208,0.00177002,0.00808716,-1.00584412,0.305176,-0.061035,-0.061035
2439851750,0.00177002,0.00808716,-1.00584412,0.305176,0.183105,-0.061035
2442407541,0.00163269,0.00712585,-1.00553894,0.305176,0.183105,-0.061035
2449838666,0.00163269,0.00712585,-1.00553894,0.122070,-0.061035,-0.183105
2452406041,0.00175476,0.00819397,-1.00585938,0.122070,-0.061035,-0.183105
2460043750,0.00141907,0.00715637,-1.00721741,0.244141,0.000000,-0.122070
2470053416,0.00158691,0.00764465,-1.00654602,0.305176,0.000000,-0.061035
2480105291,0.00201416,0.00752258,-1.00567627,0.366211,0.000000,-0.122070
2490200333,0.00166321,0.00787354,-1.00607300,0.305176,-0.061035,-0.122070
2497805750,0.00166321,0.00787354,-1.00607300,0.427246,0.061035,0.000000
2500352458,0.00209045,0.00920105,-1.00665283,0.427246,0.061035,0.000000
2507982500,0.00209045,0.00920105,-1.00665283,0.183105,0.122070,0.000000
2510535083,0.00199890,0.00860596,-1.00721741,0.183105,0.122070,0.000000
2518213333,0.00199890,0.00860596,-1.00721741,0.244141,-0.061035,-0.061035
2520784833,0.00279236,0.00845337,-1.00630188,0.244141,-0.061035,-0.061035
2528503791,0.00279236,0.00845337,-1.00630188,0.183105,-0.122070,-0.061035
2530914416,0.00177002,0.00796509,-1.00706482,0.183105,-0.122070,-0.061035
2538681625,0.00177002,0.00796509,-1.00706482,0.244141,0.000000,0.000000
2541283166,0.00028992,0.00723267,-1.00502014,0.244141,0.000000,0.000000
2548958875,0.00028992,0.00723267,-1.00502014,0.305176,0.122070,0.000000
2551538458,0.00122070,0.00645447,-1.00677490,0.305176,0.122070,0.000000
2559149208,0.00122070,0.00645447,-1.00677490,0.427246,-0.061035,-0.122070
2561714875,0.00233459,0.00656128,-1.00613403,0.427246,-0.061035,-0.122070
2569315458,0.00233459,0.00656128,-1.00613403,0.183105,0.061035,-0.061035
2571916375,0.00169373,0.00724792,-1.00476074,0.183105,0.061035,-0.061035
2579648875,0.00169373,0.00724792,-1.00476074,0.366211,0.122070,-0.061035
2582244958,0.00230408,0.00830078,-1.00502014,0.366211,0.122070,-0.061035
2589928625,0.00230408,0.00830078,-1.00502014,0.305176,0.061035,0.000000
2592500666,0.00239563,0.00831604,-1.00592041,0.305176,0.061035,0.000000
2600110208,0.00212097,0.00758362,-1.00506592,0.244141,-0.061035,-0.061035
2610349208,0.00256348,0.00709534,-1.00605774,0.183105,-0.061035,-0.183105
2617969583,0.00256348,0.00709534,-1.00605774,0.183105,-0.061035,0.000000
2620556750,0.00161743,0.00741577,-1.00537109,0.183105,-0.061035,0.000000
2627856666,0.00161743,0.00741577,-1.00537109,0.427246,0.000000,-0.183105
2630431041,0.00096130,0.00770569,-1.00599670,0.427246,0.000000,-0.183105
2638047666,0.00096130,0.00770569,-1.00599670,0.305176,-0.061035,-0.122070
2640626083,0.00077820,0.00872803,-1.00576782,0.305176,-0.061035,-0.122070
2648231708,0.00077820,0.00872803,-1.00576782,0.427246,0.061035,-0.122070
2650778833,0.00181580,0.00877380,-1.00695801,0.427246,0.061035,-0.122070
2658375291,0.00181580,0.00877380,-1.00695801,0.244141,0.000000,0.000000
2660792666,0.00221252,0.00877380,-1.00477600,0.244141,0.000000,0.000000
2668381166,0.00221252,0.00877380,-1.00477600,0.366211,0.122070,-0.061035
2670793458,0.00103760,0.00889587,-1.00567627,0.366211,0.122070,-0.061035
2678286208,0.00103760,0.00889587,-1.00567627,0.244141,0.122070,0.000000
2680848583,0.00048828,0.00804138,-1.00593567,0.244141,0.122070,0.000000
2688477875,0.00048828,0.00804138,-1.00593567,0.244141,0.000000,0.000000
2691075833,0.00033569,0.00750732,-1.00704956,0.244141,0.000000,0.000000
2698742583,0.00033569,0.00750732,-1.00704956,0.305176,0.000000,0.000000
2701204166,0.00073242,0.00781250,-1.00549316,0.305176,0.000000,0.000000
2708816791,0.00073242,0.00781250,-1.00549316,0.427246,0.000000,-0.061035
2711372958,0.00128174,0.00688171,-1.00654602,0.427246,0.000000,-0.061035
2719002208,0.00128174,0.00688171,-1.00654602,0.427246,0.061035,0.000000
2721593958,0.00219727,0.00645447,-1.00556946,0.427246,0.061035,0.000000
2729210625,0.00219727,0.00645447,-1.00556946,0.305176,-0.061035,-0.061035
2731759750,0.00317383,0.00633240,-1.00692749,0.305176,-0.061035,-0.061035
2739377083,0.00317383,0.00633240,-1.00692749,0.305176,0.000000,-0.183105
2741921750,0.00386047,0.00663757,-1.00653076,0.305176,0.000000,-0.183105
2749580166,0.00386047,0.00663757,-1.00653076,0.366211,0.061035,-0.122070
2752162666,0.00267029,0.00694275,-1.00640869,0.366211,0.061035,-0.122070
2759697291,0.00267029,0.00694275,-1.00640869,0.366211,-0.061035,-0.122070
2762250458,0.00215149,0.00773621,-1.00654602,0.366211,-0.061035,-0.122070
2769854791,0.00215149,0.00773621,-1.00654602,0.366211,0.000000,-0.061035
2772408416,0.00253296,0.00820923,-1.00653076,0.366211,0.000000,-0.061035
2780019250,0.00253296,0.00820923,-1.00653076,0.305176,0.000000,-0.122070
2782607583,0.00265503,0.00907898,-1.00576782,0.305176,0.000000,-0.122070
2790214375,0.00167847,0.00830078,-1.00617981,0.244141,0.122070,-0.061035
2797859916,0.00167847,0.00830078,-1.00617981,0.305176,0.000000,-0.183105
2800412583,0.00123596,0.00938416,-1.00605774,0.305176,0.000000,-0.183105
2808005916,0.00123596,0.00938416,-1.00605774,0.183105,0.244141,0.000000
2810565125,0.00122070,0.00906372,-1.00659180,0.183105,0.244141,0.000000
2818185666,0.00122070,0.00906372,-1.00659180,0.366211,0.122070,-0.061035
2820813750,-0.00003052,0.00782776,-1.00500488,0.366211,0.122070,-0.061035
2828496125,-0.00003052,0.00782776,-1.00500488,0.305176,0.000000,-0.061035
2831069583,0.00091553,0.00852966,-1.00588989,0.305176,0.000000,-0.061035
2838600083,0.00091553,0.00852966,-1.00588989,0.427246,0.061035,-0.061035
2841200791,0.00212097,0.00839233,-1.00587463,0.427246,0.061035,-0.061035
2848864791,0.00212097,0.00839233,-1.00587463,0.305176,-0.061035,-0.061035
2851421791,0.00199890,0.00790405,-1.00645447,0.305176,-0.061035,-0.061035
2859024625,0.00199890,0.00790405,-1.00645447,0.366211,0.000000,0.000000
2861294958,0.00234985,0.00775146,-1.00613403,0.366211,0.000000,0.000000
2868884500,0.00234985,0.00775146,-1.00613403,0.183105,0.061035,-0.122070
2871191916,0.00228882,0.00733948,-1.00682068,0.183105,0.061035,-0.122070
2878822416,0.00228882,0.00733948,-1.00682068,0.183105,0.000000,0.000000
2881389166,0.00273132,0.00595093,-1.00643921,0.183105,0.000000,0.000000
2888579666,0.00273132,0.00595093,-1.00643921,0.305176,0.061035,-0.061035
2891149833,0.00277710,0.00639343,-1.00552368,0.305176,0.061035,-0.061035
2898782833,0.00277710,0.00639343,-1.00552368,0.244141,0.000000,-0.122070
2900906458,0.00280762,0.00679016,-1.00598145,0.244141,0.000000,-0.122070
2908544916,0.00280762,0.00679016,-1.00598145,0.366211,0.000000,-0.061035
2911123041,0.00170898,0.00732422,-1.00534058,0.366211,0.000000,-0.061035
2918860375,0.00170898,0.00732422,-1.00534058,0.427246,0.122070,0.000000
2921439416,0.00215149,0.00727844,-1.00621033,0.427246,0.122070,0.000000
2929078416,0.00215149,0.00727844,-1.00621033,0.183105,0.000000,-0.122070
2931659000,0.00126648,0.00854492,-1.00556946,0.183105,0.000000,-0.122070
2939312166,0.00126648,0.00854492,-1.00556946,0.183105,0.061035,-0.122070
2941950083,0.00170898,0.00917053,-1.00671387,0.183105,0.061035,-0.122070
2949667583,0.00170898,0.00917053,-1.00671387,0.366211,-0.061035,-0.183105
2952199375,0.00154114,0.00868225,-1.00636292,0.366211,-0.061035,-0.183105
2959816666,0.00154114,0.00868225,-1.00636292,0.366211,0.000000,-0.061035
2962364083,0.00097656,0.00898743,-1.00566101,0.366211,0.000000,-0.061035
2969971333,0.00097656,0.00898743,-1.00566101,0.305176,-0.061035,-0.183105
2972545333,0.00192261,0.00921631,-1.00628662,0.305176,-0.061035,-0.183105
2980156875,0.00137329,0.00894165,-1.00608826,0.305176,0.000000,-0.061035
2990342750,0.00143433,0.00819397,-1.00628662,0.183105,-0.122070,-0.061035
2997984250,0.00143433,0.00819397,-1.00628662,0.244141,-0.061035,-0.061035
3000558458,0.00195312,0.00802612,-1.00666809,0.244141,-0.061035,-0.061035
3008218791,0.00195312,0.00802612,-1.00666809,0.305176,0.061035,-0.061035
3010799958,0.00115967,0.00663757,-1.00604248,0.305176,0.061035,-0.061035
3018446708,0.00115967,0.00663757,-1.00604248,0.366211,0.061035,-0.061035
3021011250,0.00173950,0.00749207,-1.00587463,0.366211,0.061035,-0.061035
3028361541,0.00173950,0.00749207,-1.00587463,0.305176,0.061035,0.000000
3030932416,0.00178528,0.00669861,-1.00595093,0.305176,0.061035,0.000000
3038543291,0.00178528,0.00669861,-1.00595093,0.183105,0.061035,0.000000
3041158625,0.00268555,0.00607300,-1.00643921,0.183105,0.061035,0.000000
3048836083,0.00268555,0.00607300,-1.00643921,0.305176,0.061035,-0.122070
3051401166,0.00288391,0.00724792,-1.00534058,0.305176,0.061035,-0.122070
3059008458,0.00288391,0.00724792,-1.00534058,0.183105,0.061035,-0.122070
3061548125,0.00242615,0.00712585,-1.00680542,0.183105,0.061035,-0.122070
3069137500,0.00242615,0.00712585,-1.00680542,0.305176,0.061035,-0.122070
3071452958,0.00187683,0.00695801,-1.00544739,0.305176,0.061035,-0.122070
3079058500,0.00187683,0.00695801,-1.00544739,0.305176,-0.061035,-0.244141
3081614666,0.00267029,0.00846863,-1.00694275,0.305176,-0.061035,-0.244141
3089265083,0.00267029,0.00846863,-1.00694275,0.305176,0.000000,-0.061035
3091837750,0.00125122,0.00851440,-1.00643921,0.305176,0.000000,-0.061035
3099454666,0.00125122,0.00851440,-1.00643921,0.427246,0.061035,-0.061035
3102024833,0.00111389,0.00895691,-1.00669861,0.427246,0.061035,-0.061035
3109694125,0.00111389,0.00895691,-1.00669861,0.244141,0.000000,-0.061035
3112293208,0.00225830,0.00866699,-1.00567627,0.244141,0.000000,-0.061035
3119794833,0.00225830,0.00866699,-1.00567627,0.305176,-0.061035,-0.122070
3122149750,0.00207520,0.00897217,-1.00697327,0.305176,-0.061035,-0.122070
3129899916,0.00207520,0.00897217,-1.00697327,0.366211,0.061035,-0.061035
3132484041,0.00163269,0.00840759,-1.00604248,0.366211,0.061035,-0.061035
3140158958,0.00163269,0.00840759,-1.00604248,0.244141,0.061035,-0.122070
3142548833,0.00155640,0.00820923,-1.00619507,0.244141,0.061035,-0.122070
3150182083,0.00262451,0.00791931,-1.00617981,0.366211,0.000000,-0.122070
3160321083,0.00180054,0.00784302,-1.00653076,0.244141,0.000000,0.000000
3167962666,0.00180054,0.00784302,-1.00653076,0.244141,0.061035,-0.061035
3170525625,0.00201416,0.00787354,-1.00715637,0.244141,0.061035,-0.061035
3178133916,0.00201416,0.00787354,-1.00715637,0.427246,0.122070,-0.183105
3180707416,0.00210571,0.00657654,-1.00572205,0.427246,0.122070,-0.183105
3188373833,0.00210571,0.00657654,-1.00572205,0.305176,0.183105,-0.122070
3190970333,0.00155640,0.00721741,-1.00521851,0.305176,0.183105,-0.122070
3198357000,0.00155640,0.00721741,-1.00521851,0.244141,-0.061035,-0.061035
3200956750,0.00093079,0.00717163,-1.00720215,0.244141,-0.061035,-0.061035
3208606166,0.00093079,0.00717163,-1.00720215,0.244141,0.061035,0.061035
3211176750,0.00221252,0.00790405,-1.00572205,0.244141,0.061035,0.061035
3218840000,0.00221252,0.00790405,-1.00572205,0.427246,0.000000,0.000000
3221431416,0.00109863,0.00822449,-1.00718689,0.427246,0.000000,0.000000
3229044291,0.00109863,0.00822449,-1.00718689,0.427246,0.061035,0.000000
3231601750,0.00128174,0.00749207,-1.00466919,0.427246,0.061035,0.000000
3238580833,0.00128174,0.00749207,-1.00466919,0.244141,0.000000,-0.061035
3241144875,0.00172424,0.00836182,-1.00672913,0.244141,0.000000,-0.061035
3248872041,0.00172424,0.00836182,-1.00672913,0.427246,-0.061035,0.000000
3251451041,0.00141907,0.00857544,-1.00520325,0.427246,-0.061035,0.000000
3259054125,0.00141907,0.00857544,-1.00520325,0.122070,0.061035,-0.061035
3261593625,0.00119019,0.00712585,-1.00682068,0.122070,0.061035,-0.061035
3269187541,0.00119019,0.00712585,-1.00682068,0.244141,0.000000,-0.061035
3271438083,0.00122070,0.00828552,-1.00648499,0.244141,0.000000,-0.061035
3279107375,0.00122070,0.00828552,-1.00648499,0.305176,0.061035,-0.061035
3281679958,0.00172424,0.00819397,-1.00532532,0.305176,0.061035,-0.061035
3289295750,0.00172424,0.00819397,-1.00532532,0.427246,0.061035,-0.122070
3291850125,0.00132751,0.00683594,-1.00619507,0.427246,0.061035,-0.122070
3299492833,0.00132751,0.00683594,-1.00619507,0.183105,0.061035,-0.122070
3302087500,0.00198364,0.00762939,-1.00628662,0.183105,0.061035,-0.122070
3309717166,0.00198364,0.00762939,-1.00628662,0.305176,0.061035,-0.183105
3312273708,0.00193787,0.00750732,-1.00627136,0.305176,0.061035,-0.183105
3319924375,0.00193787,0.00750732,-1.00627136,0.183105,0.000000,-0.061035
3322490125,0.00195312,0.00749207,-1.00614929,0.183105,0.000000,-0.061035
3330124000,0.00195312,0.00749207,-1.00614929,0.366211,0.122070,-0.061035
3332723041,0.00215149,0.00801086,-1.00538635,0.366211,0.122070,-0.061035
3337855833,0.00215149,0.00801086,-1.00538635,0.366211,0.000000,-0.061035
3340280125,0.00260925,0.00849915,-1.00611877,0.366211,0.000000,-0.061035
3347914041,0.00260925,0.00849915,-1.00611877,0.366211,0.061035,0.000000
3350474750,0.00155640,0.00798035,-1.00559998,0.366211,0.061035,0.000000
3357845166,0.00155640,0.00798035,-1.00559998,0.244141,0.122070,-0.122070
3360185541,0.00173950,0.00778198,-1.00718689,0.244141,0.122070,-0.122070
3370265500,0.00129700,0.00779724,-1.00619507,0.305176,-0.183105,-0.061035
3380261666,0.00105286,0.00791931,-1.00680542,0.366211,0.061035,0.000000
3390046666,0.00105286,0.00791931,-1.00680542,0.305176,0.000000,-0.122070
3392617291,0.00135803,0.00900269,-1.00669861,0.305176,0.000000,-0.122070
3400249000,0.00187683,0.00862122,-1.00570679,0.427246,0.061035,0.061035
3407862125,0.00187683,0.00862122,-1.00570679,0.427246,0.122070,-0.061035
3410442666,0.00125122,0.00852966,-1.00564575,0.427246,0.122070,-0.061035
3417933666,0.00125122,0.00852966,-1.00564575,0.427246,0.061035,-0.122070
3422689750,0.00178528,0.00871277,-1.00570679,0.427246,0.061035,-0.122070
3430058250,0.00178528,0.00871277,-1.00570679,0.244141,0.061035,-0.061035
3432613583,0.00207520,0.00737000,-1.00527954,0.244141,0.061035,-0.061035
3440283083,0.00204468,0.00833130,-1.00518799,0.366211,0.000000,0.000000
3450178166,0.00204468,0.00833130,-1.00518799,0.366211,0.000000,-0.122070
3452740666,0.00227356,0.00790405,-1.00712585,0.366211,0.000000,-0.122070
3460389458,0.00141907,0.00765991,-1.00505066,0.061035,0.000000,-0.122070
3469971208,0.00141907,0.00765991,-1.00505066,0.244141,0.000000,-0.122070
3472578958,0.00221252,0.00700378,-1.00529480,0.244141,0.000000,-0.122070
3480240000,0.00256348,0.00686646,-1.00483704,0.305176,0.122070,-0.122070
3487855250,0.00256348,0.00686646,-1.00483704,0.366211,0.122070,0.000000
3490423041,0.00148010,0.00819397,-1.00575256,0.366211,0.122070,0.000000
3497886333,0.00148010,0.00819397,-1.00575256,0.244141,0.000000,-0.122070
3500449750,0.00199890,0.00798035,-1.00659180,0.244141,0.000000,-0.122070
3508064625,0.00199890,0.00798035,-1.00659180,0.305176,0.061035,-0.061035
3510613750,0.00199890,0.00781250,-1.00648499,0.305176,0.061035,-0.061035
3518207500,0.00199890,0.00781250,-1.00648499,0.366211,0.122070,0.000000
3520748125,0.00260925,0.00895691,-1.00596619,0.366211,0.122070,0.000000
3528341666,0.00260925,0.00895691,-1.00596619,0.488281,-0.122070,-0.122070
3530835583,0.00135803,0.00880432,-1.00631714,0.488281,-0.122070,-0.122070
3538627458,0.00135803,0.00880432,-1.00631714,0.427246,0.000000,0.000000
3541266333,0.00175476,0.00856018,-1.00532532,0.427246,0.000000,0.000000
3548932041,0.00175476,0.00856018,-1.00532532,0.244141,0.122070,0.061035
3551479916,0.00192261,0.00819397,-1.00619507,0.244141,0.122070,0.061035
3559091208,0.00192261,0.00819397,-1.00619507,0.183105,0.122070,0.000000
3561641625,0.00135803,0.00836182,-1.00544739,0.183105,0.122070,0.000000
3569259041,0.00135803,0.00836182,-1.00544739,0.366211,0.000000,-0.122070
3571822625,0.00199890,0.00787354,-1.00622559,0.366211,0.000000,-0.122070
3579474291,0.00199890,0.00787354,-1.00622559,0.305176,0.122070,0.000000
3582043166,0.00166321,0.00816345,-1.00558472,0.305176,0.122070,0.000000
3589648333,0.00166321,0.00816345,-1.00558472,0.183105,0.061035,-0.122070
3592299625,0.00117493,0.00737000,-1.00669861,0.183105,0.061035,-0.122070
3599985416,0.00117493,0.00737000,-1.00669861,0.366211,0.000000,-0.122070
3602619333,0.00186157,0.00636292,-1.00535583,0.366211,0.000000,-0.122070
3607956000,0.00186157,0.00636292,-1.00535583,0.244141,0.000000,0.122070
3610507791,0.00199890,0.00740051,-1.00686646,0.244141,0.000000,0.122070
3618090416,0.00199890,0.00740051,-1.00686646,0.305176,0.000000,-0.183105
3620627000,0.00239563,0.00749207,-1.00514221,0.305176,0.000000,-0.183105
3628175375,0.00239563,0.00749207,-1.00514221,0.488281,0.000000,0.000000
3630705791,0.00148010,0.00650024,-1.00679016,0.488281,0.000000,0.000000
3638274208,0.00148010,0.00650024,-1.00679016,0.305176,0.122070,-0.061035
3640822583,0.00186157,0.00651550,-1.00524902,0.305176,0.122070,-0.061035
3648372958,0.00186157,0.00651550,-1.00524902,0.366211,0.061035,-0.183105
3650887333,0.00158691,0.00726318,-1.00639343,0.366211,0.061035,-0.183105
3658426750,0.00158691,0.00726318,-1.00639343,0.366211,0.183105,-0.122070
3660955291,0.00122070,0.00816345,-1.00663757,0.366211,0.183105,-0.122070
3668514791,0.00122070,0.00816345,-1.00663757,0.305176,0.122070,-0.183105
3671056958,0.00047302,0.00802612,-1.00607300,0.305176,0.122070,-0.183105
3678187416,0.00047302,0.00802612,-1.00607300,0.366211,0.000000,-0.061035
3680703083,0.00071716,0.00805664,-1.00511169,0.366211,0.000000,-0.061035
3688246916,0.00071716,0.00805664,-1.00511169,0.244141,0.061035,-0.122070
3690788125,0.00129700,0.00732422,-1.00677490,0.244141,0.061035,-0.122070
3698346083,0.00129700,0.00732422,-1.00677490,0.366211,0.122070,0.122070
3700810208,0.00109863,0.00708008,-1.00588989,0.366211,0.122070,0.122070
3708352000,0.00109863,0.00708008,-1.00588989,0.244141,0.061035,-0.061035
3710868291,0.00111389,0.00689697,-1.00576782,0.244141,0.061035,-0.061035
3718433500,0.00111389,0.00689697,-1.00576782,0.183105,0.244141,-0.061035
3720976458,0.00216675,0.00755310,-1.00572205,0.183105,0.244141,-0.061035
3728540583,0.00216675,0.00755310,-1.00572205,0.244141,-0.061035,-0.122070
3731059083,0.00196838,0.00715637,-1.00642395,0.244141,-0.061035,-0.122070
3738611958,0.00196838,0.00715637,-1.00642395,0.305176,0.000000,-0.122070
3741162833,0.00212097,0.00669861,-1.00616455,0.305176,0.000000,-0.122070
3748758125,0.00212097,0.00669861,-1.00616455,0.305176,-0.061035,-0.061035
3751300541,0.00122070,0.00759888,-1.00625610,0.305176,-0.061035,-0.061035
3758865625,0.00122070,0.00759888,-1.00625610,0.183105,0.000000,-0.061035
3761395625,0.00215149,0.00775146,-1.00479126,0.183105,0.000000,-0.061035
3768980250,0.00215149,0.00775146,-1.00479126,0.366211,0.122070,-0.061035
3771502958,0.00212097,0.00717163,-1.00787354,0.366211,0.122070,-0.061035
3778705375,0.00212097,0.00717163,-1.00787354,0.305176,0.061035,-0.061035
3781233166,0.00181580,0.00738525,-1.00662231,0.305176,0.061035,-0.061035
3788531250,0.00181580,0.00738525,-1.00662231,0.305176,0.183105,-0.122070
3791052625,0.00242615,0.00706482,-1.00633240,0.305176,0.183105,-0.122070
3798606041,0.00242615,0.00706482,-1.00633240,0.305176,-0.122070,-0.122070
3801120833,0.00198364,0.00755310,-1.00521851,0.305176,-0.122070,-0.122070
3808677791,0.00198364,0.00755310,-1.00521851,0.244141,0.122070,-0.122070
3811199083,0.00134277,0.00819397,-1.00651550,0.244141,0.122070,-0.122070
3818523583,0.00134277,0.00819397,-1.00651550,0.305176,0.000000,-0.061035
3821058500,0.00114441,0.00733948,-1.00650024,0.305176,0.000000,-0.061035
3828635416,0.00114441,0.00733948,-1.00650024,0.305176,0.122070,-0.061035
3831164541,0.00144958,0.00782776,-1.00582886,0.305176,0.122070,-0.061035
3838523375,0.00144958,0.00782776,-1.00582886,0.305176,0.061035,-0.061035
3841146500,0.00154114,0.00802612,-1.00483704,0.305176,0.061035,-0.061035
3848809500,0.00154114,0.00802612,-1.00483704,0.366211,-0.122070,-0.061035
3851380208,0.00221252,0.00732422,-1.00709534,0.366211,-0.122070,-0.061035
3859039166,0.00221252,0.00732422,-1.00709534,0.244141,0.061035,-0.183105
3861605958,0.00132751,0.00755310,-1.00724792,0.244141,0.061035,-0.183105
3869277625,0.00132751,0.00755310,-1.00724792,0.427246,0.061035,0.000000
3871915583,0.00125122,0.00784302,-1.00660706,0.427246,0.061035,0.000000
3879558291,0.00125122,0.00784302,-1.00660706,0.366211,0.000000,-0.061035
3882115000,0.00160217,0.00798035,-1.00456238,0.366211,0.000000,-0.061035
3889638541,0.00160217,0.00798035,-1.00456238,0.366211,0.061035,0.000000
3892177083,0.00123596,0.00778198,-1.00607300,0.366211,0.061035,0.000000
3899502625,0.00123596,0.00778198,-1.00607300,0.061035,0.000000,-0.061035
3902078375,0.00225830,0.00743103,-1.00520325,0.061035,0.000000,-0.061035
3909504666,0.00225830,0.00743103,-1.00520325,0.305176,0.000000,-0.122070
3912109250,0.00157166,0.00695801,-1.00534058,0.305176,0.000000,-0.122070
3919811458,0.00157166,0.00695801,-1.00534058,0.183105,0.000000,-0.122070
3922434625,0.00125122,0.00711060,-1.00622559,0.183105,0.000000,-0.122070
3930112291,0.00125122,0.00711060,-1.00622559,0.427246,0.122070,-0.122070
3932695208,0.00146484,0.00749207,-1.00634766,0.427246,0.122070,-0.122070
3938021041,0.00146484,0.00749207,-1.00634766,0.366211,0.061035,-0.122070
3940647333,0.00209045,0.00755310,-1.00663757,0.366211,0.061035,-0.122070
3948316500,0.00209045,0.00755310,-1.00663757,0.305176,0.000000,-0.122070
3950904166,0.00167847,0.00755310,-1.00628662,0.305176,0.000000,-0.122070
3958538875,0.00167847,0.00755310,-1.00628662,0.183105,0.061035,-0.122070
3961095333,0.00141907,0.00793457,-1.00646973,0.183105,0.061035,-0.122070
3968737708,0.00141907,0.00793457,-1.00646973,0.244141,0.000000,0.000000
3971340000,0.00233459,0.00744629,-1.00564575,0.244141,0.000000,0.000000
3978990083,0.00233459,0.00744629,-1.00564575,0.366211,0.122070,-0.061035
3981587166,0.00184631,0.00729370,-1.00608826,0.366211,0.122070,-0.061035
3989471958,0.00184631,0.00729370,-1.00608826,0.305176,0.061035,-0.061035
3992093125,0.00119019,0.00863647,-1.00439453,0.305176,0.061035,-0.061035
3999395208,0.00119019,0.00863647,-1.00439453,0.366211,0.183105,-0.061035
4001995000,0.00132751,0.00865173,-1.00682068,0.366211,0.183105,-0.061035
4009752500,0.00132751,0.00865173,-1.00682068,0.244141,-0.061035,-0.122070
4012340166,0.00199890,0.00840759,-1.00604248,0.244141,-0.061035,-0.122070
4019997500,0.00199890,0.00840759,-1.00604248,0.305176,-0.061035,0.000000
4022582458,0.00195312,0.00808716,-1.00685120,0.305176,-0.061035,0.000000
4030036583,0.00195312,0.00808716,-1.00685120,0.305176,0.000000,-0.122070
4032704791,0.00151062,0.00802612,-1.00585938,0.305176,0.000000,-0.122070
4039997166,0.00151062,0.00802612,-1.00585938,0.305176,0.000000,-0.122070
4042566416,0.00057983,0.00755310,-1.00601196,0.305176,0.000000,-0.122070
4050239208,0.00057983,0.00755310,-1.00601196,0.305176,0.122070,-0.122070
4052830625,0.00105286,0.00677490,-1.00590515,0.305176,0.122070,-0.122070
4057941666,0.00105286,0.00677490,-1.00590515,0.366211,0.000000,-0.061035
4060489666,0.00274658,0.00701904,-1.00621033,0.366211,0.000000,-0.061035
4068138375,0.00274658,0.00701904,-1.00621033,0.366211,0.122070,-0.122070
4070684583,0.00187683,0.00767517,-1.00633240,0.366211,0.122070,-0.122070
4078313625,0.00187683,0.00767517,-1.00633240,0.366211,0.061035,-0.061035
4080886625,0.00233459,0.00828552,-1.00685120,0.366211,0.061035,-0.061035
4088526416,0.00233459,0.00828552,-1.00685120,0.244141,0.061035,-0.061035
4091105333,0.00189209,0.00782776,-1.00581360,0.244141,0.061035,-0.061035
4098714625,0.00189209,0.00782776,-1.00581360,0.305176,0.000000,-0.061035
4101257041,0.00178528,0.00732422,-1.00628662,0.305176,0.000000,-0.061035
4108866458,0.00178528,0.00732422,-1.00628662,0.366211,0.183105,-0.122070
4111426416,0.00250244,0.00808716,-1.00572205,0.366211,0.183105,-0.122070
4118817541,0.00250244,0.00808716,-1.00572205,0.305176,0.122070,-0.122070
4121377166,0.00210571,0.00755310,-1.00669861,0.305176,0.122070,-0.122070
4128595083,0.00210571,0.00755310,-1.00669861,0.244141,0.000000,-0.122070
4131150541,0.00114441,0.00831604,-1.00517273,0.244141,0.000000,-0.122070
4138606583,0.00114441,0.00831604,-1.00517273,0.305176,0.000000,-0.061035
4141178541,0.00093079,0.00799561,-1.00616455,0.305176,0.000000,-0.061035
4148865083,0.00093079,0.00799561,-1.00616455,0.427246,0.061035,-0.122070
4151508875,0.00099182,0.00767517,-1.00668335,0.427246,0.061035,-0.122070
4159190750,0.00099182,0.00767517,-1.00668335,0.183105,0.000000,0.000000
4161770666,0.00177002,0.00822449,-1.00723267,0.183105,0.000000,0.000000
4169192625,0.00177002,0.00822449,-1.00723267,0.305176,0.122070,-0.061035
4171818333,0.00126648,0.00856018,-1.00529480,0.305176,0.122070,-0.061035
4179230166,0.00126648,0.00856018,-1.00529480,0.488281,0.000000,-0.061035
4181824041,0.00094604,0.00685120,-1.00643921,0.488281,0.000000,-0.061035
4189556791,0.00094604,0.00685120,-1.00643921,0.305176,-0.122070,-0.122070
4192238041,0.00207520,0.00813293,-1.00524902,0.305176,-0.122070,-0.122070
4199444208,0.00207520,0.00813293,-1.00524902,0.366211,0.061035,-0.122070
4202069875,0.00270081,0.00839233,-1.00621033,0.366211,0.061035,-0.122070
4209760000,0.00270081,0.00839233,-1.00621033,0.183105,0.061035,-0.061035
4211959625,0.00231934,0.00732422,-1.00592041,0.183105,0.061035,-0.061035
4219651875,0.00231934,0.00732422,-1.00592041,0.366211,0.183105,0.061035
4222017708,0.00241089,0.00776672,-1.00613403,0.366211,0.183105,0.061035
4229677708,0.00241089,0.00776672,-1.00613403,0.244141,0.061035,0.000000
4232264000,0.00236511,0.00767517,-1.00544739,0.244141,0.061035,0.000000
4240168250,0.00236511,0.00767517,-1.00544739,0.305176,0.000000,-0.061035
4242898291,0.00126648,0.00839233,-1.00672913,0.305176,0.000000,-0.061035
4250428208,0.00125122,0.00807190,-1.00581360,0.366211,0.061035,-0.061035
4258104166,0.00125122,0.00807190,-1.00581360,0.183105,-0.183105,-0.183105
4260653166,0.00189209,0.00700378,-1.00607300,0.183105,-0.183105,-0.183105
4268277958,0.00189209,0.00700378,-1.00607300,0.305176,0.000000,-0.244141
4270836666,0.00094604,0.00790405,-1.00538635,0.305176,0.000000,-0.244141
4278127958,0.00094604,0.00790405,-1.00538635,0.427246,0.122070,-0.061035
4280686291,0.00090027,0.00848389,-1.00640869,0.427246,0.122070,-0.061035
4288314791,0.00090027,0.00848389,-1.00640869,0.366211,0.061035,-0.122070
4290916708,0.00184631,0.00793457,-1.00581360,0.366211,0.061035,-0.122070
4298609416,0.00184631,0.00793457,-1.00581360,0.427246,0.122070,0.000000
4301222125,0.00187683,0.00769043,-1.00566101,0.427246,0.122070,0.000000
4308911958,0.00187683,0.00769043,-1.00566101,0.305176,-0.061035,-0.122070
4311483791,0.00286865,0.00819397,-1.00497437,0.305176,-0.061035,-0.122070
4319178750,0.00286865,0.00819397,-1.00497437,0.183105,-0.061035,-0.122070
4321759708,0.00172424,0.00793457,-1.00582886,0.183105,-0.061035,-0.122070
4329472833,0.00172424,0.00793457,-1.00582886,0.427246,-0.061035,-0.061035
4332080833,0.00146484,0.00764465,-1.00590515,0.427246,-0.061035,-0.061035
4339255625,0.00146484,0.00764465,-1.00590515,0.427246,0.000000,-0.122070
4341846333,0.00170898,0.00755310,-1.00639343,0.427246,0.000000,-0.122070
4349491208,0.00170898,0.00755310,-1.00639343,0.305176,-0.122070,0.061035
4352053625,0.00172424,0.00720215,-1.00544739,0.305176,-0.122070,0.061035
4359676958,0.00172424,0.00720215,-1.00544739,0.305176,0.000000,-0.183105
4362235750,0.00230408,0.00788879,-1.00553894,0.305176,0.000000,-0.183105
4369561166,0.00230408,0.00788879,-1.00553894,0.183105,0.061035,-0.122070
4371954750,0.00201416,0.00825500,-1.00610352,0.183105,0.061035,-0.122070
4379644000,0.00201416,0.00825500,-1.00610352,0.427246,0.000000,-0.061035
4382239250,0.00190735,0.00769043,-1.00627136,0.427246,0.000000,-0.061035
4389624375,0.00190735,0.00769043,-1.00627136,0.305176,0.122070,-0.183105
4392211416,0.00183105,0.00810242,-1.00735474,0.305176,0.122070,-0.183105
4399913291,0.00183105,0.00810242,-1.00735474,0.305176,-0.122070,-0.061035
4402526375,0.00183105,0.00880432,-1.00598145,0.305176,-0.122070,-0.061035
4409989000,0.00183105,0.00880432,-1.00598145,0.305176,0.000000,-0.122070
4412543291,0.00175476,0.00846863,-1.00563049,0.305176,0.000000,-0.122070
4420276666,0.00175476,0.00846863,-1.00563049,0.366211,0.061035,-0.061035
4422915250,0.00163269,0.00823975,-1.00616455,0.366211,0.061035,-0.061035
4428039416,0.00163269,0.00823975,-1.00616455,0.366211,0.061035,0.000000
4430576791,0.00138855,0.00729370,-1.00657654,0.366211,0.061035,0.000000
4438239750,0.00138855,0.00729370,-1.00657654,0.427246,0.122070,-0.061035
4440839166,0.00045776,0.00715637,-1.00553894,0.427246,0.122070,-0.061035
4448045875,0.00045776,0.00715637,-1.00553894,0.366211,0.061035,0.061035
4453192625,0.00083923,0.00794983,-1.00527954,0.366211,0.061035,0.061035
4458310875,0.00083923,0.00794983,-1.00527954,0.244141,0.000000,0.061035
4460907375,0.00129700,0.00775146,-1.00665283,0.244141,0.000000,0.061035
4468549000,0.00129700,0.00775146,-1.00665283,0.061035,-0.061035,0.061035
4471109208,0.00199890,0.00779724,-1.00611877,0.061035,-0.061035,0.061035
4478716833,0.00199890,0.00779724,-1.00611877,0.000000,0.000000,-0.183105
4481259583,0.00201416,0.00798035,-1.00654602,0.000000,0.000000,-0.183105
4488566708,0.00201416,0.00798035,-1.00654602,0.244141,0.061035,-0.061035
4491132583,0.00279236,0.00752258,-1.00614929,0.244141,0.061035,-0.061035
4498593958,0.00279236,0.00752258,-1.00614929,0.366211,-0.122070,-0.122070
4501168458,0.00280762,0.00741577,-1.00617981,0.366211,-0.122070,-0.122070
4508793958,0.00280762,0.00741577,-1.00617981,0.183105,-0.122070,-0.122070
4511344416,0.00241089,0.00773621,-1.00718689,0.183105,-0.122070,-0.122070
4518977291,0.00241089,0.00773621,-1.00718689,0.366211,0.000000,-0.122070
4521530916,0.00248718,0.00663757,-1.00535583,0.366211,0.000000,-0.122070
4529137500,0.00248718,0.00663757,-1.00535583,0.244141,0.061035,-0.061035
4531733416,0.00167847,0.00752258,-1.00672913,0.244141,0.061035,-0.061035
4539226791,0.00167847,0.00752258,-1.00672913,0.427246,0.000000,-0.061035
4541807875,0.00189209,0.00862122,-1.00527954,0.427246,0.000000,-0.061035
4549415166,0.00189209,0.00862122,-1.00527954,0.305176,0.000000,-0.061035
4551968291,0.00076294,0.00779724,-1.00688171,0.305176,0.000000,-0.061035
4559568958,0.00076294,0.00779724,-1.00688171,0.366211,0.061035,-0.122070
4562165666,0.00178528,0.00794983,-1.00526428,0.366211,0.061035,-0.122070
4570541125,0.00178528,0.00794983,-1.00526428,0.183105,0.000000,0.061035
4572965083,0.00157166,0.00848389,-1.00627136,0.183105,0.000000,0.061035
4578588666,0.00157166,0.00848389,-1.00627136,0.305176,0.061035,-0.061035
4581188791,0.00126648,0.00823975,-1.00587463,0.305176,0.061035,-0.061035
4588616541,0.00126648,0.00823975,-1.00587463,0.305176,0.061035,-0.122070
4591206625,0.00216675,0.00772095,-1.00633240,0.305176,0.061035,-0.122070
4598882791,0.00216675,0.00772095,-1.00633240,0.427246,0.000000,0.000000
4601460541,0.00109863,0.00782776,-1.00593567,0.427246,0.000000,0.000000
4608972583,0.00109863,0.00782776,-1.00593567,0.427246,0.061035,-0.122070
4611539041,0.00212097,0.00849915,-1.00634766,0.427246,0.061035,-0.122070
4619254875,0.00212097,0.00849915,-1.00634766,0.366211,0.061035,0.000000
4621826791,0.00227356,0.00845337,-1.00643921,0.366211,0.061035,0.000000
4629505000,0.00227356,0.00845337,-1.00643921,0.488281,0.061035,-0.122070
4632114375,0.00173950,0.00709534,-1.00675964,0.488281,0.061035,-0.122070
4639650041,0.00173950,0.00709534,-1.00675964,0.366211,0.000000,-0.122070
4642229333,0.00236511,0.00843811,-1.00642395,0.366211,0.000000,-0.122070
4650002833,0.00236511,0.00843811,-1.00642395,0.183105,0.000000,-0.061035
4652694375,0.00277710,0.00831604,-1.00683594,0.183105,0.000000,-0.061035
4657904125,0.00277710,0.00831604,-1.00683594,0.122070,0.061035,-0.061035
4663008958,0.00236511,0.00804138,-1.00570679,0.122070,0.061035,-0.061035
4668172833,0.00236511,0.00804138,-1.00570679,0.305176,-0.122070,-0.122070
4673062000,0.00120544,0.00723267,-1.00688171,0.305176,-0.122070,-0.122070
4678206708,0.00120544,0.00723267,-1.00688171,0.122070,0.000000,-0.183105
4683378125,0.00180054,0.00689697,-1.00596619,0.122070,0.000000,-0.183105
4688614750,0.00180054,0.00689697,-1.00596619,0.305176,0.000000,-0.183105
4691224916,0.00050354,0.00811768,-1.00691223,0.305176,0.000000,-0.183105
4698941500,0.00050354,0.00811768,-1.00691223,0.366211,0.061035,0.061035
4701644625,0.00180054,0.00781250,-1.00505066,0.366211,0.061035,0.061035
4709377791,0.00180054,0.00781250,-1.00505066,0.244141,0.061035,-0.183105
4711940333,0.00265503,0.00723267,-1.00625610,0.244141,0.061035,-0.183105
4719244750,0.00265503,0.00723267,-1.00625610,0.244141,0.000000,-0.122070
4721924583,0.00227356,0.00810242,-1.00630188,0.244141,0.000000,-0.122070
4729664375,0.00227356,0.00810242,-1.00630188,0.244141,0.000000,-0.061035
4732269791,0.00164795,0.00865173,-1.00634766,0.244141,0.000000,-0.061035
4739973083,0.00164795,0.00865173,-1.00634766,0.305176,0.000000,-0.122070
4742601416,0.00259399,0.00831604,-1.00601196,0.305176,0.000000,-0.122070
4750345541,0.00259399,0.00831604,-1.00601196,0.244141,-0.061035,-0.122070
4752938416,0.00250244,0.00851440,-1.00602722,0.244141,-0.061035,-0.122070
4758072125,0.00250244,0.00851440,-1.00602722,0.305176,0.000000,-0.183105
4763051666,0.00204468,0.00836182,-1.00679016,0.305176,0.000000,-0.183105
4768182416,0.00204468,0.00836182,-1.00679016,0.366211,0.000000,-0.183105
4773045666,0.00138855,0.00798035,-1.00622559,0.366211,0.000000,-0.183105
4778253166,0.00138855,0.00798035,-1.00622559,0.610352,0.000000,0.000000
4783478166,0.00198364,0.00831604,-1.00567627,0.610352,0.000000,0.000000
4788755458,0.00198364,0.00831604,-1.00567627,0.305176,0.000000,-0.061035
4791441625,0.00230408,0.00680542,-1.00564575,0.305176,0.000000,-0.061035
4799117208,0.00230408,0.00680542,-1.00564575,0.244141,0.000000,-0.061035
4801766250,0.00215149,0.00749207,-1.00697327,0.244141,0.000000,-0.061035
4809066041,0.00215149,0.00749207,-1.00697327,0.305176,0.061035,-0.061035
4811637666,0.00193787,0.00737000,-1.00683594,0.305176,0.061035,-0.061035
4819419458,0.00193787,0.00737000,-1.00683594,0.183105,0.061035,-0.122070
4822030541,0.00209045,0.00788879,-1.00549316,0.183105,0.061035,-0.122070
4829663875,0.00209045,0.00788879,-1.00549316,0.305176,0.122070,-0.122070
4832266375,0.00141907,0.00920105,-1.00645447,0.305176,0.122070,-0.122070
4839537708,0.00141907,0.00920105,-1.00645447,0.305176,0.061035,-0.061035
4842095375,0.00135803,0.00793457,-1.00595093,0.305176,0.061035,-0.061035
4849398125,0.00135803,0.00793457,-1.00595093,0.244141,0.183105,-0.061035
4851968625,0.00079346,0.00807190,-1.00576782,0.244141,0.183105,-0.061035
4859618416,0.00079346,0.00807190,-1.00576782,0.244141,0.000000,-0.061035
4867626333,0.00148010,0.00788879,-1.00593567,0.244141,0.000000,-0.061035
4870199208,0.00148010,0.00788879,-1.00593567,0.183105,0.000000,-0.061035
4872770208,0.00276184,0.00817871,-1.00624084,0.183105,0.000000,-0.061035
4880362666,0.00276184,0.00817871,-1.00624084,0.366211,0.000000,-0.122070
4882904958,0.00285339,0.00778198,-1.00564575,0.366211,0.000000,-0.122070
4887951583,0.00285339,0.00778198,-1.00564575,0.366211,0.061035,0.061035
4892979958,0.00231934,0.00776672,-1.00585938,0.366211,0.061035,0.061035
4898022625,0.00231934,0.00776672,-1.00585938,0.488281,0.061035,0.000000
4903054666,0.00109863,0.00720215,-1.00703430,0.488281,0.061035,0.000000
4910295375,0.00109863,0.00720215,-1.00703430,0.366211,0.061035,-0.122070
4912840916,0.00236511,0.00753784,-1.00622559,0.366211,0.061035,-0.122070
4918023333,0.00236511,0.00753784,-1.00622559,0.366211,0.000000,0.061035
4923184000,0.00222778,0.00688171,-1.00561523,0.366211,0.000000,0.061035
4928265791,0.00222778,0.00688171,-1.00561523,0.366211,0.000000,-0.122070
4930808041,0.00215149,0.00666809,-1.00570679,0.366211,0.000000,-0.122070
4938501500,0.00215149,0.00666809,-1.00570679,0.366211,0.122070,0.000000
4940948833,0.00198364,0.00778198,-1.00648499,0.366211,0.122070,0.000000
4948597208,0.00198364,0.00778198,-1.00648499,0.366211,-0.061035,-0.183105
4951178625,0.00172424,0.00781250,-1.00588989,0.366211,-0.061035,-0.183105
4958835375,0.00172424,0.00781250,-1.00588989,0.366211,0.061035,-0.061035
4961397500,0.00227356,0.00759888,-1.00546265,0.366211,0.061035,-0.061035
4969115083,0.00227356,0.00759888,-1.00546265,0.244141,0.000000,-0.061035
4971691750,0.00109863,0.00724792,-1.00576782,0.244141,0.000000,-0.061035
4979326416,0.00109863,0.00724792,-1.00576782,0.366211,-0.061035,-0.122070
4981913708,0.00161743,0.00753784,-1.00595093,0.366211,-0.061035,-0.122070
4989561291,0.00161743,0.00753784,-1.00595093,0.305176,0.122070,-0.061035
4992119375,0.00241089,0.00840759,-1.00613403,0.305176,0.122070,-0.061035
4999389166,0.00241089,0.00840759,-1.00613403,0.366211,0.061035,-0.122070
5002009125,0.00267029,0.00822449,-1.00613403,0.366211,0.061035,-0.122070
5009784875,0.00267029,0.00822449,-1.00613403,0.305176,-0.061035,0.000000
5012370250,0.00166321,0.00781250,-1.00588989,0.305176,-0.061035,0.000000
5019750458,0.00166321,0.00781250,-1.00588989,0.488281,0.000000,-0.061035
5021932666,0.00195312,0.00782776,-1.00596619,0.488281,0.000000,-0.061035
5029572125,0.00195312,0.00782776,-1.00596619,0.183105,0.122070,-0.122070
5032226416,0.00154114,0.00765991,-1.00640869,0.183105,0.122070,-0.122070
5039893708,0.00154114,0.00765991,-1.00640869,0.427246,0.122070,-0.122070
5042479750,0.00155640,0.00700378,-1.00592041,0.427246,0.122070,-0.122070
5050134541,0.00155640,0.00700378,-1.00592041,0.488281,0.061035,0.000000
5052711458,0.00146484,0.00772095,-1.00524902,0.488281,0.061035,0.000000
5060264208,0.00146484,0.00772095,-1.00524902,0.366211,0.000000,-0.183105
5062811250,0.00193787,0.00769043,-1.00709534,0.366211,0.000000,-0.183105
5070468041,0.00193787,0.00769043,-1.00709534,0.305176,0.000000,-0.122070
5073045041,0.00196838,0.00769043,-1.00529480,0.305176,0.000000,-0.122070
5078165833,0.00196838,0.00769043,-1.00529480,0.366211,0.061035,-0.061035
5083356000,0.00138855,0.00759888,-1.00624084,0.366211,0.061035,-0.061035
5088354291,0.00138855,0.00759888,-1.00624084,0.305176,0.061035,-0.061035
5090917375,0.00172424,0.00762939,-1.00611877,0.305176,0.061035,-0.061035
5098540458,0.00172424,0.00762939,-1.00611877,0.366211,0.183105,0.000000
5101102375,0.00207520,0.00857544,-1.00630188,0.366211,0.183105,0.000000
5108570833,0.00207520,0.00857544,-1.00630188,0.183105,0.122070,-0.122070
5111111916,0.00193787,0.00848389,-1.00576782,0.183105,0.122070,-0.122070
5118324708,0.00193787,0.00848389,-1.00576782,0.366211,0.183105,-0.061035
5120879708,0.00128174,0.00691223,-1.00581360,0.366211,0.183105,-0.061035
5128474666,0.00128174,0.00691223,-1.00581360,0.427246,0.122070,0.061035
5131034375,0.00186157,0.00712585,-1.00488281,0.427246,0.122070,0.061035
5138553666,0.00186157,0.00712585,-1.00488281,0.427246,-0.061035,-0.061035
5141112333,0.00183105,0.00775146,-1.00640869,0.427246,-0.061035,-0.061035
5148735875,0.00183105,0.00775146,-1.00640869,0.427246,0.000000,-0.061035
5151304500,0.00114441,0.00790405,-1.00672913,0.427246,0.000000,-0.061035
5158934333,0.00114441,0.00790405,-1.00672913,0.366211,0.061035,-0.061035
5161483500,0.00163269,0.00767517,-1.00680542,0.366211,0.061035,-0.061035
5169142875,0.00163269,0.00767517,-1.00680542,0.305176,0.061035,-0.122070
5171740166,0.00198364,0.00767517,-1.00575256,0.305176,0.061035,-0.122070
5179389833,0.00198364,0.00767517,-1.00575256,0.427246,0.000000,-0.061035
5181963125,0.00193787,0.00747681,-1.00628662,0.427246,0.000000,-0.061035
5189385458,0.00193787,0.00747681,-1.00628662,0.366211,0.061035,-0.183105
5191934041,0.00189209,0.00794983,-1.00550842,0.366211,0.061035,-0.183105
5199552583,0.00189209,0.00794983,-1.00550842,0.366211,0.000000,-0.122070
5201813250,0.00146484,0.00727844,-1.00712585,0.366211,0.000000,-0.122070
5209172708,0.00146484,0.00727844,-1.00712585,0.244141,0.122070,-0.061035
5211721291,0.00244141,0.00784302,-1.00553894,0.244141,0.122070,-0.061035
5219387250,0.00244141,0.00784302,-1.00553894,0.244141,0.000000,-0.122070
5221928208,0.00183105,0.00723267,-1.00704956,0.244141,0.000000,-0.122070
5229551583,0.00183105,0.00723267,-1.00704956,0.305176,0.061035,0.000000
5232117666,0.00207520,0.00724792,-1.00552368,0.305176,0.061035,0.000000
5239742458,0.00207520,0.00724792,-1.00552368,0.366211,0.061035,-0.061035
5242311208,0.00199890,0.00784302,-1.00659180,0.366211,0.061035,-0.061035
5249956875,0.00199890,0.00784302,-1.00659180,0.366211,0.000000,-0.122070
5252528958,0.00265503,0.00796509,-1.00543213,0.366211,0.000000,-0.122070
5260171166,0.00265503,0.00796509,-1.00543213,0.427246,0.061035,-0.183105
5262748291,0.00247192,0.00854492,-1.00502014,0.427246,0.061035,-0.183105
5270400333,0.00247192,0.00854492,-1.00502014,0.183105,0.000000,0.000000
5272986458,0.00196838,0.00767517,-1.00605774,0.183105,0.000000,0.000000
5280607166,0.00196838,0.00767517,-1.00605774,0.366211,-0.061035,0.000000
5282745458,0.00291443,0.00746155,-1.00642395,0.366211,-0.061035,0.000000
5290404458,0.00291443,0.00746155,-1.00642395,0.305176,0.061035,-0.061035
5292940375,0.00207520,0.00793457,-1.00537109,0.305176,0.061035,-0.061035
5298120458,0.00207520,0.00793457,-1.00537109,0.305176,0.061035,-0.122070
5303217000,0.00172424,0.00724792,-1.00534058,0.305176,0.061035,-0.122070
5308298208,0.00172424,0.00724792,-1.00534058,0.183105,-0.061035,-0.122070
5313388166,0.00152588,0.00740051,-1.00654602,0.183105,-0.061035,-0.122070
5318505708,0.00152588,0.00740051,-1.00654602,0.183105,0.000000,-0.061035
5321073125,0.00114441,0.00796509,-1.00619507,0.183105,0.000000,-0.061035
5328687125,0.00114441,0.00796509,-1.00619507,0.366211,0.000000,-0.061035
5331241500,0.00238037,0.00852966,-1.00556946,0.366211,0.000000,-0.061035
5338555083,0.00238037,0.00852966,-1.00556946,0.305176,0.000000,-0.061035
5341130625,0.00186157,0.00776672,-1.00570679,0.305176,0.000000,-0.061035
5348681208,0.00186157,0.00776672,-1.00570679,0.244141,-0.061035,-0.122070
5351250750,0.00091553,0.00758362,-1.00633240,0.244141,-0.061035,-0.122070
5358720541,0.00091553,0.00758362,-1.00633240,0.427246,0.061035,-0.061035
5361267541,0.00140381,0.00730896,-1.00692749,0.427246,0.061035,-0.061035
5368929625,0.00140381,0.00730896,-1.00692749,0.366211,0.122070,0.000000
5371518250,0.00149536,0.00787354,-1.00582886,0.366211,0.122070,0.000000
5379155208,0.00149536,0.00787354,-1.00582886,0.183105,0.000000,-0.122070
5381816041,0.00164795,0.00772095,-1.00617981,0.183105,0.000000,-0.122070
5389548666,0.00164795,0.00772095,-1.00617981,0.427246,-0.061035,-0.061035
5391685416,0.00161743,0.00747681,-1.00599670,0.427246,-0.061035,-0.061035
5399507375,0.00161743,0.00747681,-1.00599670,0.305176,-0.061035,-0.183105
5401740500,0.00186157,0.00753784,-1.00654602,0.305176,-0.061035,-0.183105
5409492333,0.00186157,0.00753784,-1.00654602,0.366211,-0.061035,-0.122070
5412074541,0.00253296,0.00764465,-1.00630188,0.366211,-0.061035,-0.122070
5419768000,0.00253296,0.00764465,-1.00630188,0.305176,0.122070,-0.122070
5421884958,0.00227356,0.00727844,-1.00656128,0.305176,0.122070,-0.122070
5429567666,0.00227356,0.00727844,-1.00656128,0.366211,0.122070,-0.122070
5432148083,0.00178528,0.00788879,-1.00677490,0.366211,0.122070,-0.122070
5439822875,0.00178528,0.00788879,-1.00677490,0.183105,0.061035,-0.305176
5442380916,0.00102234,0.00772095,-1.00619507,0.183105,0.061035,-0.305176
5450060541,0.00102234,0.00772095,-1.00619507,0.244141,0.000000,-0.122070
5452640625,0.00132751,0.00746155,-1.00653076,0.244141,0.000000,-0.122070
5460294916,0.00132751,0.00746155,-1.00653076,0.244141,0.061035,0.000000
5462848166,0.00178528,0.00764465,-1.00608826,0.244141,0.061035,0.000000
5470468708,0.00178528,0.00764465,-1.00608826,0.305176,0.122070,-0.061035
5473062208,0.00227356,0.00885010,-1.00628662,0.305176,0.122070,-0.061035
5480691708,0.00227356,0.00885010,-1.00628662,0.183105,0.061035,-0.061035
5483238500,0.00082397,0.00834656,-1.00595093,0.183105,0.061035,-0.061035
5490629958,0.00082397,0.00834656,-1.00595093,0.305176,-0.122070,-0.061035
5493304208,0.00064087,0.00808716,-1.00714111,0.305176,-0.122070,-0.061035
5498450166,0.00064087,0.00808716,-1.00714111,0.305176,0.122070,0.000000
5501013958,0.00111389,0.00894165,-1.00648499,0.305176,0.122070,0.000000
5508670916,0.00111389,0.00894165,-1.00648499,0.366211,0.000000,0.000000
5511263250,0.00151062,0.00865173,-1.00576782,0.366211,0.000000,0.000000
5518882000,0.00151062,0.00865173,-1.00576782,0.427246,0.122070,-0.061035
5521449708,0.00106812,0.00852966,-1.00601196,0.427246,0.122070,-0.061035
5529120541,0.00106812,0.00852966,-1.00601196,0.305176,0.061035,-0.122070
5531727583,0.00077820,0.00798035,-1.00614929,0.305176,0.061035,-0.122070
5539411541,0.00077820,0.00798035,-1.00614929,0.366211,-0.061035,-0.122070
5541952375,0.00221252,0.00697327,-1.00617981,0.366211,-0.061035,-0.122070
5549572000,0.00221252,0.00697327,-1.00617981,0.427246,0.061035,-0.122070
5552124041,0.00285339,0.00794983,-1.00625610,0.427246,0.061035,-0.122070
5559518250,0.00285339,0.00794983,-1.00625610,0.305176,-0.061035,-0.122070
5562067000,0.00241089,0.00695801,-1.00555420,0.305176,-0.061035,-0.122070
5569667291,0.00241089,0.00695801,-1.00555420,0.122070,-0.061035,-0.244141
5572217666,0.00274658,0.00715637,-1.00639343,0.122070,-0.061035,-0.244141
5579693041,0.00274658,0.00715637,-1.00639343,0.488281,0.122070,0.000000
5582283958,0.00282288,0.00677490,-1.00509644,0.488281,0.122070,0.000000
5589974583,0.00282288,0.00677490,-1.00509644,0.366211,0.061035,0.061035
5592541000,0.00189209,0.00813293,-1.00711060,0.366211,0.061035,0.061035
5600157000,0.00189209,0.00813293,-1.00711060,0.305176,0.061035,-0.122070
5602720958,0.00158691,0.00765991,-1.00474548,0.305176,0.061035,-0.122070
5610436125,0.00158691,0.00765991,-1.00474548,0.366211,0.000000,0.000000
5613035750,0.00143433,0.00808716,-1.00640869,0.366211,0.000000,0.000000
5620543916,0.00143433,0.00808716,-1.00640869,0.427246,0.122070,0.000000
5623160416,0.00228882,0.00856018,-1.00459290,0.427246,0.122070,0.000000
5628283708,0.00228882,0.00856018,-1.00459290,0.366211,0.061035,0.000000
5633364791,0.00146484,0.00839233,-1.00646973,0.366211,0.061035,0.000000
5638492458,0.00146484,0.00839233,-1.00646973,0.366211,0.000000,0.000000
5641122958,0.00178528,0.00852966,-1.00587463,0.366211,0.000000,0.000000
5648746083,0.00178528,0.00852966,-1.00587463,0.244141,0.122070,-0.122070
5651301416,0.00180054,0.00799561,-1.00721741,0.244141,0.122070,-0.122070
5658905875,0.00180054,0.00799561,-1.00721741,0.244141,0.061035,0.061035
5661448000,0.00207520,0.00775146,-1.00631714,0.244141,0.061035,0.061035
5668550000,0.00207520,0.00775146,-1.00631714,0.305176,0.122070,-0.061035
5671125000,0.00270081,0.00831604,-1.00639343,0.305176,0.122070,-0.061035
5678744958,0.00270081,0.00831604,-1.00639343,0.305176,0.061035,-0.122070
5681292083,0.00325012,0.00759888,-1.00639343,0.305176,0.061035,-0.122070
5688798750,0.00325012,0.00759888,-1.00639343,0.305176,0.000000,-0.122070
5691364958,0.00253296,0.00729370,-1.00624084,0.305176,0.000000,-0.122070
5698936958,0.00253296,0.00729370,-1.00624084,0.305176,-0.061035,-0.183105
5701513958,0.00222778,0.00741577,-1.00599670,0.305176,-0.061035,-0.183105
5709173666,0.00222778,0.00741577,-1.00599670,0.244141,0.000000,-0.183105
5711742125,0.00144958,0.00790405,-1.00607300,0.244141,0.000000,-0.183105
5719392500,0.00144958,0.00790405,-1.00607300,0.183105,0.000000,-0.061035
5721882625,0.00263977,0.00845337,-1.00610352,0.183105,0.000000,-0.061035
5729501250,0.00263977,0.00845337,-1.00610352,0.366211,0.000000,-0.122070
5732052791,0.00181580,0.00741577,-1.00627136,0.366211,0.000000,-0.122070
5739824625,0.00181580,0.00741577,-1.00627136,0.244141,0.061035,-0.061035
5742440875,0.00245667,0.00749207,-1.00520325,0.244141,0.061035,-0.061035
5750073708,0.00245667,0.00749207,-1.00520325,0.244141,0.061035,-0.061035
5752654125,0.00149536,0.00862122,-1.00700378,0.244141,0.061035,-0.061035
5759510500,0.00149536,0.00862122,-1.00700378,0.305176,0.000000,-0.122070
5762063208,0.00138855,0.00917053,-1.00556946,0.305176,0.000000,-0.122070
5769686583,0.00138855,0.00917053,-1.00556946,0.305176,0.000000,-0.122070
5772266916,0.00238037,0.00854492,-1.00587463,0.305176,0.000000,-0.122070
5779880000,0.00238037,0.00854492,-1.00587463,0.488281,0.000000,-0.122070
5782459500,0.00212097,0.00794983,-1.00567627,0.488281,0.000000,-0.122070
5790130000,0.00212097,0.00794983,-1.00567627,0.244141,0.000000,-0.061035
5792693416,0.00167847,0.00727844,-1.00756836,0.244141,0.000000,-0.061035
5800289416,0.00167847,0.00727844,-1.00756836,0.366211,0.061035,0.000000
5802858875,0.00140381,0.00791931,-1.00683594,0.366211,0.061035,0.000000
5810475916,0.00140381,0.00791931,-1.00683594,0.305176,0.061035,-0.122070
5813056291,0.00152588,0.00727844,-1.00578308,0.305176,0.061035,-0.122070
5820597250,0.00152588,0.00727844,-1.00578308,0.305176,0.000000,-0.183105
5823202666,0.00233459,0.00717163,-1.00648499,0.305176,0.000000,-0.183105
5830425666,0.00233459,0.00717163,-1.00648499,0.122070,0.000000,-0.244141
5833010583,0.00228882,0.00773621,-1.00680542,0.122070,0.000000,-0.244141
5840648708,0.00228882,0.00773621,-1.00680542,0.244141,0.000000,-0.122070
5843231125,0.00157166,0.00743103,-1.00527954,0.244141,0.000000,-0.122070
5848334708,0.00157166,0.00743103,-1.00527954,0.427246,-0.061035,-0.183105
5850889333,0.00091553,0.00764465,-1.00537109,0.427246,-0.061035,-0.183105
5858503041,0.00091553,0.00764465,-1.00537109,0.183105,0.122070,0.000000
5861043916,0.00180054,0.00694275,-1.00595093,0.183105,0.122070,0.000000
5868464333,0.00180054,0.00694275,-1.00595093,0.427246,0.061035,-0.122070
5871027708,0.00233459,0.00717163,-1.00653076,0.427246,0.061035,-0.122070
5878658666,0.00233459,0.00717163,-1.00653076,0.244141,0.000000,0.000000
5881226541,0.00204468,0.00756836,-1.00607300,0.244141,0.000000,0.000000
5888831708,0.00204468,0.00756836,-1.00607300,0.427246,0.122070,-0.061035
5891388500,0.00245667,0.00704956,-1.00636292,0.427246,0.122070,-0.061035
5898996666,0.00245667,0.00704956,-1.00636292,0.244141,0.061035,-0.122070
5901557000,0.00148010,0.00755310,-1.00651550,0.244141,0.061035,-0.122070
5909189291,0.00148010,0.00755310,-1.00651550,0.427246,0.061035,-0.061035
5911366500,0.00152588,0.00798035,-1.00679016,0.427246,0.061035,-0.061035
5918984000,0.00152588,0.00798035,-1.00679016,0.366211,0.061035,-0.061035
5921258500,0.00294495,0.00785828,-1.00694275,0.366211,0.061035,-0.061035
5928907916,0.00294495,0.00785828,-1.00694275,0.244141,0.061035,-0.183105
5931471625,0.00289917,0.00794983,-1.00622559,0.244141,0.061035,-0.183105
5939088333,0.00289917,0.00794983,-1.00622559,0.244141,0.000000,-0.122070
5941627750,0.00090027,0.00823975,-1.00646973,0.244141,0.000000,-0.122070
5949264000,0.00090027,0.00823975,-1.00646973,0.427246,0.122070,-0.061035
5951854041,0.00076294,0.00752258,-1.00614929,0.427246,0.122070,-0.061035
5959470208,0.00076294,0.00752258,-1.00614929,0.366211,0.000000,0.000000
5962017875,0.00134277,0.00741577,-1.00559998,0.366211,0.000000,0.000000
5969423625,0.00134277,0.00741577,-1.00559998,0.305176,0.061035,0.000000
5971993583,0.00236511,0.00712585,-1.00552368,0.305176,0.061035,0.000000
5979583125,0.00236511,0.00712585,-1.00552368,0.305176,0.061035,-0.183105
5982133708,0.00149536,0.00851440,-1.00715637,0.305176,0.061035,-0.183105
5989797166,0.00149536,0.00851440,-1.00715637,0.488281,0.000000,-0.061035
5992359500,0.00189209,0.00796509,-1.00457764,0.488281,0.000000,-0.061035
5999956291,0.00189209,0.00796509,-1.00457764,0.244141,0.061035,0.000000
6002520833,0.00263977,0.00776672,-1.00343323,0.244141,0.061035,0.000000
6010152333,0.00263977,0.00776672,-1.00343323,0.244141,0.000000,0.000000
6012703166,0.00286865,0.00804138,-1.01046753,0.244141,0.000000,0.000000
6020311250,0.00286865,0.00804138,-1.01046753,0.366211,0.061035,-0.061035
6022862416,0.00178528,0.00718689,-1.00392151,0.366211,0.061035,-0.061035
6030451708,0.00178528,0.00718689,-1.00392151,0.366211,0.000000,-0.122070
6033020958,0.00253296,0.00762939,-1.00556946,0.366211,0.000000,-0.122070
6040662916,0.00253296,0.00762939,-1.00556946,0.427246,0.000000,-0.183105
6042861791,0.00170898,0.00813293,-1.00758362,0.427246,0.000000,-0.183105
6050700333,0.00170898,0.00813293,-1.00758362,0.244141,0.061035,-0.061035
6053259833,0.00030518,0.00781250,-1.00559998,0.244141,0.061035,-0.061035
6058347916,0.00030518,0.00781250,-1.00559998,0.305176,0.061035,-0.122070
6060945083,0.00045776,0.00784302,-1.00595093,0.305176,0.061035,-0.122070
6068530916,0.00045776,0.00784302,-1.00595093,0.244141,0.000000,0.000000
6071072125,0.00044250,0.00840759,-1.00611877,0.244141,0.000000,0.000000
6078674666,0.00044250,0.00840759,-1.00611877,0.427246,0.000000,0.000000
6081227625,0.00074768,0.00822449,-1.00593567,0.427246,0.000000,0.000000
6088852708,0.00074768,0.00822449,-1.00593567,0.244141,0.122070,-0.183105
6091392166,0.00167847,0.00810242,-1.00514221,0.244141,0.122070,-0.183105
6098966250,0.00167847,0.00810242,-1.00514221,0.305176,0.061035,0.000000
6101504541,0.00248718,0.00880432,-1.00610352,0.305176,0.061035,0.000000
6109100000,0.00248718,0.00880432,-1.00610352,0.366211,-0.061035,0.061035
6111635583,0.00170898,0.00808716,-1.00558472,0.366211,-0.061035,0.061035
6119243333,0.00170898,0.00808716,-1.00558472,0.366211,0.183105,0.000000
6121811541,0.00265503,0.00796509,-1.00553894,0.366211,0.183105,0.000000
6129441666,0.00265503,0.00796509,-1.00553894,0.366211,0.122070,-0.122070
6132006875,0.00286865,0.00765991,-1.00511169,0.366211,0.122070,-0.122070
6139584583,0.00286865,0.00765991,-1.00511169,0.366211,0.000000,-0.183105
6142129958,0.00311279,0.00717163,-1.00650024,0.366211,0.000000,-0.183105
6149719375,0.00311279,0.00717163,-1.00650024,0.305176,0.000000,-0.061035
6152261833,0.00225830,0.00808716,-1.00575256,0.305176,0.000000,-0.061035
6159852208,0.00225830,0.00808716,-1.00575256,0.244141,0.122070,-0.183105
6162388583,0.00108337,0.00799561,-1.00637817,0.244141,0.122070,-0.183105
6169975875,0.00108337,0.00799561,-1.00637817,0.244141,0.000000,-0.122070
6172547291,0.00010681,0.00801086,-1.00457764,0.244141,0.000000,-0.122070
6180149375,0.00010681,0.00801086,-1.00457764,0.183105,0.061035,-0.061035
6182694500,-0.00074768,0.00857544,-1.00708008,0.183105,0.061035,-0.061035
6190316791,-0.00074768,0.00857544,-1.00708008,0.305176,-0.122070,-0.061035
6192863541,0.00010681,0.00878906,-1.00598145,0.305176,-0.122070,-0.061035
6200037458,0.00010681,0.00878906,-1.00598145,0.427246,0.061035,-0.183105
6202609916,-0.00027466,0.00788879,-1.00686646,0.427246,0.061035,-0.183105
6210210125,-0.00027466,0.00788879,-1.00686646,0.427246,0.122070,-0.122070
6212461250,0.00077820,0.00801086,-1.00558472,0.427246,0.122070,-0.122070
6219620208,0.00077820,0.00801086,-1.00558472,0.366211,-0.061035,-0.061035
6222180166,0.00286865,0.00781250,-1.00582886,0.366211,-0.061035,-0.061035
6229806666,0.00286865,0.00781250,-1.00582886,0.366211,0.061035,-0.122070
6232355000,0.00410461,0.00738525,-1.00567627,0.366211,0.061035,-0.122070
6239940958,0.00410461,0.00738525,-1.00567627,0.244141,0.061035,-0.122070
6242483458,0.00381470,0.00859070,-1.00509644,0.244141,0.061035,-0.122070
6250083458,0.00381470,0.00859070,-1.00509644,0.366211,0.061035,-0.061035
6252641791,0.00257874,0.00758362,-1.00622559,0.366211,0.061035,-0.061035
6260259125,0.00257874,0.00758362,-1.00622559,0.305176,0.000000,-0.122070
6262813750,0.00115967,0.00666809,-1.00704956,0.305176,0.000000,-0.122070
6270331750,0.00115967,0.00666809,-1.00704956,0.122070,0.061035,-0.061035
6272888875,0.00097656,0.00747681,-1.00605774,0.122070,0.061035,-0.061035
6280476708,0.00097656,0.00747681,-1.00605774,0.183105,-0.061035,-0.061035
6282865541,0.00122070,0.00720215,-1.00621033,0.183105,-0.061035,-0.061035
6290499375,0.00122070,0.00720215,-1.00621033,0.366211,0.061035,-0.061035
6293077208,0.00115967,0.00756836,-1.00544739,0.366211,0.061035,-0.061035
6300671750,0.00115967,0.00756836,-1.00544739,0.305176,0.000000,-0.061035
6303212458,0.00170898,0.00718689,-1.00643921,0.305176,0.000000,-0.061035
6308354000,0.00170898,0.00718689,-1.00643921,0.305176,0.183105,0.000000
6310917791,0.00115967,0.00782776,-1.00564575,0.305176,0.183105,0.000000
6318511958,0.00115967,0.00782776,-1.00564575,0.366211,0.000000,-0.061035
6321077625,0.00177002,0.00840759,-1.00749207,0.366211,0.000000,-0.061035
6328745500,0.00177002,0.00840759,-1.00749207,0.366211,0.000000,-0.122070
6331319541,0.00131226,0.00889587,-1.00634766,0.366211,0.000000,-0.122070
6338738708,0.00131226,0.00889587,-1.00634766,0.366211,0.000000,-0.183105
6341083916,0.00154114,0.00869751,-1.00633240,0.366211,0.000000,-0.183105
6348636250,0.00154114,0.00869751,-1.00633240,0.427246,-0.061035,-0.122070
6351175666,0.00131226,0.00796509,-1.00607300,0.427246,-0.061035,-0.122070
6358848416,0.00131226,0.00796509,-1.00607300,0.366211,0.061035,0.061035
6361117541,0.00213623,0.00794983,-1.00668335,0.366211,0.061035,0.061035
6370697333,0.00213623,0.00794983,-1.00668335,0.366211,0.122070,0.000000
6373300041,0.00311279,0.00851440,-1.00650024,0.366211,0.122070,0.000000
6378396833,0.00311279,0.00851440,-1.00650024,0.305176,0.000000,0.000000
6383470041,0.00294495,0.00733948,-1.00523376,0.305176,0.000000,0.000000
6388546958,0.00294495,0.00733948,-1.00523376,0.244141,0.061035,0.000000
6391093041,0.00146484,0.00794983,-1.00605774,0.244141,0.061035,0.000000
6398306958,0.00146484,0.00794983,-1.00605774,0.244141,0.000000,-0.061035
6403397041,0.00109863,0.00692749,-1.00527954,0.244141,0.000000,-0.061035
6408480958,0.00109863,0.00692749,-1.00527954,0.427246,0.000000,0.061035
6411018458,0.00166321,0.00692749,-1.00692749,0.427246,0.000000,0.061035
6418599916,0.00166321,0.00692749,-1.00692749,0.305176,0.183105,-0.244141
6421157708,0.00209045,0.00714111,-1.00630188,0.305176,0.183105,-0.244141
6428757375,0.00209045,0.00714111,-1.00630188,0.488281,0.122070,-0.061035
6431299291,0.00222778,0.00813293,-1.00721741,0.488281,0.122070,-0.061035
6438538500,0.00222778,0.00813293,-1.00721741,0.305176,0.061035,-0.183105
6441086250,0.00221252,0.00816345,-1.00613403,0.305176,0.061035,-0.183105
6448300291,0.00221252,0.00816345,-1.00613403,0.305176,0.000000,-0.183105
6450894166,0.00187683,0.00804138,-1.00524902,0.305176,0.000000,-0.183105
6458511791,0.00187683,0.00804138,-1.00524902,0.305176,0.000000,-0.061035
6461056208,0.00083923,0.00843811,-1.00645447,0.305176,0.000000,-0.061035
6468684083,0.00083923,0.00843811,-1.00645447,0.427246,-0.061035,0.122070
6471231916,0.00096130,0.00842285,-1.00587463,0.427246,-0.061035,0.122070
6478825500,0.00096130,0.00842285,-1.00587463,0.305176,0.000000,0.000000
6483907958,0.00202942,0.00761414,-1.00627136,0.305176,0.000000,0.000000
6488981666,0.00202942,0.00761414,-1.00627136,0.244141,-0.122070,-0.122070
6491535083,0.00213623,0.00762939,-1.00518799,0.244141,-0.122070,-0.122070
6498777125,0.00213623,0.00762939,-1.00518799,0.244141,0.000000,-0.122070
6501320833,0.00189209,0.00750732,-1.00572205,0.244141,0.000000,-0.122070
6508737833,0.00189209,0.00750732,-1.00572205,0.427246,0.000000,-0.122070
6511282666,0.00172424,0.00910950,-1.00663757,0.427246,0.000000,-0.122070
6518552000,0.00172424,0.00910950,-1.00663757,0.427246,0.122070,0.061035
6523351375,0.00186157,0.00886536,-1.00633240,0.427246,0.122070,0.061035
6528342041,0.00186157,0.00886536,-1.00633240,0.305176,0.000000,-0.122070
6530896875,0.00199890,0.00801086,-1.00686646,0.305176,0.000000,-0.122070
6538598083,0.00199890,0.00801086,-1.00686646,0.427246,0.122070,-0.183105
6541148166,0.00273132,0.00677490,-1.00520325,0.427246,0.122070,-0.183105
6548674375,0.00273132,0.00677490,-1.00520325,0.366211,0.122070,0.000000
6551221500,0.00177002,0.00656128,-1.00592041,0.366211,0.122070,0.000000
6558816625,0.00177002,0.00656128,-1.00592041,0.366211,0.061035,-0.183105
6561355875,0.00256348,0.00698853,-1.00509644,0.366211,0.061035,-0.183105
6568942250,0.00256348,0.00698853,-1.00509644,0.366211,-0.122070,-0.122070
6571502708,0.00241089,0.00680542,-1.00711060,0.366211,-0.122070,-0.122070
6579119083,0.00241089,0.00680542,-1.00711060,0.244141,0.000000,0.000000
6581668791,0.00122070,0.00619507,-1.00526428,0.244141,0.000000,0.000000
6589273125,0.00122070,0.00619507,-1.00526428,0.305176,0.061035,-0.122070
6591817875,0.00140381,0.00790405,-1.00639343,0.305176,0.061035,-0.122070
6599404000,0.00140381,0.00790405,-1.00639343,0.183105,0.000000,-0.183105
6601941791,0.00119019,0.00836182,-1.00640869,0.183105,0.000000,-0.183105
6609545250,0.00119019,0.00836182,-1.00640869,0.183105,-0.061035,-0.122070
6612097833,0.00028992,0.00827026,-1.00627136,0.183105,-0.061035,-0.122070
6619696625,0.00028992,0.00827026,-1.00627136,0.305176,0.061035,-0.122070
6622265166,0.00102234,0.00865173,-1.00605774,0.305176,0.061035,-0.122070
6629921000,0.00102234,0.00865173,-1.00605774,0.305176,0.122070,-0.122070
6632473958,0.00097656,0.00894165,-1.00523376,0.305176,0.122070,-0.122070
6639940125,0.00097656,0.00894165,-1.00523376,0.488281,0.183105,0.000000
6642499708,0.00096130,0.00869751,-1.00555420,0.488281,0.183105,0.000000
6649360500,0.00096130,0.00869751,-1.00555420,0.183105,0.000000,-0.244141
6651906333,0.00100708,0.00770569,-1.00685120,0.183105,0.000000,-0.244141
6659516708,0.00100708,0.00770569,-1.00685120,0.244141,0.122070,-0.183105
6662086833,0.00166321,0.00799561,-1.00564575,0.244141,0.122070,-0.183105
6669885208,0.00166321,0.00799561,-1.00564575,0.488281,0.000000,-0.061035
6672449875,0.00260925,0.00819397,-1.00639343,0.488281,0.000000,-0.061035
6680042958,0.00260925,0.00819397,-1.00639343,0.244141,0.000000,-0.122070
6682585708,0.00253296,0.00653076,-1.00523376,0.244141,0.000000,-0.122070
6689984333,0.00253296,0.00653076,-1.00523376,0.305176,0.061035,-0.061035
6692411666,0.00233459,0.00671387,-1.00720215,0.305176,0.061035,-0.061035
6700019791,0.00233459,0.00671387,-1.00720215,0.244141,0.122070,-0.122070
6702577916,0.00202942,0.00790405,-1.00517273,0.244141,0.122070,-0.122070
6710195291,0.00202942,0.00790405,-1.00517273,0.183105,0.122070,0.000000
6712752250,0.00129700,0.00761414,-1.00631714,0.183105,0.122070,0.000000
6720358000,0.00129700,0.00761414,-1.00631714,0.122070,-0.061035,-0.061035
6722907458,0.00228882,0.00758362,-1.00617981,0.122070,-0.061035,-0.061035
6730509458,0.00228882,0.00758362,-1.00617981,0.366211,0.061035,-0.061035
6732686791,0.00057983,0.00694275,-1.00590515,0.366211,0.061035,-0.061035
6739551250,0.00057983,0.00694275,-1.00590515,0.244141,0.000000,-0.122070
6742095375,0.00102234,0.00726318,-1.00573730,0.244141,0.000000,-0.122070
6749398583,0.00102234,0.00726318,-1.00573730,0.305176,0.000000,-0.061035
6751991166,0.00167847,0.00769043,-1.00585938,0.305176,0.000000,-0.061035
6759634583,0.00167847,0.00769043,-1.00585938,0.305176,0.000000,-0.061035
6762186708,0.00173950,0.00827026,-1.00706482,0.305176,0.000000,-0.061035
6769802583,0.00173950,0.00827026,-1.00706482,0.305176,0.061035,-0.122070
6772350375,0.00186157,0.00755310,-1.00590515,0.305176,0.061035,-0.122070
6779501625,0.00186157,0.00755310,-1.00590515,0.305176,-0.061035,-0.122070
6782105791,0.00250244,0.00802612,-1.00433350,0.305176,-0.061035,-0.122070
6789732333,0.00250244,0.00802612,-1.00433350,0.244141,0.122070,-0.061035
6792297791,0.00195312,0.00801086,-1.00729370,0.244141,0.122070,-0.061035
6799910333,0.00195312,0.00801086,-1.00729370,0.244141,0.000000,-0.183105
6802468208,0.00216675,0.00756836,-1.00515747,0.244141,0.000000,-0.183105
6810073583,0.00216675,0.00756836,-1.00515747,0.366211,0.122070,-0.061035
6812430291,0.00166321,0.00794983,-1.00561523,0.366211,0.122070,-0.061035
6820020125,0.00166321,0.00794983,-1.00561523,0.488281,0.061035,0.000000
6822423458,0.00228882,0.00790405,-1.00585938,0.488281,0.061035,0.000000
6830021041,0.00228882,0.00790405,-1.00585938,0.427246,0.061035,-0.122070
6832594500,0.00141907,0.00708008,-1.00555420,0.427246,0.061035,-0.122070
6839985958,0.00141907,0.00708008,-1.00555420,0.366211,0.061035,-0.061035
6842544125,0.00102234,0.00808716,-1.00534058,0.366211,0.061035,-0.061035
6850156083,0.00102234,0.00808716,-1.00534058,0.488281,0.061035,-0.122070
6852711708,0.00180054,0.00816345,-1.00633240,0.488281,0.061035,-0.122070
6860354541,0.00180054,0.00816345,-1.00633240,0.244141,0.061035,-0.061035
6862922250,0.00152588,0.00711060,-1.00515747,0.244141,0.061035,-0.061035
6870490708,0.00152588,0.00711060,-1.00515747,0.305176,0.122070,-0.061035
6873048041,0.00221252,0.00643921,-1.00604248,0.305176,0.122070,-0.061035
6880173416,0.00221252,0.00643921,-1.00604248,0.488281,0.061035,0.000000
6882725416,0.00180054,0.00733948,-1.00616455,0.488281,0.061035,0.000000
6890323250,0.00180054,0.00733948,-1.00616455,0.305176,0.122070,-0.366211
6892865666,0.00123596,0.00807190,-1.00550842,0.305176,0.122070,-0.366211
6900466916,0.00123596,0.00807190,-1.00550842,0.305176,0.122070,-0.061035
6903004166,0.00111389,0.00863647,-1.00636292,0.305176,0.122070,-0.061035
6910243833,0.00111389,0.00863647,-1.00636292,0.427246,-0.061035,0.000000
6912790250,0.00231934,0.00851440,-1.00634766,0.427246,-0.061035,0.000000
6920385791,0.00231934,0.00851440,-1.00634766,0.305176,0.000000,-0.061035
6922962666,0.00219727,0.00930786,-1.00704956,0.305176,0.000000,-0.061035
6930551208,0.00219727,0.00930786,-1.00704956,0.427246,0.061035,-0.122070
6933105416,0.00192261,0.00860596,-1.00477600,0.427246,0.061035,-0.122070
6940620166,0.00192261,0.00860596,-1.00477600,0.183105,-0.061035,-0.122070
6943161916,0.00167847,0.00849915,-1.00761414,0.183105,-0.061035,-0.122070
6950810375,0.00167847,0.00849915,-1.00761414,0.427246,0.122070,-0.061035
6953342125,0.00209045,0.00741577,-1.00575256,0.427246,0.122070,-0.061035
6960982375,0.00074768,0.00746155,-1.00495911,0.305176,0.000000,-0.061035
6971088375,0.00128174,0.00665283,-1.00567627,0.244141,0.000000,-0.183105
6981002291,0.00198364,0.00724792,-1.00512695,0.305176,0.000000,-0.061035
6991161458,0.00273132,0.00785828,-1.00457764,0.427246,0.122070,-0.061035
7001062333,0.00260925,0.00822449,-1.01022339,0.122070,0.061035,-0.061035
7011238458,0.00209045,0.00799561,-1.00527954,0.488281,0.061035,-0.122070
7020762250,0.00209045,0.00799561,-1.00527954,0.244141,0.000000,-0.061035
7023311791,0.00079346,0.00799561,-1.00328064,0.244141,0.000000,-0.061035
7030543666,0.00079346,0.00799561,-1.00328064,0.305176,0.000000,-0.122070
7033107583,0.00057983,0.00747681,-1.00758362,0.305176,0.000000,-0.122070
7040349708,0.00057983,0.00747681,-1.00758362,0.366211,-0.061035,-0.183105
7042911625,0.00090027,0.00735474,-1.00468445,0.366211,-0.061035,-0.183105
7050498541,0.00090027,0.00735474,-1.00468445,0.427246,0.061035,-0.183105
7053037583,0.00155640,0.00770569,-1.00605774,0.427246,0.061035,-0.183105
7060092875,0.00155640,0.00770569,-1.00605774,0.305176,0.000000,-0.183105
7062429333,0.00228882,0.00747681,-1.00709534,0.305176,0.000000,-0.183105
7070028791,0.00228882,0.00747681,-1.00709534,0.366211,0.000000,-0.122070
7072582791,0.00155640,0.00749207,-1.00474548,0.366211,0.000000,-0.122070
7080154875,0.00155640,0.00749207,-1.00474548,0.427246,0.183105,-0.122070
7082699666,0.00201416,0.00735474,-1.00650024,0.427246,0.183105,-0.122070
7090342458,0.00201416,0.00735474,-1.00650024,0.488281,0.000000,-0.122070
7092619125,0.00163269,0.00772095,-1.00526428,0.488281,0.000000,-0.122070
7100223333,0.00163269,0.00772095,-1.00526428,0.549316,0.000000,-0.122070
7102773166,0.00173950,0.00701904,-1.00624084,0.549316,0.000000,-0.122070
7109874291,0.00173950,0.00701904,-1.00624084,0.305176,0.183105,-0.061035
7112412291,0.00198364,0.00730896,-1.00596619,0.305176,0.183105,-0.061035
7119955333,0.00198364,0.00730896,-1.00596619,0.366211,0.061035,0.061035
7122531875,0.00163269,0.00775146,-1.00683594,0.366211,0.061035,0.061035
7129690958,0.00163269,0.00775146,-1.00683594,0.366211,0.061035,-0.244141
7132244041,0.00198364,0.00778198,-1.00582886,0.366211,0.061035,-0.244141
7139867458,0.00198364,0.00778198,-1.00582886,0.427246,0.122070,0.122070
7142419916,0.00134277,0.00793457,-1.00587463,0.427246,0.122070,0.122070
7150018083,0.00134277,0.00793457,-1.00587463,0.366211,0.122070,-0.183105
7152567000,0.00164795,0.00726318,-1.00509644,0.366211,0.122070,-0.183105
7160166708,0.00164795,0.00726318,-1.00509644,0.305176,0.000000,-0.061035
7162717416,0.00175476,0.00698853,-1.00642395,0.305176,0.000000,-0.061035
7169953583,0.00175476,0.00698853,-1.00642395,0.305176,0.061035,-0.061035
7172511791,0.00160217,0.00737000,-1.00619507,0.305176,0.061035,-0.061035
7180109791,0.00160217,0.00737000,-1.00619507,0.366211,0.061035,-0.122070
7182670208,0.00245667,0.00730896,-1.00517273,0.366211,0.061035,-0.122070
7190271291,0.00245667,0.00730896,-1.00517273,0.122070,-0.061035,-0.061035
7192813375,0.00137329,0.00769043,-1.00500488,0.122070,-0.061035,-0.061035
7200409875,0.00137329,0.00769043,-1.00500488,0.305176,0.061035,0.000000
7202975625,0.00160217,0.00819397,-1.00735474,0.305176,0.061035,0.000000
7210245916,0.00160217,0.00819397,-1.00735474,0.305176,0.061035,-0.061035
7212795875,0.00091553,0.00881958,-1.00517273,0.305176,0.061035,-0.061035
7220347458,0.00091553,0.00881958,-1.00517273,0.122070,0.061035,-0.061035
7222895375,0.00137329,0.00912476,-1.00711060,0.122070,0.061035,-0.061035
7230550208,0.00137329,0.00912476,-1.00711060,0.427246,0.061035,0.122070
7233104500,0.00088501,0.00897217,-1.00585938,0.427246,0.061035,0.122070
7240620333,0.00088501,0.00897217,-1.00585938,0.427246,0.061035,-0.122070
7243165458,0.00027466,0.00871277,-1.00767517,0.427246,0.061035,-0.122070
7250582583,0.00027466,0.00871277,-1.00767517,0.183105,0.061035,-0.183105
7253149125,0.00199890,0.00830078,-1.00549316,0.183105,0.061035,-0.183105
7260777541,0.00199890,0.00830078,-1.00549316,0.183105,0.061035,-0.061035
7263350750,0.00149536,0.00822449,-1.00590515,0.183105,0.061035,-0.061035
7270975416,0.00149536,0.00822449,-1.00590515,0.427246,0.122070,0.000000
7273557416,0.00195312,0.00842285,-1.00549316,0.427246,0.122070,0.000000
7281184833,0.00202942,0.00656128,-1.00532532,0.183105,0.000000,-0.061035
7291297041,0.00187683,0.00796509,-1.00637817,0.488281,0.061035,-0.183105
7298975458,0.00187683,0.00796509,-1.00637817,0.244141,-0.061035,-0.061035
7301551083,0.00254822,0.00714111,-1.00631714,0.244141,-0.061035,-0.061035
7309188166,0.00254822,0.00714111,-1.00631714,0.244141,0.122070,-0.122070
7311737416,0.00140381,0.00715637,-1.00660706,0.244141,0.122070,-0.122070
7319382083,0.00140381,0.00715637,-1.00660706,0.244141,-0.061035,-0.061035
7321902708,0.00163269,0.00740051,-1.00650024,0.244141,-0.061035,-0.061035
7328887625,0.00163269,0.00740051,-1.00650024,0.244141,0.061035,0.000000
7331061958,0.00205994,0.00747681,-1.00614929,0.244141,0.061035,0.000000
7341107458,0.00253296,0.00822449,-1.00679016,0.427246,0.061035,-0.061035
7351122875,0.00163269,0.00698853,-1.00605774,0.366211,0.061035,-0.061035
7361382458,0.00213623,0.00738525,-1.00630188,0.305176,0.122070,-0.061035
7368981208,0.00213623,0.00738525,-1.00630188,0.366211,0.122070,0.000000
7371534083,0.00297546,0.00794983,-1.00613403,0.366211,0.122070,0.000000
7379164541,0.00297546,0.00794983,-1.00613403,0.244141,0.000000,0.000000
7381339666,0.00332642,0.00796509,-1.00556946,0.244141,0.000000,0.000000
7391135291,0.00286865,0.00791931,-1.00669861,0.244141,0.000000,-0.061035
7400843625,0.00286865,0.00791931,-1.00669861,0.366211,0.000000,-0.183105
7403420500,0.00251770,0.00784302,-1.00741577,0.366211,0.000000,-0.183105
7411077916,0.00173950,0.00790405,-1.00581360,0.244141,0.000000,-0.061035
7421263583,0.00120544,0.00794983,-1.00555420,0.244141,0.000000,-0.122070
7428905333,0.00120544,0.00794983,-1.00555420,0.488281,0.000000,-0.183105
7431459875,0.00148010,0.00787354,-1.00585938,0.488281,0.000000,-0.183105
7439062458,0.00148010,0.00787354,-1.00585938,0.427246,0.061035,-0.061035
7441608333,0.00169373,0.00805664,-1.00540161,0.427246,0.061035,-0.061035
7449057625,0.00169373,0.00805664,-1.00540161,0.305176,0.000000,-0.061035
7451639791,0.00175476,0.00782776,-1.00633240,0.305176,0.000000,-0.061035
7459261750,0.00175476,0.00782776,-1.00633240,0.305176,0.000000,-0.183105
7461817708,0.00143433,0.00746155,-1.00598145,0.305176,0.000000,-0.183105
7469440416,0.00143433,0.00746155,-1.00598145,0.366211,0.061035,0.000000
7471998958,0.00123596,0.00845337,-1.00741577,0.366211,0.061035,0.000000
7479611291,0.00123596,0.00845337,-1.00741577,0.244141,0.061035,-0.122070
7482161541,0.00270081,0.00798035,-1.00659180,0.244141,0.061035,-0.122070
7489836500,0.00270081,0.00798035,-1.00659180,0.183105,0.122070,-0.122070
7492399958,0.00247192,0.00668335,-1.00703430,0.183105,0.122070,-0.122070
7499895791,0.00247192,0.00668335,-1.00703430,0.305176,0.122070,-0.061035
7502444541,0.00280762,0.00668335,-1.00550842,0.305176,0.122070,-0.061035
7510067625,0.00280762,0.00668335,-1.00550842,0.366211,0.061035,-0.061035
7512627125,0.00277710,0.00738525,-1.00575256,0.366211,0.061035,-0.061035
7520267458,0.00277710,0.00738525,-1.00575256,0.305176,-0.061035,0.000000
7522779916,0.00312805,0.00790405,-1.00584412,0.305176,-0.061035,0.000000
7530405458,0.00312805,0.00790405,-1.00584412,0.305176,0.061035,-0.183105
7532994250,0.00230408,0.00794983,-1.00666809,0.305176,0.061035,-0.183105
7540666166,0.00230408,0.00794983,-1.00666809,0.244141,0.061035,-0.122070
7543245083,0.00196838,0.00825500,-1.00590515,0.244141,0.061035,-0.122070
7550854958,0.00196838,0.00825500,-1.00590515,0.366211,0.183105,0.000000
7553412875,0.00129700,0.00836182,-1.00634766,0.366211,0.183105,0.000000
7561056375,0.00129700,0.00836182,-1.00634766,0.305176,-0.061035,0.061035
7563610583,0.00160217,0.00917053,-1.00595093,0.305176,-0.061035,0.061035
7571218375,0.00097656,0.00875854,-1.00578308,0.183105,0.000000,0.061035
7581387708,0.00222778,0.00743103,-1.00416565,0.305176,0.000000,-0.061035
7589087083,0.00222778,0.00743103,-1.00416565,0.366211,0.000000,0.122070
7591624333,0.00204468,0.00836182,-1.00956726,0.366211,0.000000,0.122070
7599246458,0.00204468,0.00836182,-1.00956726,0.305176,0.061035,0.000000
7601794250,0.00180054,0.00843811,-1.00570679,0.305176,0.061035,0.000000
7609333541,0.00180054,0.00843811,-1.00570679,0.366211,0.000000,-0.122070
7611926000,0.00141907,0.00662231,-1.00552368,0.366211,0.000000,-0.122070
7619577291,0.00141907,0.00662231,-1.00552368,0.305176,0.061035,0.061035
7621907666,0.00209045,0.00611877,-1.00782776,0.305176,0.061035,0.061035
7629572791,0.00209045,0.00611877,-1.00782776,0.183105,0.061035,-0.061035
7632140833,0.00102234,0.00587463,-1.00474548,0.183105,0.061035,-0.061035
7639777833,0.00102234,0.00587463,-1.00474548,0.305176,0.000000,-0.122070
7642345958,0.00169373,0.00642395,-1.00537109,0.305176,0.000000,-0.122070
7649947041,0.00169373,0.00642395,-1.00537109,0.305176,0.061035,-0.122070
7652498666,0.00257874,0.00729370,-1.00819397,0.305176,0.061035,-0.122070
7660129000,0.00257874,0.00729370,-1.00819397,0.488281,0.061035,-0.122070
7662665666,0.00141907,0.00805664,-1.00396729,0.488281,0.061035,-0.122070
7669884708,0.00141907,0.00805664,-1.00396729,0.183105,0.122070,-0.061035
7672450375,0.00109863,0.00833130,-1.00621033,0.183105,0.122070,-0.061035
7680059291,0.00109863,0.00833130,-1.00621033,0.305176,-0.061035,0.000000
7682617583,0.00239563,0.00857544,-1.00616455,0.305176,-0.061035,0.000000
7689897500,0.00239563,0.00857544,-1.00616455,0.183105,0.061035,-0.122070
7692448708,0.00231934,0.00904846,-1.00572205,0.183105,0.061035,-0.122070
7700001833,0.00231934,0.00904846,-1.00572205,0.183105,0.061035,-0.061035
7702563208,0.00279236,0.00852966,-1.00756836,0.183105,0.061035,-0.061035
7710150291,0.00279236,0.00852966,-1.00756836,0.183105,0.061035,-0.122070
7712417291,0.00215149,0.00823975,-1.00643921,0.183105,0.061035,-0.122070
7719858750,0.00215149,0.00823975,-1.00643921,0.305176,0.061035,-0.122070
7722407208,0.00166321,0.00773621,-1.00569153,0.305176,0.061035,-0.122070
7730009875,0.00166321,0.00773621,-1.00569153,0.549316,0.000000,0.122070
7732519166,0.00138855,0.00727844,-1.00648499,0.549316,0.000000,0.122070
7739543000,0.00138855,0.00727844,-1.00648499,0.366211,0.000000,-0.122070
7742101708,0.00125122,0.00717163,-1.00654602,0.366211,0.000000,-0.122070
7749297291,0.00125122,0.00717163,-1.00654602,0.305176,0.000000,0.000000
7751868375,0.00149536,0.00714111,-1.00674438,0.305176,0.000000,0.000000
7759484125,0.00149536,0.00714111,-1.00674438,0.427246,0.061035,0.000000
7762032541,0.00280762,0.00772095,-1.00599670,0.427246,0.061035,0.000000
7769645708,0.00280762,0.00772095,-1.00599670,0.305176,0.183105,-0.183105
7771941250,0.00263977,0.00674438,-1.00685120,0.305176,0.183105,-0.183105
7779619958,0.00263977,0.00674438,-1.00685120,0.488281,0.183105,0.061035
7782275875,0.00186157,0.00794983,-1.00578308,0.488281,0.183105,0.061035
7789906666,0.00186157,0.00794983,-1.00578308,0.305176,0.183105,-0.122070
7792061458,0.00205994,0.00787354,-1.00518799,0.305176,0.183105,-0.122070
7799228583,0.00205994,0.00787354,-1.00518799,0.305176,0.000000,0.000000
7801728166,0.00099182,0.00712585,-1.00549316,0.305176,0.000000,0.000000
7809382625,0.00099182,0.00712585,-1.00549316,0.244141,0.122070,-0.122070
7811984625,0.00218201,0.00721741,-1.00628662,0.244141,0.122070,-0.122070
7819678333,0.00218201,0.00721741,-1.00628662,0.305176,0.061035,-0.061035
7822298291,0.00289917,0.00790405,-1.00547791,0.305176,0.061035,-0.061035
7829507833,0.00289917,0.00790405,-1.00547791,0.244141,0.000000,0.000000
7832098250,0.00151062,0.00706482,-1.00590515,0.244141,0.000000,0.000000
7839759750,0.00151062,0.00706482,-1.00590515,0.366211,-0.122070,-0.061035
7842374000,0.00129700,0.00915527,-1.00624084,0.366211,-0.122070,-0.061035
7849996458,0.00129700,0.00915527,-1.00624084,0.427246,0.000000,0.000000
7852568250,0.00112915,0.00958252,-1.00630188,0.427246,0.000000,0.000000
7860046666,0.00112915,0.00958252,-1.00630188,0.305176,0.061035,-0.183105
7862593458,0.00057983,0.00895691,-1.00631714,0.305176,0.061035,-0.183105
7870223375,0.00057983,0.00895691,-1.00631714,0.366211,0.000000,-0.183105
7872835333,0.00088501,0.00862122,-1.00598145,0.366211,0.000000,-0.183105
7880472333,0.00088501,0.00862122,-1.00598145,0.244141,-0.061035,-0.061035
7882778375,0.00152588,0.00886536,-1.00653076,0.244141,-0.061035,-0.061035
7890427000,0.00152588,0.00886536,-1.00653076,0.244141,0.061035,-0.061035
7893029291,0.00114441,0.00808716,-1.00482178,0.244141,0.061035,-0.061035
7900667708,0.00114441,0.00808716,-1.00482178,0.183105,0.061035,-0.061035
7903237500,0.00213623,0.00746155,-1.00595093,0.183105,0.061035,-0.061035
7910724250,0.00213623,0.00746155,-1.00595093,0.305176,0.122070,0.000000
7913320708,0.00289917,0.00601196,-1.00617981,0.305176,0.122070,0.000000
7921012708,0.00289917,0.00601196,-1.00617981,0.427246,-0.061035,0.061035
7923611750,0.00233459,0.00598145,-1.00498962,0.427246,-0.061035,0.061035
7931260166,0.00195312,0.00602722,-1.00711060,0.427246,0.061035,-0.122070
7941115875,0.00195312,0.00602722,-1.00711060,0.183105,0.061035,-0.061035
7943776666,0.00193787,0.00677490,-1.00602722,0.183105,0.061035,-0.061035
7948881208,0.00193787,0.00677490,-1.00602722,0.305176,-0.061035,-0.061035
7951430333,0.00247192,0.00683594,-1.00643921,0.305176,-0.061035,-0.061035
7959054250,0.00247192,0.00683594,-1.00643921,0.305176,0.000000,-0.122070
7961607333,0.00297546,0.00819397,-1.00663757,0.305176,0.000000,-0.122070
7969228416,0.00297546,0.00819397,-1.00663757,0.305176,0.061035,0.061035
7971793458,0.00222778,0.00840759,-1.00698853,0.305176,0.061035,0.061035
7979100416,0.00222778,0.00840759,-1.00698853,0.305176,0.000000,-0.061035
7981667000,0.00140381,0.00872803,-1.00656128,0.305176,0.000000,-0.061035
7989321333,0.00140381,0.00872803,-1.00656128,0.427246,0.183105,0.000000
7991590666,0.00109863,0.00975037,-1.00624084,0.427246,0.183105,0.000000
7999280125,0.00109863,0.00975037,-1.00624084,0.305176,-0.061035,0.000000
8001863291,0.00141907,0.00975037,-1.00706482,0.305176,-0.061035,0.000000
8009569375,0.00141907,0.00975037,-1.00706482,0.305176,-0.061035,-0.122070
8012088333,0.00250244,0.00897217,-1.00503540,0.305176,-0.061035,-0.122070
8019723958,0.00250244,0.00897217,-1.00503540,0.305176,0.061035,0.000000
8022311458,0.00172424,0.00898743,-1.00689697,0.305176,0.061035,0.000000
8029836375,0.00172424,0.00898743,-1.00689697,0.366211,0.000000,-0.061035
8032430458,0.00306702,0.00846863,-1.00537109,0.366211,0.000000,-0.061035
8040073791,0.00306702,0.00846863,-1.00537109,0.427246,-0.061035,-0.183105
8042634250,0.00175476,0.00753784,-1.00529480,0.427246,-0.061035,-0.183105
8050272291,0.00175476,0.00753784,-1.00529480,0.244141,0.000000,-0.061035
8052838708,0.00207520,0.00782776,-1.00486755,0.244141,0.000000,-0.061035
8060461833,0.00207520,0.00782776,-1.00486755,0.244141,0.061035,-0.183105
8063011625,0.00198364,0.00787354,-1.00852966,0.244141,0.061035,-0.183105
8070623958,0.00198364,0.00787354,-1.00852966,0.183105,0.000000,-0.061035
8073175458,0.00180054,0.00714111,-1.00698853,0.183105,0.000000,-0.061035
8080784541,0.00180054,0.00714111,-1.00698853,0.305176,0.061035,-0.183105
8083338583,0.00045776,0.00737000,-1.00578308,0.305176,0.061035,-0.183105
8090957000,0.00045776,0.00737000,-1.00578308,0.427246,0.061035,0.061035
8093513750,0.00103760,0.00801086,-1.00614929,0.427246,0.061035,0.061035
8101114708,0.00103760,0.00801086,-1.00614929,0.122070,-0.061035,-0.061035
8103659666,0.00134277,0.00709534,-1.00634766,0.122070,-0.061035,-0.061035
8111245750,0.00250244,0.00682068,-1.00590515,0.366211,0.000000,-0.122070
8118894458,0.00250244,0.00682068,-1.00590515,0.122070,0.061035,-0.061035
8121464083,0.00201416,0.00772095,-1.00619507,0.122070,0.061035,-0.061035
8129094250,0.00201416,0.00772095,-1.00619507,0.305176,0.000000,-0.122070
8131650958,0.00218201,0.00837708,-1.00505066,0.305176,0.000000,-0.122070
8139256166,0.00218201,0.00837708,-1.00505066,0.305176,-0.061035,-0.061035
8141824250,0.00224304,0.00769043,-1.00708008,0.305176,-0.061035,-0.061035
8149437500,0.00224304,0.00769043,-1.00708008,0.244141,0.061035,-0.122070
8151985125,0.00306702,0.00753784,-1.00535583,0.244141,0.061035,-0.122070
8159585250,0.00306702,0.00753784,-1.00535583,0.305176,0.000000,0.000000
8162161000,0.00227356,0.00758362,-1.00587463,0.305176,0.000000,0.000000
8169795625,0.00227356,0.00758362,-1.00587463,0.366211,0.122070,-0.122070
8172369208,0.00112915,0.00831604,-1.00488281,0.366211,0.122070,-0.122070
8179685000,0.00112915,0.00831604,-1.00488281,0.183105,-0.061035,-0.061035
8182237958,0.00097656,0.00695801,-1.00682068,0.183105,-0.061035,-0.061035
8189862583,0.00097656,0.00695801,-1.00682068,0.488281,0.000000,-0.061035
8192415333,0.00146484,0.00701904,-1.00473022,0.488281,0.000000,-0.061035
8200018000,0.00146484,0.00701904,-1.00473022,0.244141,0.061035,-0.122070
8202589083,0.00161743,0.00805664,-1.00735474,0.244141,0.061035,-0.122070
8209956375,0.00161743,0.00805664,-1.00735474,0.122070,0.061035,-0.122070
8212446916,0.00187683,0.00849915,-1.00643921,0.122070,0.061035,-0.122070
8220055166,0.00187683,0.00849915,-1.00643921,0.244141,0.061035,-0.061035
8222611166,0.00187683,0.00839233,-1.00563049,0.244141,0.061035,-0.061035
8230209541,0.00187683,0.00839233,-1.00563049,0.366211,-0.061035,-0.061035
8232775208,0.00283813,0.00843811,-1.00601196,0.366211,-0.061035,-0.061035
8240593833,0.00283813,0.00843811,-1.00601196,0.244141,-0.061035,-0.183105
8243181041,0.00193787,0.00752258,-1.00627136,0.244141,-0.061035,-0.183105
8250902833,0.00193787,0.00752258,-1.00627136,0.305176,0.122070,-0.061035
8253509500,0.00071716,0.00671387,-1.00526428,0.305176,0.122070,-0.061035
8260979833,0.00071716,0.00671387,-1.00526428,0.244141,0.000000,-0.122070
8263525333,0.00155640,0.00849915,-1.00610352,0.244141,0.000000,-0.122070
8270738750,0.00155640,0.00849915,-1.00610352,0.366211,0.122070,-0.122070
8272898125,0.00181580,0.00819397,-1.00476074,0.366211,0.122070,-0.122070
8280535375,0.00181580,0.00819397,-1.00476074,0.244141,0.000000,-0.122070
8282750500,0.00234985,0.00787354,-1.00590515,0.244141,0.000000,-0.122070
8290407708,0.00234985,0.00787354,-1.00590515,0.366211,0.061035,-0.061035
8292939166,0.00204468,0.00744629,-1.00566101,0.366211,0.061035,-0.061035
8300503416,0.00204468,0.00744629,-1.00566101,0.366211,0.000000,-0.122070
8303030958,0.00148010,0.00764465,-1.00550842,0.366211,0.000000,-0.122070
8310413000,0.00148010,0.00764465,-1.00550842,0.427246,0.061035,-0.122070
8312950666,0.00205994,0.00820923,-1.00595093,0.427246,0.061035,-0.122070
8320527583,0.00205994,0.00820923,-1.00595093,0.427246,0.122070,-0.183105
8323071958,0.00196838,0.00749207,-1.00656128,0.427246,0.122070,-0.183105
8330670666,0.00196838,0.00749207,-1.00656128,0.183105,-0.061035,-0.122070
8333255000,0.00207520,0.00822449,-1.00651550,0.183105,-0.061035,-0.122070
8340404666,0.00207520,0.00822449,-1.00651550,0.305176,0.000000,0.000000
8342932541,0.00219727,0.00828552,-1.00732422,0.305176,0.000000,0.000000
8350274416,0.00219727,0.00828552,-1.00732422,0.244141,0.000000,-0.061035
8352822166,0.00210571,0.00865173,-1.00564575,0.244141,0.000000,-0.061035
8360169041,0.00210571,0.00865173,-1.00564575,0.305176,-0.061035,-0.122070
8362731125,0.00186157,0.00872803,-1.00611877,0.305176,-0.061035,-0.122070
8370323958,0.00186157,0.00872803,-1.00611877,0.366211,0.183105,-0.061035
8372865666,0.00231934,0.00880432,-1.00628662,0.366211,0.183105,-0.061035
8380233541,0.00231934,0.00880432,-1.00628662,0.244141,0.061035,-0.061035
8382793833,0.00279236,0.00808716,-1.00672913,0.244141,0.061035,-0.061035
8389539416,0.00279236,0.00808716,-1.00672913,0.488281,-0.061035,-0.061035
8392094666,0.00289917,0.00808716,-1.00695801,0.488281,-0.061035,-0.061035
8399687125,0.00289917,0.00808716,-1.00695801,0.366211,0.000000,-0.061035
8402229333,0.00216675,0.00776672,-1.00566101,0.366211,0.000000,-0.061035
8409612875,0.00216675,0.00776672,-1.00566101,0.305176,0.000000,-0.061035
8412170583,0.00221252,0.00714111,-1.00625610,0.305176,0.000000,-0.061035
8419585541,0.00221252,0.00714111,-1.00625610,0.244141,0.061035,-0.061035
8422162208,0.00177002,0.00694275,-1.00630188,0.244141,0.061035,-0.061035
