timestamp_ns,accel_x,accel_y,accel_z,gyro_x,gyro_y,gyro_z
86356416,0.01306152,0.00010681,-0.99749756,0.000000,0.000000,0.000000
100565375,0.01306152,0.00010681,-0.99749756,0.122070,0.122070,-0.061035
104939041,0.01368713,0.00125122,-0.99765015,0.183105,0.122070,-0.183105
107522416,0.01164246,0.00059509,-0.99876404,-0.061035,0.122070,-0.061035
114119791,0.01269531,0.00070190,-0.99789429,-0.061035,0.122070,-0.061035
117195875,0.01269531,0.00070190,-0.99789429,0.122070,0.183105,-0.183105
122610500,0.01255798,0.00036621,-0.99662781,0.122070,0.183105,-0.183105
129782291,0.01255798,0.00036621,-0.99662781,0.000000,0.061035,-0.244141
135257750,0.01290894,0.00051880,-0.99960327,0.000000,0.061035,-0.244141
138227333,0.01290894,0.00051880,-0.99960327,0.122070,0.122070,-0.183105
143246000,0.01411438,0.00144958,-0.99717712,0.122070,0.122070,-0.183105
148295875,0.01411438,0.00144958,-0.99717712,0.122070,0.183105,-0.244141
153349041,0.01309204,0.00260925,-0.99803162,0.122070,0.183105,-0.244141
158373541,0.01309204,0.00260925,-0.99803162,0.061035,0.244141,-0.122070
163396375,0.01197815,0.00253296,-0.99896240,0.061035,0.244141,-0.122070
168412833,0.01197815,0.00253296,-0.99896240,0.122070,0.122070,-0.061035
173430750,0.01234436,0.00202942,-0.99845886,0.122070,0.122070,-0.061035
178453083,0.01234436,0.00202942,-0.99845886,0.305176,0.183105,-0.061035
183472083,0.01322937,0.00315857,-0.99717712,0.305176,0.183105,-0.061035
188492000,0.01322937,0.00315857,-0.99717712,0.122070,0.305176,-0.244141
193509166,0.01296997,0.00209045,-0.99751282,0.122070,0.305176,-0.244141
198528333,0.01296997,0.00209045,-0.99751282,0.061035,0.305176,-0.061035
203547083,0.01295471,0.00219727,-0.99766541,0.061035,0.305176,-0.061035
208567541,0.01295471,0.00219727,-0.99766541,-0.061035,0.305176,-0.183105
213588458,0.01278687,0.00122070,-0.99748230,-0.061035,0.305176,-0.183105
218610333,0.01278687,0.00122070,-0.99748230,0.061035,0.244141,-0.183105
223641333,0.01200867,0.00032043,-0.99845886,0.061035,0.244141,-0.183105
228668791,0.01200867,0.00032043,-0.99845886,0.183105,0.244141,-0.061035
233690625,0.01235962,0.00035095,-0.99742126,0.183105,0.244141,-0.061035
238730625,0.01235962,0.00035095,-0.99742126,0.061035,0.305176,-0.183105
243752208,0.01307678,0.00079346,-0.99745178,0.061035,0.305176,-0.183105
248775416,0.01307678,0.00079346,-0.99745178,0.000000,0.244141,-0.122070
253799375,0.01429749,-0.00004578,-0.99786377,0.000000,0.244141,-0.122070
258826958,0.01429749,-0.00004578,-0.99786377,0.122070,0.183105,-0.122070
263850625,0.01304626,0.00038147,-0.99784851,0.122070,0.183105,-0.122070
268912000,0.01304626,0.00038147,-0.99784851,0.061035,0.122070,-0.061035
273964541,0.01255798,0.00119019,-0.99732971,0.061035,0.122070,-0.061035
279022750,0.01255798,0.00119019,-0.99732971,0.000000,0.122070,-0.122070
284058083,0.01416016,0.00093079,-0.99664307,0.000000,0.122070,-0.122070
289084875,0.01416016,0.00093079,-0.99664307,0.061035,0.244141,-0.122070
294131333,0.01274109,0.00199890,-0.99812317,0.061035,0.244141,-0.122070
299180500,0.01274109,0.00199890,-0.99812317,0.061035,0.122070,-0.061035
304232375,0.01202393,0.00213623,-0.99766541,0.061035,0.122070,-0.061035
309281875,0.01202393,0.00213623,-0.99766541,0.000000,0.122070,-0.244141
314335166,0.01182556,0.00256348,-0.99787903,0.000000,0.122070,-0.244141
319385500,0.01182556,0.00256348,-0.99787903,-0.061035,0.183105,-0.122070
324449000,0.01225281,0.00193787,-0.99787903,-0.061035,0.183105,-0.122070
329494208,0.01225281,0.00193787,-0.99787903,0.000000,0.244141,-0.183105
334570250,0.01330566,0.00148010,-0.99723816,0.000000,0.244141,-0.183105
339637541,0.01330566,0.00148010,-0.99723816,0.061035,0.244141,-0.244141
344699625,0.01293945,0.00122070,-0.99809265,0.061035,0.244141,-0.244141
349766125,0.01293945,0.00122070,-0.99809265,0.061035,0.183105,-0.244141
352295375,0.01234436,0.00076294,-0.99761963,0.061035,0.183105,-0.244141
357331375,0.01234436,0.00076294,-0.99761963,0.122070,0.244141,-0.061035
362361166,0.01229858,0.00056458,-0.99874878,0.122070,0.244141,-0.061035
367390500,0.01229858,0.00056458,-0.99874878,0.122070,0.244141,-0.122070
374829958,0.01271057,0.00065613,-0.99884033,0.122070,0.244141,-0.122070
377388750,0.01271057,0.00065613,-0.99884033,0.122070,0.183105,-0.183105
382463000,0.01226807,0.00086975,-0.99816895,0.122070,0.183105,-0.183105
387563166,0.01226807,0.00086975,-0.99816895,-0.061035,0.183105,-0.122070
392389166,0.01211548,0.00079346,-0.99787903,-0.061035,0.183105,-0.122070
399667541,0.01211548,0.00079346,-0.99787903,-0.061035,0.122070,-0.061035
404732625,0.01272583,0.00109863,-0.99861145,-0.061035,0.122070,-0.061035
409537750,0.01272583,0.00109863,-0.99861145,0.244141,0.305176,-0.061035
414289291,0.01268005,0.00152588,-0.99917603,0.244141,0.305176,-0.061035
419501791,0.01268005,0.00152588,-0.99917603,0.000000,0.305176,-0.061035
425100166,0.01284790,0.00198364,-0.99879456,0.000000,0.305176,-0.061035
427758291,0.01284790,0.00198364,-0.99879456,0.183105,0.122070,-0.122070
432898708,0.01287842,0.00231934,-0.99754333,0.183105,0.122070,-0.122070
438003791,0.01287842,0.00231934,-0.99754333,-0.061035,0.244141,-0.122070
443096750,0.01266479,0.00193787,-0.99612427,-0.061035,0.244141,-0.122070
448176791,0.01266479,0.00193787,-0.99612427,0.000000,0.305176,-0.122070
453305250,0.01318359,0.00144958,-0.99757385,0.000000,0.305176,-0.122070
458422250,0.01318359,0.00144958,-0.99757385,0.061035,0.305176,-0.183105
463535875,0.01208496,0.00167847,-0.99674988,0.061035,0.305176,-0.183105
468617041,0.01208496,0.00167847,-0.99674988,0.061035,0.244141,-0.122070
473721333,0.01219177,0.00131226,-0.99847412,0.061035,0.244141,-0.122070
478726458,0.01219177,0.00131226,-0.99847412,0.061035,0.183105,-0.183105
483804583,0.01248169,0.00076294,-0.99880981,0.061035,0.183105,-0.183105
488855250,0.01248169,0.00076294,-0.99880981,0.000000,0.244141,-0.183105
493924416,0.01115417,0.00027466,-0.99848938,0.000000,0.244141,-0.183105
499003625,0.01115417,0.00027466,-0.99848938,0.000000,0.305176,-0.244141
504090875,0.01159668,0.00109863,-0.99816895,0.000000,0.305176,-0.244141
509170666,0.01159668,0.00109863,-0.99816895,0.000000,0.183105,-0.122070
514240583,0.01145935,0.00184631,-0.99754333,0.000000,0.183105,-0.122070
519325541,0.01145935,0.00184631,-0.99754333,0.061035,0.122070,-0.061035
524420875,0.01228333,0.00140381,-0.99832153,0.061035,0.122070,-0.061035
529485125,0.01228333,0.00140381,-0.99832153,0.122070,0.122070,-0.061035
534537083,0.01239014,0.00135803,-0.99731445,0.122070,0.122070,-0.061035
539590791,0.01239014,0.00135803,-0.99731445,0.122070,0.244141,-0.122070
544391541,0.01306152,0.00128174,-0.99699402,0.122070,0.244141,-0.122070
549448083,0.01306152,0.00128174,-0.99699402,0.122070,0.183105,-0.183105
554524250,0.01228333,0.00236511,-0.99816895,0.122070,0.183105,-0.183105
559627416,0.01228333,0.00236511,-0.99816895,0.000000,0.244141,-0.122070
564760000,0.01171875,0.00140381,-0.99772644,0.000000,0.244141,-0.122070
569835666,0.01171875,0.00140381,-0.99772644,-0.061035,0.244141,-0.244141
574914291,0.01202393,0.00091553,-0.99758911,-0.061035,0.244141,-0.244141
579982250,0.01202393,0.00091553,-0.99758911,0.000000,0.244141,-0.244141
585041750,0.01181030,0.00239563,-0.99775696,0.000000,0.244141,-0.244141
590162791,0.01181030,0.00239563,-0.99775696,0.183105,0.122070,-0.061035
595058500,0.01228333,0.00102234,-0.99778748,0.183105,0.122070,-0.061035
600128500,0.01228333,0.00102234,-0.99778748,0.061035,0.244141,-0.183105
605196375,0.01322937,0.00085449,-0.99806213,0.061035,0.244141,-0.183105
610285333,0.01322937,0.00085449,-0.99806213,0.061035,0.244141,-0.183105
615358583,0.01240540,0.00224304,-0.99797058,0.061035,0.244141,-0.183105
617897416,0.01240540,0.00224304,-0.99797058,0.000000,0.244141,0.000000
622963208,0.01292419,0.00160217,-0.99806213,0.000000,0.244141,0.000000
628022708,0.01292419,0.00160217,-0.99806213,0.061035,0.366211,-0.122070
635602541,0.01319885,0.00152588,-0.99822998,0.061035,0.366211,-0.122070
640669916,0.01319885,0.00152588,-0.99822998,0.122070,0.244141,-0.122070
645727375,0.01269531,0.00161743,-0.99821472,0.122070,0.244141,-0.122070
650784875,0.01269531,0.00161743,-0.99821472,0.122070,0.244141,-0.122070
655857875,0.01316833,0.00169373,-0.99711609,0.122070,0.244141,-0.122070
658432791,0.01316833,0.00169373,-0.99711609,-0.061035,0.244141,-0.061035
663498958,0.01358032,0.00151062,-0.99725342,-0.061035,0.244141,-0.061035
668601333,0.01358032,0.00151062,-0.99725342,0.122070,0.183105,-0.183105
673683458,0.01257324,0.00187683,-0.99804688,0.122070,0.183105,-0.183105
678799000,0.01257324,0.00187683,-0.99804688,0.183105,0.122070,0.000000
683900125,0.01188660,0.00086975,-0.99794006,0.183105,0.122070,0.000000
688986541,0.01188660,0.00086975,-0.99794006,0.061035,0.183105,-0.183105
694058916,0.01329041,0.00067139,-0.99818420,0.061035,0.183105,-0.183105
699152708,0.01329041,0.00067139,-0.99818420,0.061035,0.244141,-0.183105
704226958,0.01295471,0.00080872,-0.99905396,0.061035,0.244141,-0.183105
709325500,0.01295471,0.00080872,-0.99905396,0.061035,0.244141,-0.305176
714395208,0.01271057,0.00086975,-0.99711609,0.061035,0.244141,-0.305176
719468166,0.01271057,0.00086975,-0.99711609,0.000000,0.305176,-0.183105
724544166,0.01274109,0.00143433,-0.99763489,0.000000,0.305176,-0.183105
729606833,0.01274109,0.00143433,-0.99763489,0.000000,0.244141,-0.183105
734674750,0.01293945,0.00259399,-0.99769592,0.000000,0.244141,-0.183105
739740750,0.01293945,0.00259399,-0.99769592,0.061035,0.122070,-0.183105
744739791,0.01316833,0.00222778,-0.99784851,0.061035,0.122070,-0.183105
749808333,0.01316833,0.00222778,-0.99784851,0.061035,0.244141,-0.122070
754867375,0.01243591,0.00187683,-0.99801636,0.061035,0.244141,-0.122070
759952458,0.01243591,0.00187683,-0.99801636,-0.061035,0.122070,-0.122070
765021250,0.01295471,0.00138855,-0.99914551,-0.061035,0.122070,-0.122070
770095833,0.01295471,0.00138855,-0.99914551,0.122070,0.244141,-0.122070
775161583,0.01226807,0.00205994,-0.99812317,0.122070,0.244141,-0.122070
780232708,0.01226807,0.00205994,-0.99812317,-0.061035,0.183105,0.000000
785289958,0.01109314,0.00189209,-0.99772644,-0.061035,0.183105,0.000000
790348416,0.01109314,0.00189209,-0.99772644,0.122070,0.244141,-0.122070
795407000,0.01315308,0.00061035,-0.99778748,0.122070,0.244141,-0.122070
800464791,0.01315308,0.00061035,-0.99778748,0.061035,0.183105,-0.122070
805539041,0.01351929,0.00161743,-0.99719238,0.061035,0.183105,-0.122070
810605541,0.01351929,0.00161743,-0.99719238,0.061035,0.122070,-0.061035
815678833,0.01272583,0.00108337,-0.99882507,0.061035,0.122070,-0.061035
820768250,0.01272583,0.00108337,-0.99882507,0.000000,0.122070,-0.122070
825834958,0.01295471,0.00146484,-0.99740601,0.000000,0.122070,-0.122070
828398458,0.01295471,0.00146484,-0.99740601,0.000000,0.122070,-0.122070
833479833,0.01405334,0.00083923,-0.99771118,0.000000,0.122070,-0.122070
838542250,0.01405334,0.00083923,-0.99771118,0.183105,0.244141,-0.244141
843601041,0.01269531,0.00074768,-0.99916077,0.183105,0.244141,-0.244141
848679291,0.01269531,0.00074768,-0.99916077,0.061035,0.183105,-0.122070
853750291,0.01229858,0.00109863,-0.99789429,0.061035,0.183105,-0.122070
858814708,0.01229858,0.00109863,-0.99789429,0.061035,0.183105,-0.183105
863878541,0.01383972,0.00172424,-0.99781799,0.061035,0.183105,-0.183105
868941833,0.01383972,0.00172424,-0.99781799,-0.061035,0.183105,-0.061035
874025750,0.01211548,0.00309753,-0.99868774,-0.061035,0.183105,-0.061035
879097500,0.01211548,0.00309753,-0.99868774,0.000000,0.305176,-0.122070
884183708,0.01216125,0.00167847,-0.99902344,0.000000,0.305176,-0.122070
889258916,0.01216125,0.00167847,-0.99902344,0.122070,0.244141,-0.183105
894213250,0.01220703,0.00178528,-0.99708557,0.122070,0.244141,-0.183105
899270208,0.01220703,0.00178528,-0.99708557,0.061035,0.366211,-0.061035
904329416,0.01226807,0.00143433,-0.99752808,0.061035,0.366211,-0.061035
909397916,0.01226807,0.00143433,-0.99752808,0.061035,0.183105,-0.183105
914466166,0.01223755,0.00138855,-0.99746704,0.061035,0.183105,-0.183105
919525791,0.01223755,0.00138855,-0.99746704,0.122070,0.305176,-0.122070
924583458,0.01318359,0.00178528,-0.99780273,0.122070,0.305176,-0.122070
929639250,0.01318359,0.00178528,-0.99780273,0.000000,0.000000,-0.183105
934712333,0.01329041,0.00141907,-0.99818420,0.000000,0.000000,-0.183105
939786750,0.01329041,0.00141907,-0.99818420,0.061035,0.244141,-0.122070
944792333,0.01295471,0.00109863,-0.99771118,0.061035,0.244141,-0.122070
949880000,0.01295471,0.00109863,-0.99771118,0.000000,0.244141,-0.183105
954935625,0.01348877,0.00205994,-0.99722290,0.000000,0.244141,-0.183105
960002166,0.01348877,0.00205994,-0.99722290,0.061035,0.305176,0.000000
965060875,0.01301575,0.00193787,-0.99829102,0.061035,0.305176,0.000000
970123750,0.01301575,0.00193787,-0.99829102,0.122070,0.183105,-0.122070
975245708,0.01258850,0.00262451,-0.99862671,0.122070,0.183105,-0.122070
980316416,0.01258850,0.00262451,-0.99862671,0.061035,0.305176,-0.183105
985398833,0.01214600,0.00231934,-0.99864197,0.061035,0.305176,-0.183105
990462125,0.01214600,0.00231934,-0.99864197,-0.061035,0.244141,-0.183105
995527458,0.01298523,0.00205994,-0.99780273,-0.061035,0.244141,-0.183105
1000610375,0.01298523,0.00205994,-0.99780273,0.000000,0.122070,-0.183105
1005680583,0.01358032,0.00158691,-0.99812317,0.000000,0.122070,-0.183105
1010766833,0.01358032,0.00158691,-0.99812317,0.061035,0.122070,-0.061035
1015509916,0.01216125,0.00100708,-0.99818420,0.061035,0.122070,-0.061035
1020575291,0.01216125,0.00100708,-0.99818420,0.061035,0.183105,-0.061035
1025633500,0.01300049,0.00097656,-0.99792480,0.061035,0.183105,-0.061035
1030699625,0.01300049,0.00097656,-0.99792480,0.122070,0.183105,-0.061035
1035765375,0.01377869,0.00111389,-0.99745178,0.122070,0.183105,-0.061035
1040820250,0.01377869,0.00111389,-0.99745178,0.061035,0.122070,-0.122070
1045877875,0.01321411,0.00080872,-0.99829102,0.061035,0.122070,-0.122070
1050933458,0.01321411,0.00080872,-0.99829102,0.061035,0.366211,-0.122070
1056007833,0.01325989,0.00161743,-0.99702454,0.061035,0.366211,-0.122070
1061066416,0.01325989,0.00161743,-0.99702454,0.122070,0.183105,-0.122070
1066175000,0.01300049,0.00149536,-0.99708557,0.122070,0.183105,-0.122070
1071248875,0.01300049,0.00149536,-0.99708557,0.061035,0.061035,-0.122070
1076364083,0.01245117,0.00155640,-0.99804688,0.061035,0.061035,-0.122070
1078911208,0.01245117,0.00155640,-0.99804688,0.000000,0.183105,-0.061035
1083990333,0.01249695,0.00079346,-0.99731445,0.000000,0.183105,-0.061035
1089057791,0.01249695,0.00079346,-0.99731445,0.122070,0.244141,-0.122070
1094133875,0.01292419,0.00079346,-0.99769592,0.122070,0.244141,-0.122070
1099210083,0.01292419,0.00079346,-0.99769592,0.061035,0.244141,-0.122070
1104273791,0.01367188,0.00100708,-0.99792480,0.061035,0.244141,-0.122070
1111858000,0.01367188,0.00100708,-0.99792480,0.183105,0.244141,-0.122070
1116916958,0.01229858,0.00102234,-0.99734497,0.183105,0.244141,-0.122070
1119458291,0.01229858,0.00102234,-0.99734497,0.183105,0.122070,-0.183105
1124527500,0.01249695,0.00209045,-0.99729919,0.183105,0.122070,-0.183105
1129593166,0.01249695,0.00209045,-0.99729919,0.000000,0.183105,-0.061035
1134662208,0.01397705,0.00219727,-0.99719238,0.000000,0.183105,-0.061035
1139726916,0.01397705,0.00219727,-0.99719238,0.061035,0.305176,-0.122070
1144783875,0.01304626,0.00099182,-0.99739075,0.061035,0.305176,-0.122070
1149846333,0.01304626,0.00099182,-0.99739075,0.061035,0.244141,-0.183105
1154902375,0.01200867,0.00120544,-0.99766541,0.061035,0.244141,-0.183105
1159971916,0.01200867,0.00120544,-0.99766541,0.000000,0.244141,-0.122070
1165036833,0.01417542,0.00180054,-0.99832153,0.000000,0.244141,-0.122070
1170091583,0.01417542,0.00180054,-0.99832153,0.000000,0.122070,-0.183105
1175168250,0.01425171,0.00187683,-0.99858093,0.000000,0.122070,-0.183105
1180256208,0.01425171,0.00187683,-0.99858093,0.122070,0.183105,-0.061035
1185352125,0.01269531,0.00163269,-0.99775696,0.122070,0.183105,-0.061035
1190437458,0.01269531,0.00163269,-0.99775696,0.061035,0.244141,-0.305176
1195554000,0.01382446,0.00180054,-0.99780273,0.061035,0.244141,-0.305176
1200694291,0.01382446,0.00180054,-0.99780273,0.000000,0.244141,-0.183105
1205744125,0.01339722,0.00164795,-0.99830627,0.000000,0.244141,-0.183105
1210351208,0.01339722,0.00164795,-0.99830627,0.000000,0.244141,-0.122070
1215423041,0.01289368,0.00083923,-0.99856567,0.000000,0.244141,-0.122070
1220581041,0.01289368,0.00083923,-0.99856567,0.061035,0.183105,-0.305176
1225704125,0.01312256,0.00048828,-0.99848938,0.061035,0.183105,-0.305176
1230781750,0.01312256,0.00048828,-0.99848938,0.061035,0.122070,-0.183105
1235847708,0.01371765,0.00122070,-0.99729919,0.061035,0.122070,-0.183105
1240971000,0.01371765,0.00122070,-0.99729919,0.000000,0.305176,-0.122070
1246086791,0.01269531,0.00088501,-0.99855042,0.000000,0.305176,-0.122070
1251178416,0.01269531,0.00088501,-0.99855042,0.000000,0.183105,-0.183105
1256288166,0.01303101,0.00154114,-0.99862671,0.000000,0.183105,-0.183105
1261410000,0.01303101,0.00154114,-0.99862671,0.061035,0.244141,-0.061035
1266474541,0.01232910,0.00119019,-0.99780273,0.061035,0.244141,-0.061035
1271531541,0.01232910,0.00119019,-0.99780273,0.061035,0.061035,-0.244141
1276631083,0.01225281,0.00115967,-0.99790955,0.061035,0.061035,-0.244141
1281768458,0.01225281,0.00115967,-0.99790955,0.122070,0.244141,-0.183105
1284320833,0.01342773,0.00173950,-0.99668884,0.122070,0.244141,-0.183105
1289375375,0.01342773,0.00173950,-0.99668884,-0.061035,0.122070,-0.183105
1294429208,0.01312256,0.00096130,-0.99661255,-0.061035,0.122070,-0.183105
1299517416,0.01312256,0.00096130,-0.99661255,0.244141,0.244141,-0.122070
1304592208,0.01242065,0.00126648,-0.99768066,0.244141,0.244141,-0.122070
1309376708,0.01242065,0.00126648,-0.99768066,0.183105,0.244141,-0.061035
1314456583,0.01260376,0.00205994,-0.99797058,0.183105,0.244141,-0.061035
1319634083,0.01260376,0.00205994,-0.99797058,-0.061035,0.244141,-0.122070
1324758416,0.01289368,0.00149536,-0.99697876,-0.061035,0.244141,-0.122070
1329855250,0.01289368,0.00149536,-0.99697876,0.000000,0.305176,-0.305176
1334924125,0.01290894,0.00155640,-0.99835205,0.000000,0.305176,-0.305176
1339746625,0.01290894,0.00155640,-0.99835205,0.061035,0.183105,-0.244141
1344362625,0.01345825,0.00163269,-0.99862671,0.061035,0.183105,-0.244141
1350958875,0.01345825,0.00163269,-0.99862671,0.183105,0.244141,-0.122070
1356051583,0.01240540,0.00212097,-0.99708557,0.183105,0.244141,-0.122070
1361099458,0.01240540,0.00212097,-0.99708557,0.000000,0.061035,-0.183105
1366137291,0.01223755,0.00221252,-0.99851990,0.000000,0.061035,-0.183105
1371173458,0.01223755,0.00221252,-0.99851990,0.122070,0.122070,-0.061035
1376206375,0.01261902,0.00100708,-0.99787903,0.122070,0.122070,-0.061035
1381247875,0.01261902,0.00100708,-0.99787903,0.061035,0.305176,-0.122070
1386290958,0.01261902,0.00151062,-0.99746704,0.061035,0.305176,-0.122070
1391333416,0.01261902,0.00151062,-0.99746704,0.061035,0.244141,0.000000
1396392125,0.01229858,0.00085449,-0.99844360,0.061035,0.244141,0.000000
1401461916,0.01229858,0.00085449,-0.99844360,0.122070,0.122070,-0.122070
1406535750,0.01199341,0.00131226,-0.99736023,0.122070,0.122070,-0.122070
1411589875,0.01199341,0.00131226,-0.99736023,0.061035,0.305176,-0.183105
1416628041,0.01283264,0.00059509,-0.99798584,0.061035,0.305176,-0.183105
1421676708,0.01283264,0.00059509,-0.99798584,0.061035,0.183105,-0.122070
1426729083,0.01303101,0.00080872,-0.99815369,0.061035,0.183105,-0.122070
1431770791,0.01303101,0.00080872,-0.99815369,0.000000,0.244141,-0.183105
1436830000,0.01226807,0.00180054,-0.99755859,0.000000,0.244141,-0.183105
1441921750,0.01226807,0.00180054,-0.99755859,0.061035,0.122070,-0.244141
1446980083,0.01283264,0.00254822,-0.99812317,0.061035,0.122070,-0.244141
1452084458,0.01283264,0.00254822,-0.99812317,0.061035,0.244141,-0.122070
1457148250,0.01301575,0.00143433,-0.99821472,0.061035,0.244141,-0.122070
1459688166,0.01301575,0.00143433,-0.99821472,0.122070,0.305176,-0.122070
1464744250,0.01216125,0.00183105,-0.99804688,0.122070,0.305176,-0.122070
1471883708,0.01216125,0.00183105,-0.99804688,0.061035,0.061035,-0.122070
1477109458,0.01309204,0.00163269,-0.99787903,0.061035,0.061035,-0.122070
1479873583,0.01309204,0.00163269,-0.99787903,0.183105,0.122070,-0.122070
1484946875,0.01261902,0.00155640,-0.99699402,0.183105,0.122070,-0.122070
1490045541,0.01261902,0.00155640,-0.99699402,0.122070,0.183105,-0.122070
1495132541,0.01235962,0.00210571,-0.99801636,0.122070,0.183105,-0.122070
1500149708,0.01235962,0.00210571,-0.99801636,-0.122070,0.183105,-0.183105
1505213833,0.01260376,0.00202942,-0.99797058,-0.122070,0.183105,-0.183105
1510273500,0.01260376,0.00202942,-0.99797058,0.000000,0.122070,-0.183105
1515337333,0.01258850,0.00149536,-0.99891663,0.000000,0.122070,-0.183105
1520390166,0.01258850,0.00149536,-0.99891663,0.000000,0.122070,-0.122070
1525472291,0.01309204,0.00164795,-0.99769592,0.000000,0.122070,-0.122070
1530185583,0.01309204,0.00164795,-0.99769592,0.122070,0.061035,-0.183105
1535256875,0.01271057,0.00082397,-0.99806213,0.122070,0.061035,-0.183105
1540319791,0.01271057,0.00082397,-0.99806213,0.061035,0.305176,-0.122070
1545381666,0.01342773,0.00061035,-0.99847412,0.061035,0.305176,-0.122070
1550442291,0.01342773,0.00061035,-0.99847412,0.183105,0.122070,-0.183105
1555518041,0.01370239,0.00143433,-0.99766541,0.183105,0.122070,-0.183105
1560599208,0.01370239,0.00143433,-0.99766541,0.061035,0.061035,-0.183105
1565668250,0.01266479,0.00115967,-0.99758911,0.061035,0.061035,-0.183105
1570730750,0.01266479,0.00115967,-0.99758911,0.122070,0.183105,-0.061035
1575792625,0.01242065,0.00178528,-0.99717712,0.122070,0.183105,-0.061035
1580541750,0.01242065,0.00178528,-0.99717712,0.061035,0.244141,-0.244141
1587906750,0.01322937,0.00122070,-0.99783325,0.061035,0.244141,-0.244141
1590446833,0.01322937,0.00122070,-0.99783325,0.061035,0.122070,-0.061035
1595516083,0.01216125,0.00114441,-0.99818420,0.061035,0.122070,-0.061035
1600585166,0.01216125,0.00114441,-0.99818420,0.122070,0.183105,-0.122070
1605669000,0.01303101,0.00167847,-0.99896240,0.122070,0.183105,-0.122070
1610727125,0.01303101,0.00167847,-0.99896240,0.000000,0.183105,-0.061035
1615413375,0.01260376,0.00224304,-0.99771118,0.000000,0.183105,-0.061035
1620550625,0.01260376,0.00224304,-0.99771118,0.000000,0.244141,-0.061035
1625617666,0.01284790,0.00154114,-0.99803162,0.000000,0.244141,-0.061035
1630678125,0.01284790,0.00154114,-0.99803162,0.000000,0.122070,-0.183105
1635733750,0.01368713,0.00186157,-0.99882507,0.000000,0.122070,-0.183105
1640794208,0.01368713,0.00186157,-0.99882507,0.061035,0.305176,-0.061035
1645838708,0.01298523,0.00119019,-0.99765015,0.061035,0.305176,-0.061035
1650892708,0.01298523,0.00119019,-0.99765015,0.061035,0.122070,-0.122070
1655962458,0.01322937,0.00051880,-0.99786377,0.061035,0.122070,-0.122070
1661023666,0.01322937,0.00051880,-0.99786377,0.000000,0.061035,-0.122070
1666083250,0.01335144,0.00138855,-0.99816895,0.000000,0.061035,-0.122070
1671149625,0.01335144,0.00138855,-0.99816895,0.000000,0.305176,-0.183105
1676209166,0.01287842,0.00244141,-0.99879456,0.000000,0.305176,-0.183105
1681305416,0.01287842,0.00244141,-0.99879456,0.061035,0.305176,-0.122070
1686329791,0.01219177,0.00207520,-0.99761963,0.061035,0.305176,-0.122070
1691406125,0.01219177,0.00207520,-0.99761963,0.000000,0.183105,-0.183105
1696526458,0.01322937,0.00054932,-0.99818420,0.000000,0.183105,-0.183105
1701718208,0.01322937,0.00054932,-0.99818420,0.000000,0.244141,-0.122070
1706789958,0.01452637,0.00109863,-0.99850464,0.000000,0.244141,-0.122070
1711861250,0.01452637,0.00109863,-0.99850464,0.000000,0.305176,-0.061035
1716944583,0.01252747,0.00068665,-0.99876404,0.000000,0.305176,-0.061035
1721737000,0.01252747,0.00068665,-0.99876404,0.061035,0.183105,-0.061035
1726798583,0.01173401,0.00175476,-0.99887085,0.061035,0.183105,-0.061035
1731863833,0.01173401,0.00175476,-0.99887085,0.122070,0.183105,-0.122070
1736922791,0.01179504,0.00209045,-0.99853516,0.122070,0.183105,-0.122070
1741970041,0.01179504,0.00209045,-0.99853516,0.061035,0.183105,-0.122070
1747037250,0.01272583,0.00090027,-0.99826050,0.061035,0.183105,-0.122070
1751677708,0.01272583,0.00090027,-0.99826050,0.061035,0.122070,-0.122070
1756759416,0.01313782,0.00169373,-0.99705505,0.061035,0.122070,-0.122070
1761827625,0.01313782,0.00169373,-0.99705505,0.122070,0.305176,-0.122070
1766911958,0.01226807,0.00160217,-0.99841309,0.122070,0.305176,-0.122070
1771986416,0.01226807,0.00160217,-0.99841309,0.061035,0.183105,-0.061035
1777055583,0.01243591,-0.00015259,-0.99894714,0.061035,0.183105,-0.061035
1782113750,0.01243591,-0.00015259,-0.99894714,0.183105,0.244141,-0.061035
1787171250,0.01284790,0.00042725,-0.99827576,0.183105,0.244141,-0.061035
1792230750,0.01284790,0.00042725,-0.99827576,0.061035,0.244141,-0.122070
1797308958,0.01210022,0.00099182,-0.99838257,0.061035,0.244141,-0.122070
1802384333,0.01210022,0.00099182,-0.99838257,0.061035,0.183105,-0.122070
1807228458,0.01222229,0.00155640,-0.99748230,0.061035,0.183105,-0.122070
1812292458,0.01222229,0.00155640,-0.99748230,0.000000,0.183105,0.000000
1817110291,0.01271057,0.00180054,-0.99678040,0.000000,0.183105,0.000000
1822177666,0.01271057,0.00180054,-0.99678040,0.061035,0.122070,-0.244141
1827244166,0.01385498,0.00144958,-0.99783325,0.061035,0.122070,-0.244141
1832336208,0.01385498,0.00144958,-0.99783325,0.122070,0.183105,-0.122070
1837417833,0.01338196,0.00175476,-0.99916077,0.122070,0.183105,-0.122070
1842508250,0.01338196,0.00175476,-0.99916077,-0.061035,0.000000,-0.122070
1847597083,0.01251221,0.00248718,-0.99745178,-0.061035,0.000000,-0.122070
1852669916,0.01251221,0.00248718,-0.99745178,0.061035,0.122070,-0.183105
1857752500,0.01358032,0.00241089,-0.99737549,0.061035,0.122070,-0.183105
1862801375,0.01358032,0.00241089,-0.99737549,0.000000,0.244141,-0.122070
1867893000,0.01358032,0.00143433,-0.99740601,0.000000,0.244141,-0.122070
1873036625,0.01358032,0.00143433,-0.99740601,0.000000,0.305176,-0.244141
1875598041,0.01315308,0.00109863,-0.99832153,0.000000,0.305176,-0.244141
1882780916,0.01315308,0.00109863,-0.99832153,0.061035,0.305176,-0.061035
1887878958,0.01268005,0.00047302,-0.99810791,0.061035,0.305176,-0.061035
1892962250,0.01268005,0.00047302,-0.99810791,0.061035,0.305176,-0.183105
1898032208,0.01174927,0.00065613,-0.99806213,0.061035,0.305176,-0.183105
1900578750,0.01174927,0.00065613,-0.99806213,0.061035,0.183105,-0.183105
1905670000,0.01159668,0.00067139,-0.99858093,0.061035,0.183105,-0.183105
1910733083,0.01159668,0.00067139,-0.99858093,0.122070,0.122070,-0.244141
1915793958,0.01281738,0.00128174,-0.99774170,0.122070,0.122070,-0.244141
1920852833,0.01281738,0.00128174,-0.99774170,0.000000,0.244141,-0.122070
1925981083,0.01211548,0.00154114,-0.99754333,0.000000,0.244141,-0.122070
1931049458,0.01211548,0.00154114,-0.99754333,0.061035,0.122070,-0.061035
1936112125,0.01164246,0.00151062,-0.99807739,0.061035,0.122070,-0.061035
1941203666,0.01164246,0.00151062,-0.99807739,0.000000,0.183105,-0.122070
1946274041,0.01229858,0.00199890,-0.99830627,0.000000,0.183105,-0.122070
1951334708,0.01229858,0.00199890,-0.99830627,0.000000,0.244141,-0.244141
1956404458,0.01261902,0.00173950,-0.99885559,0.000000,0.244141,-0.244141
1961460791,0.01261902,0.00173950,-0.99885559,-0.061035,0.244141,0.000000
1966526666,0.01211548,0.00173950,-0.99858093,-0.061035,0.244141,0.000000
1971590916,0.01211548,0.00173950,-0.99858093,0.183105,0.183105,-0.061035
1976703208,0.01222229,0.00184631,-0.99703979,0.183105,0.183105,-0.061035
1981763250,0.01222229,0.00184631,-0.99703979,0.000000,0.122070,-0.183105
1986828333,0.01225281,0.00138855,-0.99794006,0.000000,0.122070,-0.183105
1991900708,0.01225281,0.00138855,-0.99794006,0.122070,0.183105,0.000000
1996979416,0.01261902,0.00170898,-0.99864197,0.122070,0.183105,0.000000
2002052166,0.01261902,0.00170898,-0.99864197,0.061035,0.183105,-0.122070
2007110541,0.01277161,0.00108337,-0.99757385,0.061035,0.183105,-0.122070
2012167958,0.01277161,0.00108337,-0.99757385,0.061035,0.122070,-0.061035
2017248541,0.01313782,0.00030518,-0.99713135,0.061035,0.122070,-0.061035
2022313375,0.01313782,0.00030518,-0.99713135,0.122070,0.183105,-0.061035
2027393958,0.01303101,0.00103760,-0.99757385,0.122070,0.183105,-0.061035
2032457000,0.01303101,0.00103760,-0.99757385,0.061035,0.183105,-0.122070
2037518125,0.01315308,0.00102234,-0.99688721,0.061035,0.183105,-0.122070
2042574916,0.01315308,0.00102234,-0.99688721,0.061035,0.183105,-0.183105
2047264708,0.01278687,0.00163269,-0.99775696,0.061035,0.183105,-0.183105
2052321833,0.01278687,0.00163269,-0.99775696,-0.122070,0.305176,-0.061035
2057381583,0.01235962,0.00241089,-0.99877930,-0.122070,0.305176,-0.061035
2062441208,0.01235962,0.00241089,-0.99877930,0.122070,0.244141,-0.061035
2067497791,0.01260376,0.00173950,-0.99794006,0.122070,0.244141,-0.061035
2072563166,0.01260376,0.00173950,-0.99794006,0.061035,0.183105,-0.061035
2077648041,0.01318359,0.00115967,-0.99732971,0.061035,0.183105,-0.061035
2082719916,0.01318359,0.00115967,-0.99732971,0.061035,0.244141,-0.244141
2087789958,0.01258850,0.00224304,-0.99813843,0.061035,0.244141,-0.244141
2092847666,0.01258850,0.00224304,-0.99813843,0.061035,0.244141,-0.122070
2097905875,0.01274109,0.00180054,-0.99833679,0.061035,0.244141,-0.122070
2102983708,0.01274109,0.00180054,-0.99833679,0.061035,0.244141,-0.183105
2108053125,0.01342773,0.00120544,-0.99703979,0.061035,0.244141,-0.183105
2113108625,0.01342773,0.00120544,-0.99703979,0.000000,0.122070,-0.183105
2118172416,0.01283264,0.00131226,-0.99775696,0.000000,0.122070,-0.183105
2123251875,0.01283264,0.00131226,-0.99775696,-0.183105,0.061035,-0.183105
2128310166,0.01235962,0.00155640,-0.99771118,-0.183105,0.061035,-0.183105
2133368083,0.01235962,0.00155640,-0.99771118,0.061035,0.183105,-0.122070
2138426041,0.01271057,0.00167847,-0.99797058,0.061035,0.183105,-0.122070
2143491458,0.01271057,0.00167847,-0.99797058,0.183105,0.305176,0.000000
2148579083,0.01296997,0.00141907,-0.99780273,0.183105,0.305176,0.000000
2153656083,0.01296997,0.00141907,-0.99780273,0.061035,0.183105,-0.183105
2158717250,0.01222229,0.00068665,-0.99850464,0.061035,0.183105,-0.183105
2163774083,0.01222229,0.00068665,-0.99850464,0.000000,0.061035,0.000000
2168859750,0.01170349,0.00073242,-0.99809265,0.000000,0.061035,0.000000
2171450041,0.01170349,0.00073242,-0.99809265,0.000000,0.183105,-0.061035
2176512125,0.01188660,0.00086975,-0.99797058,0.000000,0.183105,-0.061035
2181574625,0.01188660,0.00086975,-0.99797058,-0.061035,0.244141,-0.183105
2186652875,0.01123047,0.00076294,-0.99693298,-0.061035,0.244141,-0.183105
2191713291,0.01123047,0.00076294,-0.99693298,0.061035,0.244141,-0.061035
2196793333,0.01280212,0.00047302,-0.99824524,0.061035,0.244141,-0.061035
2201746625,0.01280212,0.00047302,-0.99824524,0.000000,0.061035,-0.244141
2206815000,0.01176453,0.00199890,-0.99787903,0.000000,0.061035,-0.244141
2211890791,0.01176453,0.00199890,-0.99787903,0.000000,0.244141,-0.244141
2216964500,0.01338196,0.00169373,-0.99790955,0.000000,0.244141,-0.244141
2222027625,0.01338196,0.00169373,-0.99790955,0.122070,0.183105,-0.183105
2227088666,0.01274109,0.00160217,-0.99745178,0.122070,0.183105,-0.183105
2232154750,0.01274109,0.00160217,-0.99745178,0.000000,0.183105,-0.122070
2237210875,0.01280212,0.00161743,-0.99816895,0.000000,0.183105,-0.122070
2242313958,0.01280212,0.00161743,-0.99816895,0.183105,0.122070,-0.061035
2247373708,0.01213074,0.00199890,-0.99870300,0.183105,0.122070,-0.061035
2252459375,0.01213074,0.00199890,-0.99870300,0.061035,0.305176,0.000000
2257543291,0.01220703,0.00131226,-0.99789429,0.061035,0.305176,0.000000
2262631208,0.01220703,0.00131226,-0.99789429,0.000000,0.244141,-0.183105
2267696291,0.01258850,0.00138855,-0.99798584,0.000000,0.244141,-0.183105
2272762125,0.01258850,0.00138855,-0.99798584,0.061035,0.183105,-0.183105
2277832208,0.01194763,0.00190735,-0.99792480,0.061035,0.183105,-0.183105
2282904666,0.01194763,0.00190735,-0.99792480,0.122070,0.122070,-0.183105
2287969083,0.01231384,0.00161743,-0.99838257,0.122070,0.122070,-0.183105
2293038791,0.01231384,0.00161743,-0.99838257,0.122070,0.244141,-0.122070
2298093833,0.01327515,0.00140381,-0.99757385,0.122070,0.244141,-0.122070
2303153375,0.01327515,0.00140381,-0.99757385,0.061035,0.305176,-0.244141
2308230208,0.01330566,0.00045776,-0.99812317,0.061035,0.305176,-0.244141
2313312750,0.01330566,0.00045776,-0.99812317,0.061035,0.305176,-0.183105
2318371083,0.01313782,0.00109863,-0.99780273,0.061035,0.305176,-0.183105
2323442500,0.01313782,0.00109863,-0.99780273,0.000000,0.183105,-0.122070
2328516916,0.01364136,0.00233459,-0.99826050,0.000000,0.183105,-0.122070
2333586291,0.01364136,0.00233459,-0.99826050,0.061035,0.122070,-0.183105
2338655083,0.01295471,0.00210571,-0.99771118,0.061035,0.122070,-0.183105
2343713041,0.01295471,0.00210571,-0.99771118,0.061035,0.244141,0.000000
2348767958,0.01281738,0.00221252,-0.99693298,0.061035,0.244141,0.000000
2353827333,0.01281738,0.00221252,-0.99693298,0.000000,0.183105,-0.183105
2358890000,0.01287842,0.00051880,-0.99824524,0.000000,0.183105,-0.183105
2364024125,0.01287842,0.00051880,-0.99824524,0.061035,0.366211,-0.061035
2369091041,0.01206970,0.00097656,-0.99876404,0.061035,0.366211,-0.061035
2371627791,0.01206970,0.00097656,-0.99876404,0.061035,0.061035,-0.183105
2376710833,0.01203918,0.00175476,-0.99822998,0.061035,0.061035,-0.183105
2381775208,0.01203918,0.00175476,-0.99822998,0.000000,0.122070,-0.122070
2386852458,0.01281738,0.00170898,-0.99761963,0.000000,0.122070,-0.122070
2391951458,0.01281738,0.00170898,-0.99761963,0.061035,0.305176,0.000000
2397008208,0.01239014,0.00119019,-0.99737549,0.061035,0.305176,0.000000
2402067708,0.01239014,0.00119019,-0.99737549,0.183105,0.183105,-0.122070
2407129166,0.01341248,0.00198364,-0.99720764,0.183105,0.183105,-0.122070
2412183333,0.01341248,0.00198364,-0.99720764,0.122070,0.244141,-0.122070
2417252041,0.01345825,0.00207520,-0.99905396,0.122070,0.244141,-0.122070
2422316041,0.01345825,0.00207520,-0.99905396,0.061035,0.183105,-0.122070
2427383916,0.01203918,0.00192261,-0.99815369,0.061035,0.183105,-0.122070
2432452333,0.01203918,0.00192261,-0.99815369,-0.061035,0.305176,-0.061035
2437093125,0.01290894,0.00173950,-0.99812317,-0.061035,0.305176,-0.061035
2442169625,0.01290894,0.00173950,-0.99812317,0.122070,0.305176,-0.244141
2447231916,0.01246643,0.00141907,-0.99754333,0.122070,0.305176,-0.244141
2452311291,0.01246643,0.00141907,-0.99754333,0.122070,0.183105,-0.183105
2457379791,0.01301575,0.00146484,-0.99742126,0.122070,0.183105,-0.183105
2462436166,0.01301575,0.00146484,-0.99742126,0.183105,0.366211,-0.061035
2467538250,0.01226807,0.00166321,-0.99884033,0.183105,0.366211,-0.061035
2472603583,0.01226807,0.00166321,-0.99884033,0.000000,0.183105,-0.122070
2477684541,0.01179504,0.00170898,-0.99862671,0.000000,0.183105,-0.122070
2482753250,0.01179504,0.00170898,-0.99862671,0.000000,0.122070,-0.122070
2487872583,0.01255798,0.00102234,-0.99667358,0.000000,0.122070,-0.122070
2492935041,0.01255798,0.00102234,-0.99667358,-0.061035,0.122070,-0.122070
2498015666,0.01307678,0.00120544,-0.99786377,-0.061035,0.122070,-0.122070
2503080666,0.01307678,0.00120544,-0.99786377,0.061035,0.183105,-0.122070
2508138583,0.01269531,0.00117493,-0.99743652,0.061035,0.183105,-0.122070
2513211750,0.01269531,0.00117493,-0.99743652,0.122070,0.244141,-0.122070
2518304083,0.01364136,0.00082397,-0.99745178,0.122070,0.244141,-0.122070
2523425458,0.01364136,0.00082397,-0.99745178,0.000000,0.305176,-0.122070
2528490833,0.01359558,0.00070190,-0.99792480,0.000000,0.305176,-0.122070
2533561708,0.01359558,0.00070190,-0.99792480,0.061035,0.305176,-0.122070
2538625500,0.01182556,0.00230408,-0.99653625,0.061035,0.305176,-0.122070
2543280166,0.01182556,0.00230408,-0.99653625,0.122070,0.183105,-0.183105
2548369125,0.01194763,0.00193787,-0.99850464,0.122070,0.183105,-0.183105
2553048458,0.01194763,0.00193787,-0.99850464,0.000000,0.122070,-0.061035
2558106291,0.01237488,0.00196838,-0.99778748,0.000000,0.122070,-0.061035
2563224041,0.01237488,0.00196838,-0.99778748,0.061035,0.183105,-0.122070
2568323250,0.01293945,0.00154114,-0.99760437,0.061035,0.183105,-0.122070
2573399166,0.01293945,0.00154114,-0.99760437,0.122070,0.244141,-0.183105
2578472291,0.01272583,0.00097656,-0.99641418,0.122070,0.244141,-0.183105
2583531583,0.01272583,0.00097656,-0.99641418,0.061035,0.305176,-0.122070
2588602666,0.01252747,0.00112915,-0.99752808,0.061035,0.305176,-0.122070
2593694500,0.01252747,0.00112915,-0.99752808,0.122070,0.244141,0.000000
2598407666,0.01237488,0.00071716,-0.99745178,0.122070,0.244141,0.000000
2603486875,0.01237488,0.00071716,-0.99745178,0.000000,0.366211,-0.122070
2608552500,0.01249695,0.00143433,-0.99807739,0.000000,0.366211,-0.122070
2613628875,0.01249695,0.00143433,-0.99807739,-0.061035,0.061035,-0.122070
2618263625,0.01335144,0.00154114,-0.99850464,-0.061035,0.061035,-0.122070
2623407916,0.01335144,0.00154114,-0.99850464,0.122070,0.244141,-0.122070
2628500291,0.01330566,0.00167847,-0.99839783,0.122070,0.244141,-0.122070
2633566791,0.01330566,0.00167847,-0.99839783,0.000000,0.183105,-0.244141
2638627833,0.01271057,0.00117493,-0.99734497,0.000000,0.183105,-0.244141
2643696500,0.01271057,0.00117493,-0.99734497,-0.122070,0.183105,-0.122070
2648755791,0.01350403,0.00213623,-0.99821472,-0.122070,0.183105,-0.122070
2653813916,0.01350403,0.00213623,-0.99821472,0.061035,0.122070,-0.122070
2658891791,0.01277161,0.00180054,-0.99809265,0.061035,0.122070,-0.122070
2663977625,0.01277161,0.00180054,-0.99809265,0.061035,0.183105,-0.122070
2669054125,0.01219177,0.00039673,-0.99813843,0.061035,0.183105,-0.122070
2674111000,0.01219177,0.00039673,-0.99813843,0.000000,0.183105,-0.122070
2679168958,0.01249695,0.00146484,-0.99728394,0.000000,0.183105,-0.122070
2684269708,0.01249695,0.00146484,-0.99728394,0.061035,0.183105,-0.183105
2689344291,0.01296997,0.00119019,-0.99771118,0.061035,0.183105,-0.183105
2694177458,0.01296997,0.00119019,-0.99771118,0.061035,0.122070,-0.183105
2699236041,0.01293945,0.00157166,-0.99801636,0.061035,0.122070,-0.183105
2704296708,0.01293945,0.00157166,-0.99801636,0.183105,0.122070,-0.061035
2709417250,0.01336670,0.00105286,-0.99874878,0.183105,0.122070,-0.061035
2714489875,0.01336670,0.00105286,-0.99874878,0.122070,0.305176,-0.061035
2719557041,0.01292419,0.00111389,-0.99815369,0.122070,0.305176,-0.061035
2724612041,0.01292419,0.00111389,-0.99815369,0.061035,0.244141,-0.061035
2729669458,0.01364136,0.00161743,-0.99813843,0.061035,0.244141,-0.061035
2734742875,0.01364136,0.00161743,-0.99813843,0.061035,0.183105,-0.061035
2739839333,0.01255798,0.00155640,-0.99794006,0.061035,0.183105,-0.061035
2742427375,0.01255798,0.00155640,-0.99794006,0.122070,0.366211,-0.183105
2747496875,0.01260376,0.00129700,-0.99740601,0.122070,0.366211,-0.183105
2752559250,0.01260376,0.00129700,-0.99740601,0.122070,0.244141,-0.122070
2757626250,0.01228333,0.00190735,-0.99803162,0.122070,0.244141,-0.122070
2762694500,0.01228333,0.00190735,-0.99803162,0.000000,0.305176,0.061035
2767759541,0.01170349,0.00126648,-0.99757385,0.000000,0.305176,0.061035
2772837416,0.01170349,0.00126648,-0.99757385,-0.122070,0.061035,-0.122070
2777914333,0.01263428,0.00088501,-0.99807739,-0.122070,0.061035,-0.122070
2782973750,0.01263428,0.00088501,-0.99807739,0.061035,0.244141,0.000000
2788038958,0.01138306,0.00091553,-0.99794006,0.061035,0.244141,0.000000
2793097625,0.01138306,0.00091553,-0.99794006,0.244141,0.183105,-0.061035
2798157666,0.01222229,0.00122070,-0.99847412,0.244141,0.183105,-0.061035
2803217625,0.01222229,0.00122070,-0.99847412,0.000000,0.305176,-0.305176
2808276833,0.01210022,0.00132751,-0.99865723,0.000000,0.305176,-0.305176
2813337291,0.01210022,0.00132751,-0.99865723,0.000000,0.061035,-0.061035
2818407625,0.01232910,0.00115967,-0.99743652,0.000000,0.061035,-0.061035
2823491833,0.01232910,0.00115967,-0.99743652,0.000000,0.183105,-0.183105
2828561250,0.01391602,0.00115967,-0.99697876,0.000000,0.183105,-0.183105
2833248208,0.01391602,0.00115967,-0.99697876,0.061035,0.305176,-0.122070
2838322375,0.01313782,0.00067139,-0.99859619,0.061035,0.305176,-0.122070
2843392041,0.01313782,0.00067139,-0.99859619,0.061035,0.366211,-0.122070
2848471083,0.01152039,0.00109863,-0.99769592,0.061035,0.366211,-0.122070
2853536625,0.01152039,0.00109863,-0.99769592,-0.061035,0.244141,-0.183105
2858600333,0.01248169,0.00149536,-0.99877930,-0.061035,0.244141,-0.183105
2863660166,0.01248169,0.00149536,-0.99877930,0.000000,0.244141,-0.122070
2868269125,0.01274109,0.00135803,-0.99769592,0.000000,0.244141,-0.122070
2873337750,0.01274109,0.00135803,-0.99769592,0.122070,0.244141,-0.061035
2878402291,0.01350403,0.00109863,-0.99725342,0.122070,0.244141,-0.061035
2883460291,0.01350403,0.00109863,-0.99725342,0.061035,0.183105,-0.061035
2888510083,0.01325989,0.00190735,-0.99810791,0.061035,0.183105,-0.061035
2893569583,0.01325989,0.00190735,-0.99810791,0.061035,0.183105,-0.183105
2898692791,0.01286316,0.00196838,-0.99769592,0.061035,0.183105,-0.183105
2903663708,0.01286316,0.00196838,-0.99769592,0.061035,0.183105,-0.183105
2908740375,0.01269531,0.00164795,-0.99812317,0.061035,0.183105,-0.183105
2913798916,0.01269531,0.00164795,-0.99812317,0.061035,0.305176,-0.061035
2918411250,0.01264954,0.00225830,-0.99816895,0.061035,0.305176,-0.061035
2923490333,0.01264954,0.00225830,-0.99816895,0.000000,0.366211,0.000000
2928549333,0.01307678,0.00210571,-0.99713135,0.000000,0.366211,0.000000
2933628333,0.01307678,0.00210571,-0.99713135,0.183105,0.366211,-0.061035
2938704708,0.01240540,0.00189209,-0.99768066,0.183105,0.366211,-0.061035
2943771500,0.01240540,0.00189209,-0.99768066,0.122070,0.183105,-0.061035
2948883208,0.01293945,0.00157166,-0.99726868,0.122070,0.183105,-0.061035
2953980583,0.01293945,0.00157166,-0.99726868,0.000000,0.183105,-0.122070
2958931708,0.01176453,0.00181580,-0.99787903,0.000000,0.183105,-0.122070
2964061958,0.01176453,0.00181580,-0.99787903,0.122070,0.244141,-0.061035
2969144791,0.01234436,0.00192261,-0.99653625,0.122070,0.244141,-0.061035
2974217291,0.01234436,0.00192261,-0.99653625,0.183105,0.366211,-0.122070
2979276041,0.01226807,0.00099182,-0.99783325,0.183105,0.366211,-0.122070
2984350541,0.01226807,0.00099182,-0.99783325,0.061035,0.305176,-0.122070
2989423083,0.01333618,0.00112915,-0.99707031,0.061035,0.305176,-0.122070
2994492916,0.01333618,0.00112915,-0.99707031,0.122070,0.183105,-0.122070
2999558000,0.01315308,0.00097656,-0.99691772,0.122070,0.183105,-0.122070
3004619500,0.01315308,0.00097656,-0.99691772,0.122070,0.244141,-0.122070
3009677458,0.01219177,0.00077820,-0.99757385,0.122070,0.244141,-0.122070
3014734916,0.01219177,0.00077820,-0.99757385,0.061035,0.305176,-0.183105
3019542416,0.01303101,0.00102234,-0.99795532,0.061035,0.305176,-0.183105
3024602041,0.01303101,0.00102234,-0.99795532,0.000000,0.183105,-0.183105
3029671625,0.01338196,0.00114441,-0.99913025,0.000000,0.183105,-0.183105
3034731875,0.01338196,0.00114441,-0.99913025,0.000000,0.183105,-0.122070
3039790500,0.01258850,0.00006104,-0.99713135,0.000000,0.183105,-0.122070
3044870291,0.01258850,0.00006104,-0.99713135,0.000000,0.061035,-0.122070
3049959041,0.01321411,0.00079346,-0.99746704,0.000000,0.061035,-0.122070
3055020000,0.01321411,0.00079346,-0.99746704,0.061035,0.244141,-0.061035
3060075916,0.01303101,0.00169373,-0.99806213,0.061035,0.244141,-0.061035
3065133583,0.01303101,0.00169373,-0.99806213,0.061035,0.305176,-0.244141
3070191125,0.01278687,0.00132751,-0.99763489,0.061035,0.305176,-0.244141
3075249166,0.01278687,0.00132751,-0.99763489,0.061035,0.183105,-0.122070
3080305958,0.01318359,0.00149536,-0.99833679,0.061035,0.183105,-0.122070
3085365583,0.01318359,0.00149536,-0.99833679,0.061035,0.183105,-0.122070
3090435750,0.01365662,0.00207520,-0.99806213,0.061035,0.183105,-0.122070
3095370250,0.01365662,0.00207520,-0.99806213,0.122070,0.061035,-0.122070
3100432375,0.01196289,0.00218201,-0.99829102,0.122070,0.061035,-0.122070
3105497500,0.01196289,0.00218201,-0.99829102,0.061035,0.122070,-0.122070
3110575041,0.01242065,0.00204468,-0.99697876,0.061035,0.122070,-0.122070
3115636500,0.01242065,0.00204468,-0.99697876,0.061035,0.244141,-0.061035
3120726500,0.01321411,0.00117493,-0.99838257,0.061035,0.244141,-0.061035
3125813958,0.01321411,0.00117493,-0.99838257,0.061035,0.244141,-0.122070
3128390041,0.01295471,0.00193787,-0.99787903,0.061035,0.244141,-0.122070
3133450916,0.01295471,0.00193787,-0.99787903,0.061035,0.244141,-0.122070
3138513916,0.01257324,0.00119019,-0.99737549,0.061035,0.244141,-0.122070
3143572041,0.01257324,0.00119019,-0.99737549,-0.061035,0.183105,0.000000
3148692333,0.01257324,0.00093079,-0.99699402,-0.061035,0.183105,0.000000
3153762083,0.01257324,0.00093079,-0.99699402,0.000000,0.183105,-0.183105
3158828625,0.01368713,0.00077820,-0.99699402,0.000000,0.183105,-0.183105
3163892208,0.01368713,0.00077820,-0.99699402,0.000000,0.122070,-0.061035
3168779583,0.01287842,0.00054932,-0.99743652,0.000000,0.122070,-0.061035
3173838666,0.01287842,0.00054932,-0.99743652,0.061035,0.244141,-0.061035
3178904000,0.01242065,0.00138855,-0.99835205,0.061035,0.244141,-0.061035
3183975833,0.01242065,0.00138855,-0.99835205,0.122070,0.122070,-0.183105
3189022500,0.01222229,0.00086975,-0.99809265,0.122070,0.122070,-0.183105
3193929666,0.01222229,0.00086975,-0.99809265,-0.061035,0.305176,-0.122070
3198968916,0.01271057,0.00138855,-0.99829102,-0.061035,0.305176,-0.122070
3204013083,0.01271057,0.00138855,-0.99829102,0.000000,0.244141,-0.122070
3209068000,0.01252747,0.00117493,-0.99784851,0.000000,0.244141,-0.122070
3214101833,0.01252747,0.00117493,-0.99784851,0.061035,0.244141,-0.061035
3219148583,0.01260376,0.00137329,-0.99734497,0.061035,0.244141,-0.061035
3224224375,0.01260376,0.00137329,-0.99734497,0.122070,0.244141,-0.122070
3228941041,0.01264954,0.00172424,-0.99816895,0.122070,0.244141,-0.122070
3234006375,0.01264954,0.00172424,-0.99816895,0.000000,0.183105,-0.122070
3239071541,0.01275635,0.00112915,-0.99839783,0.000000,0.183105,-0.122070
3244133083,0.01275635,0.00112915,-0.99839783,0.061035,0.244141,-0.122070
3249191416,0.01367188,0.00146484,-0.99890137,0.061035,0.244141,-0.122070
3254254250,0.01367188,0.00146484,-0.99890137,0.000000,0.183105,-0.244141
3259320791,0.01289368,0.00096130,-0.99742126,0.000000,0.183105,-0.244141
3264266125,0.01289368,0.00096130,-0.99742126,0.122070,0.061035,-0.122070
3269332125,0.01319885,0.00210571,-0.99743652,0.122070,0.061035,-0.122070
3274394666,0.01319885,0.00210571,-0.99743652,0.061035,0.305176,-0.183105
3279467166,0.01435852,0.00134277,-0.99816895,0.061035,0.305176,-0.183105
3284560083,0.01435852,0.00134277,-0.99816895,0.000000,0.244141,-0.061035
3289625291,0.01313782,0.00126648,-0.99772644,0.000000,0.244141,-0.061035
3294683541,0.01313782,0.00126648,-0.99772644,0.061035,0.122070,-0.122070
3299742208,0.01336670,0.00210571,-0.99801636,0.061035,0.122070,-0.122070
3304879875,0.01336670,0.00210571,-0.99801636,0.183105,0.244141,-0.061035
3309966625,0.01281738,0.00244141,-0.99755859,0.183105,0.244141,-0.061035
3315031833,0.01281738,0.00244141,-0.99755859,0.000000,0.244141,-0.122070
3320104291,0.01223755,0.00117493,-0.99746704,0.000000,0.244141,-0.122070
3325168083,0.01223755,0.00117493,-0.99746704,0.061035,0.305176,-0.244141
3330240458,0.01193237,0.00122070,-0.99745178,0.061035,0.305176,-0.244141
3335311541,0.01193237,0.00122070,-0.99745178,0.000000,0.244141,-0.122070
3340388958,0.01333618,0.00054932,-0.99838257,0.000000,0.244141,-0.122070
3345454166,0.01333618,0.00054932,-0.99838257,0.000000,0.183105,-0.183105
3350517583,0.01290894,0.00041199,-0.99742126,0.000000,0.183105,-0.183105
3355582916,0.01290894,0.00041199,-0.99742126,0.000000,0.122070,-0.122070
3360637291,0.01283264,0.00170898,-0.99708557,0.000000,0.122070,-0.122070
3365703875,0.01283264,0.00170898,-0.99708557,0.122070,0.183105,-0.061035
3370764791,0.01211548,0.00230408,-0.99795532,0.122070,0.183105,-0.061035
3375824875,0.01211548,0.00230408,-0.99795532,0.061035,0.183105,-0.244141
3380891666,0.01269531,0.00141907,-0.99734497,0.061035,0.183105,-0.244141
3385951166,0.01269531,0.00141907,-0.99734497,0.061035,0.122070,-0.183105
3391017250,0.01275635,0.00189209,-0.99778748,0.061035,0.122070,-0.183105
3396134458,0.01275635,0.00189209,-0.99778748,0.122070,0.122070,-0.244141
3401192791,0.01322937,0.00196838,-0.99783325,0.122070,0.122070,-0.244141
3406315333,0.01322937,0.00196838,-0.99783325,0.183105,0.305176,0.000000
3408855416,0.01229858,0.00215149,-0.99755859,0.183105,0.305176,0.000000
3413916625,0.01229858,0.00215149,-0.99755859,0.000000,0.122070,-0.122070
3418974333,0.01234436,0.00166321,-0.99832153,0.000000,0.122070,-0.122070
3423802625,0.01234436,0.00166321,-0.99832153,0.122070,0.122070,-0.183105
3428876166,0.01344299,0.00131226,-0.99795532,0.122070,0.122070,-0.183105
3433957791,0.01344299,0.00131226,-0.99795532,0.000000,0.122070,-0.122070
3439031458,0.01329041,0.00178528,-0.99780273,0.000000,0.122070,-0.122070
3444103958,0.01329041,0.00178528,-0.99780273,0.244141,0.305176,0.000000
3451694083,0.01232910,0.00103760,-0.99775696,0.244141,0.305176,0.000000
3456750250,0.01232910,0.00103760,-0.99775696,0.183105,0.183105,-0.122070
3461806250,0.01251221,0.00109863,-0.99816895,0.183105,0.183105,-0.122070
3466878750,0.01251221,0.00109863,-0.99816895,0.061035,0.122070,-0.122070
3469410958,0.01252747,0.00126648,-0.99827576,0.061035,0.122070,-0.122070
3474468333,0.01252747,0.00126648,-0.99827576,0.122070,0.305176,0.000000
3479527541,0.01307678,0.00117493,-0.99714661,0.122070,0.305176,0.000000
3484592250,0.01307678,0.00117493,-0.99714661,0.122070,0.244141,-0.061035
3489590000,0.01377869,0.00186157,-0.99719238,0.122070,0.244141,-0.061035
3494672208,0.01377869,0.00186157,-0.99719238,0.000000,0.183105,-0.122070
3499741750,0.01290894,0.00154114,-0.99731445,0.000000,0.183105,-0.122070
3504803625,0.01290894,0.00154114,-0.99731445,0.000000,0.183105,-0.061035
3509882958,0.01185608,0.00143433,-0.99732971,0.000000,0.183105,-0.061035
3514949375,0.01185608,0.00143433,-0.99732971,0.000000,0.122070,-0.061035
3520031625,0.01254272,0.00170898,-0.99700928,0.000000,0.122070,-0.061035
3525099125,0.01254272,0.00170898,-0.99700928,0.061035,0.244141,-0.061035
3530176250,0.01257324,0.00120544,-0.99861145,0.061035,0.244141,-0.061035
3535267791,0.01257324,0.00120544,-0.99861145,0.122070,0.305176,-0.122070
3540340791,0.01338196,0.00155640,-0.99771118,0.122070,0.305176,-0.122070
3545407416,0.01338196,0.00155640,-0.99771118,0.061035,0.244141,0.000000
3550459833,0.01208496,0.00175476,-0.99684143,0.061035,0.244141,0.000000
3555516750,0.01208496,0.00175476,-0.99684143,-0.061035,0.122070,-0.061035
3560577208,0.01191711,0.00215149,-0.99775696,-0.061035,0.122070,-0.061035
3565644833,0.01191711,0.00215149,-0.99775696,0.000000,0.183105,-0.061035
3570705958,0.01292419,0.00195312,-0.99847412,0.000000,0.183105,-0.061035
3575764083,0.01292419,0.00195312,-0.99847412,0.122070,0.061035,-0.061035
3581065958,0.01318359,0.00190735,-0.99717712,0.122070,0.061035,-0.061035
3586172625,0.01318359,0.00190735,-0.99717712,0.122070,0.122070,-0.183105
3591254958,0.01333618,0.00151062,-0.99789429,0.122070,0.122070,-0.183105
3596328000,0.01333618,0.00151062,-0.99789429,0.122070,0.244141,0.000000
3601389250,0.01345825,0.00134277,-0.99790955,0.122070,0.244141,0.000000
3606530291,0.01345825,0.00134277,-0.99790955,0.061035,0.244141,-0.061035
3611586875,0.01332092,0.00088501,-0.99639893,0.061035,0.244141,-0.061035
3616678916,0.01332092,0.00088501,-0.99639893,0.000000,0.122070,-0.183105
3621838000,0.01284790,0.00123596,-0.99766541,0.000000,0.122070,-0.183105
3624410166,0.01284790,0.00123596,-0.99766541,0.000000,0.244141,-0.122070
3629472291,0.01232910,0.00152588,-0.99769592,0.000000,0.244141,-0.122070
3634539916,0.01232910,0.00152588,-0.99769592,0.122070,0.244141,-0.122070
3639598833,0.01353455,0.00051880,-0.99650574,0.122070,0.244141,-0.122070
3644667166,0.01353455,0.00051880,-0.99650574,0.122070,0.183105,0.000000
3649724875,0.01373291,0.00115967,-0.99745178,0.122070,0.183105,0.000000
3654792750,0.01373291,0.00115967,-0.99745178,0.000000,0.305176,-0.183105
3659849375,0.01275635,0.00077820,-0.99734497,0.000000,0.305176,-0.183105
3664909291,0.01275635,0.00077820,-0.99734497,0.061035,0.244141,0.000000
3669968125,0.01295471,0.00097656,-0.99777222,0.061035,0.244141,0.000000
3675042791,0.01295471,0.00097656,-0.99777222,0.000000,0.183105,-0.183105
3680099958,0.01332092,0.00090027,-0.99931335,0.000000,0.183105,-0.183105
3685162458,0.01332092,0.00090027,-0.99931335,0.061035,0.305176,-0.244141
3690224083,0.01312256,0.00177002,-0.99761963,0.061035,0.305176,-0.244141
3694884208,0.01312256,0.00177002,-0.99761963,0.000000,0.305176,-0.122070
3699973166,0.01278687,0.00250244,-0.99841309,0.000000,0.305176,-0.122070
3705038708,0.01278687,0.00250244,-0.99841309,0.122070,0.183105,-0.122070
3710095375,0.01264954,0.00178528,-0.99868774,0.122070,0.183105,-0.122070
3715152500,0.01264954,0.00178528,-0.99868774,0.061035,0.305176,-0.183105
3720209250,0.01257324,0.00184631,-0.99757385,0.061035,0.305176,-0.183105
3725268416,0.01257324,0.00184631,-0.99757385,0.000000,0.244141,0.000000
3730326833,0.01264954,0.00108337,-0.99777222,0.000000,0.244141,0.000000
3735404416,0.01264954,0.00108337,-0.99777222,0.122070,0.427246,0.000000
3740470041,0.01228333,0.00144958,-0.99789429,0.122070,0.427246,0.000000
3745541500,0.01228333,0.00144958,-0.99789429,0.000000,0.183105,-0.183105
3750599666,0.01275635,0.00172424,-0.99765015,0.000000,0.183105,-0.183105
3755656875,0.01275635,0.00172424,-0.99765015,0.183105,0.122070,-0.183105
3760735208,0.01278687,0.00158691,-0.99780273,0.183105,0.122070,-0.183105
3765818208,0.01278687,0.00158691,-0.99780273,0.061035,0.122070,-0.061035
3770891166,0.01272583,0.00070190,-0.99780273,0.061035,0.122070,-0.061035
3775967541,0.01272583,0.00070190,-0.99780273,0.061035,0.183105,-0.122070
3781027625,0.01387024,0.00106812,-0.99797058,0.061035,0.183105,-0.122070
3786093916,0.01387024,0.00106812,-0.99797058,-0.061035,0.244141,0.000000
3791159833,0.01321411,0.00137329,-0.99734497,-0.061035,0.244141,0.000000
3796222625,0.01321411,0.00137329,-0.99734497,0.000000,0.061035,-0.122070
3801297166,0.01293945,0.00164795,-0.99792480,0.000000,0.061035,-0.122070
3806367291,0.01293945,0.00164795,-0.99792480,0.000000,0.122070,-0.122070
3811435291,0.01377869,0.00227356,-0.99728394,0.000000,0.122070,-0.122070
3816491875,0.01377869,0.00227356,-0.99728394,0.183105,0.244141,-0.122070
3821560666,0.01219177,0.00205994,-0.99803162,0.183105,0.244141,-0.122070
3826626166,0.01219177,0.00205994,-0.99803162,0.000000,0.183105,-0.122070
3831684041,0.01280212,0.00234985,-0.99761963,0.000000,0.183105,-0.122070
3836741708,0.01280212,0.00234985,-0.99761963,0.122070,0.122070,-0.183105
3841796875,0.01271057,0.00137329,-0.99751282,0.122070,0.122070,-0.183105
3846866041,0.01271057,0.00137329,-0.99751282,0.122070,0.305176,-0.061035
3851951000,0.01268005,0.00169373,-0.99862671,0.122070,0.305176,-0.061035
3857008958,0.01268005,0.00169373,-0.99862671,-0.061035,0.305176,-0.183105
3862067833,0.01118469,0.00105286,-0.99819946,-0.061035,0.305176,-0.183105
3867126541,0.01118469,0.00105286,-0.99819946,0.183105,0.244141,-0.061035
3872182750,0.01124573,0.00181580,-0.99713135,0.183105,0.244141,-0.061035
3877266333,0.01124573,0.00181580,-0.99713135,0.122070,0.122070,-0.061035
3882373666,0.01319885,0.00132751,-0.99778748,0.122070,0.122070,-0.061035
3884921333,0.01319885,0.00132751,-0.99778748,0.000000,0.244141,-0.183105
3889979166,0.01269531,0.00117493,-0.99859619,0.000000,0.244141,-0.183105
3895055375,0.01269531,0.00117493,-0.99859619,0.061035,0.183105,-0.183105
3900180583,0.01335144,0.00132751,-0.99765015,0.061035,0.183105,-0.183105
3905241000,0.01335144,0.00132751,-0.99765015,0.000000,0.183105,-0.183105
3910297125,0.01293945,0.00134277,-0.99839783,0.000000,0.183105,-0.183105
3917873583,0.01293945,0.00134277,-0.99839783,0.000000,0.122070,-0.183105
3920426250,0.01261902,0.00054932,-0.99780273,0.000000,0.122070,-0.183105
3925484000,0.01261902,0.00054932,-0.99780273,0.122070,0.183105,0.000000
3930547791,0.01226807,0.00079346,-0.99702454,0.122070,0.183105,0.000000
3935605041,0.01226807,0.00079346,-0.99702454,-0.061035,0.305176,-0.183105
3940672250,0.01264954,0.00086975,-0.99801636,-0.061035,0.305176,-0.183105
3945729416,0.01264954,0.00086975,-0.99801636,0.061035,0.305176,-0.122070
3950786500,0.01347351,0.00061035,-0.99707031,0.061035,0.305176,-0.122070
3955843541,0.01347351,0.00061035,-0.99707031,0.061035,0.427246,-0.122070
3960790708,0.01232910,0.00091553,-0.99772644,0.061035,0.427246,-0.122070
3965850666,0.01232910,0.00091553,-0.99772644,0.000000,0.122070,-0.183105
3970908000,0.01214600,0.00177002,-0.99809265,0.000000,0.122070,-0.183105
3975965916,0.01214600,0.00177002,-0.99809265,0.000000,0.183105,-0.061035
3981032708,0.01296997,0.00135803,-0.99705505,0.000000,0.183105,-0.061035
3986086875,0.01296997,0.00135803,-0.99705505,0.061035,0.122070,-0.061035
3991144250,0.01414490,0.00175476,-0.99804688,0.061035,0.122070,-0.061035
3996237916,0.01414490,0.00175476,-0.99804688,0.183105,0.244141,-0.122070
4001330666,0.01319885,0.00222778,-0.99851990,0.183105,0.244141,-0.122070
4006402958,0.01319885,0.00222778,-0.99851990,0.000000,0.183105,-0.183105
4011463250,0.01283264,0.00173950,-0.99754333,0.000000,0.183105,-0.183105
4016412958,0.01283264,0.00173950,-0.99754333,0.122070,0.183105,-0.122070
4021494625,0.01354980,0.00146484,-0.99618530,0.122070,0.183105,-0.122070
4026556208,0.01354980,0.00146484,-0.99618530,0.122070,0.305176,0.000000
4031679250,0.01268005,0.00170898,-0.99810791,0.122070,0.305176,0.000000
4036758166,0.01268005,0.00170898,-0.99810791,0.000000,0.305176,-0.183105
4041831125,0.01159668,0.00230408,-0.99829102,0.000000,0.305176,-0.183105
4046948583,0.01159668,0.00230408,-0.99829102,0.000000,0.122070,-0.183105
4052022208,0.01161194,0.00210571,-0.99847412,0.000000,0.122070,-0.183105
4057084416,0.01161194,0.00210571,-0.99847412,0.000000,0.183105,-0.244141
4062142041,0.01210022,0.00169373,-0.99839783,0.000000,0.183105,-0.244141
4067201708,0.01210022,0.00169373,-0.99839783,0.061035,0.244141,-0.244141
4072259333,0.01210022,0.00099182,-0.99699402,0.061035,0.244141,-0.244141
4077329875,0.01210022,0.00099182,-0.99699402,0.000000,0.305176,-0.183105
4082398166,0.01324463,0.00138855,-0.99818420,0.000000,0.305176,-0.183105
4087471708,0.01324463,0.00138855,-0.99818420,0.061035,0.183105,-0.122070
4092596583,0.01263428,0.00164795,-0.99742126,0.061035,0.183105,-0.122070
4097822458,0.01263428,0.00164795,-0.99742126,0.000000,0.122070,-0.061035
4102894750,0.01251221,0.00256348,-0.99813843,0.000000,0.122070,-0.061035
4105429916,0.01251221,0.00256348,-0.99813843,0.122070,0.244141,-0.183105
4110490625,0.01289368,0.00195312,-0.99876404,0.122070,0.244141,-0.183105
4115547083,0.01289368,0.00195312,-0.99876404,-0.061035,0.061035,-0.244141
4120674250,0.01277161,0.00192261,-0.99787903,-0.061035,0.061035,-0.244141
4125744458,0.01277161,0.00192261,-0.99787903,0.122070,0.305176,-0.122070
4130806750,0.01289368,0.00245667,-0.99783325,0.122070,0.305176,-0.122070
4135867333,0.01289368,0.00245667,-0.99783325,0.183105,0.183105,-0.122070
4140926041,0.01252747,0.00135803,-0.99768066,0.183105,0.183105,-0.122070
4146009583,0.01252747,0.00135803,-0.99768066,-0.061035,0.183105,-0.183105
4151069666,0.01304626,0.00161743,-0.99794006,-0.061035,0.183105,-0.183105
4155773000,0.01304626,0.00161743,-0.99794006,0.000000,0.183105,-0.122070
4160852250,0.01296997,0.00154114,-0.99809265,0.000000,0.183105,-0.122070
4165974000,0.01296997,0.00154114,-0.99809265,0.061035,0.244141,-0.244141
4171043208,0.01272583,0.00144958,-0.99877930,0.061035,0.244141,-0.244141
4176104583,0.01272583,0.00144958,-0.99877930,0.061035,0.183105,0.061035
4181166750,0.01263428,0.00161743,-0.99822998,0.061035,0.183105,0.061035
4186234583,0.01263428,0.00161743,-0.99822998,0.122070,0.061035,-0.183105
4191308125,0.01229858,0.00096130,-0.99877930,0.122070,0.061035,-0.183105
4196397416,0.01229858,0.00096130,-0.99877930,0.122070,0.244141,-0.061035
4201486458,0.01268005,0.00079346,-0.99804688,0.122070,0.244141,-0.061035
4206555000,0.01268005,0.00079346,-0.99804688,0.061035,0.244141,-0.122070
4211612541,0.01226807,0.00161743,-0.99754333,0.061035,0.244141,-0.122070
4216742041,0.01226807,0.00161743,-0.99754333,0.122070,0.305176,-0.061035
4221844250,0.01202393,0.00091553,-0.99734497,0.122070,0.305176,-0.061035
4226903000,0.01202393,0.00091553,-0.99734497,0.183105,0.244141,-0.122070
4231980541,0.01269531,0.00076294,-0.99722290,0.183105,0.244141,-0.122070
4237045125,0.01269531,0.00076294,-0.99722290,0.000000,0.183105,-0.183105
4242104791,0.01216125,0.00154114,-0.99700928,0.000000,0.183105,-0.183105
4247183291,0.01216125,0.00154114,-0.99700928,0.000000,0.183105,-0.122070
4252255958,0.01176453,0.00161743,-0.99821472,0.000000,0.183105,-0.122070
4257329458,0.01176453,0.00161743,-0.99821472,0.122070,0.183105,-0.061035
4262394083,0.01181030,0.00134277,-0.99792480,0.122070,0.183105,-0.061035
4267465458,0.01181030,0.00134277,-0.99792480,0.122070,0.305176,-0.061035
4272547958,0.01269531,0.00193787,-0.99888611,0.122070,0.305176,-0.061035
4277610041,0.01269531,0.00193787,-0.99888611,0.000000,0.183105,-0.183105
4282682583,0.01307678,0.00209045,-0.99816895,0.000000,0.183105,-0.183105
4287741625,0.01307678,0.00209045,-0.99816895,0.000000,0.183105,-0.061035
4292798375,0.01303101,0.00302124,-0.99830627,0.000000,0.183105,-0.061035
4297855625,0.01303101,0.00302124,-0.99830627,0.061035,0.244141,-0.061035
4302913166,0.01301575,0.00140381,-0.99673462,0.061035,0.244141,-0.061035
4307977333,0.01301575,0.00140381,-0.99673462,0.122070,0.183105,-0.122070
4313049458,0.01210022,0.00144958,-0.99670410,0.122070,0.183105,-0.122070
4318107208,0.01210022,0.00144958,-0.99670410,0.000000,0.244141,-0.122070
4323166000,0.01249695,0.00224304,-0.99732971,0.000000,0.244141,-0.122070
4328229041,0.01249695,0.00224304,-0.99732971,0.000000,0.183105,-0.122070
4333330875,0.01252747,0.00096130,-0.99736023,0.000000,0.183105,-0.122070
4335870833,0.01252747,0.00096130,-0.99736023,0.000000,0.183105,-0.305176
4340939208,0.01255798,0.00053406,-0.99880981,0.000000,0.183105,-0.305176
4345997125,0.01255798,0.00053406,-0.99880981,0.061035,0.183105,-0.122070
4351052833,0.01271057,0.00079346,-0.99790955,0.061035,0.183105,-0.122070
4356123333,0.01271057,0.00079346,-0.99790955,-0.061035,0.122070,-0.183105
4361180125,0.01249695,0.00143433,-0.99815369,-0.061035,0.122070,-0.183105
4366237458,0.01249695,0.00143433,-0.99815369,0.000000,0.122070,-0.061035
4371292750,0.01315308,0.00073242,-0.99865723,0.000000,0.122070,-0.061035
4376347416,0.01315308,0.00073242,-0.99865723,0.122070,0.183105,-0.183105
4381416250,0.01397705,0.00161743,-0.99829102,0.122070,0.183105,-0.183105
4386472375,0.01397705,0.00161743,-0.99829102,0.122070,0.122070,-0.244141
4391528833,0.01226807,0.00195312,-0.99777222,0.122070,0.122070,-0.244141
4396601000,0.01226807,0.00195312,-0.99777222,0.061035,0.244141,-0.122070
4401685666,0.01168823,0.00239563,-0.99841309,0.061035,0.244141,-0.122070
4406756166,0.01168823,0.00239563,-0.99841309,0.000000,0.183105,-0.183105
4411824541,0.01310730,0.00244141,-0.99899292,0.000000,0.183105,-0.183105
4416892500,0.01310730,0.00244141,-0.99899292,0.122070,0.122070,-0.122070
4421964000,0.01345825,0.00122070,-0.99850464,0.122070,0.122070,-0.122070
4427037000,0.01345825,0.00122070,-0.99850464,0.122070,0.244141,-0.244141
4432103125,0.01243591,0.00105286,-0.99850464,0.122070,0.244141,-0.244141
4437167375,0.01243591,0.00105286,-0.99850464,0.000000,0.061035,-0.183105
4442235916,0.01220703,0.00047302,-0.99684143,0.000000,0.061035,-0.183105
4447312708,0.01220703,0.00047302,-0.99684143,0.000000,0.061035,-0.183105
4452420291,0.01121521,0.00090027,-1.00044250,0.000000,0.061035,-0.183105
4457486666,0.01121521,0.00090027,-1.00044250,0.000000,0.244141,0.000000
4462548625,0.01170349,0.00248718,-0.99688721,0.000000,0.244141,0.000000
4467607208,0.01170349,0.00248718,-0.99688721,0.000000,0.122070,-0.244141
4472671000,0.01184082,0.00376892,-0.99829102,0.000000,0.122070,-0.244141
4477729833,0.01184082,0.00376892,-0.99829102,0.000000,0.244141,0.000000
4482786750,0.01159668,0.00294495,-0.99844360,0.000000,0.244141,0.000000
4487843416,0.01159668,0.00294495,-0.99844360,0.061035,0.305176,-0.061035
4492910416,0.01191711,0.00418091,-0.99815369,0.061035,0.305176,-0.061035
4497978083,0.01191711,0.00418091,-0.99815369,-0.061035,0.305176,-0.061035
4503043958,0.01269531,0.00294495,-0.99781799,-0.061035,0.305176,-0.061035
4508103541,0.01269531,0.00294495,-0.99781799,0.061035,0.183105,-0.122070
4513164875,0.01409912,0.00114441,-0.99656677,0.061035,0.183105,-0.122070
4518250041,0.01409912,0.00114441,-0.99656677,0.061035,0.122070,-0.122070
4523343125,0.01455688,0.00050354,-0.99748230,0.061035,0.122070,-0.122070
4528409833,0.01455688,0.00050354,-0.99748230,0.122070,0.183105,-0.244141
4533477416,0.01402283,0.00036621,-0.99819946,0.122070,0.183105,-0.244141
4538544125,0.01402283,0.00036621,-0.99819946,0.061035,0.305176,-0.061035
4543609166,0.01368713,-0.00042725,-0.99728394,0.061035,0.305176,-0.061035
4548670375,0.01368713,-0.00042725,-0.99728394,0.183105,0.305176,-0.122070
4553736958,0.01284790,-0.00158691,-0.99766541,0.183105,0.305176,-0.122070
4558808041,0.01284790,-0.00158691,-0.99766541,0.000000,0.122070,-0.183105
4563870791,0.01394653,-0.00112915,-0.99795532,0.000000,0.122070,-0.183105
4566409458,0.01394653,-0.00112915,-0.99795532,0.122070,0.305176,-0.305176
4571469291,0.01350403,-0.00173950,-0.99661255,0.122070,0.305176,-0.305176
4576528166,0.01350403,-0.00173950,-0.99661255,-0.122070,0.183105,-0.183105
4581587458,0.01184082,-0.00138855,-0.99687195,-0.122070,0.183105,-0.183105
4586666458,0.01184082,-0.00138855,-0.99687195,0.061035,0.183105,-0.244141
4591729666,0.01171875,-0.00033569,-0.99833679,0.061035,0.183105,-0.244141
4596815125,0.01171875,-0.00033569,-0.99833679,0.000000,0.061035,-0.244141
4604409875,0.01104736,0.00050354,-0.99775696,0.000000,0.061035,-0.244141
4606944333,0.01104736,0.00050354,-0.99775696,0.183105,0.183105,-0.061035
4612009041,0.01202393,0.00250244,-0.99775696,0.183105,0.183105,-0.061035
4617094333,0.01202393,0.00250244,-0.99775696,-0.061035,0.183105,-0.183105
4622155583,0.01173401,0.00344849,-0.99816895,-0.061035,0.183105,-0.183105
4627214958,0.01173401,0.00344849,-0.99816895,0.122070,0.183105,-0.122070
4632273083,0.01176453,0.00439453,-0.99827576,0.122070,0.183105,-0.122070
4637333416,0.01176453,0.00439453,-0.99827576,0.122070,0.183105,-0.061035
4642390333,0.01214600,0.00489807,-0.99801636,0.122070,0.183105,-0.061035
4647449375,0.01214600,0.00489807,-0.99801636,0.183105,0.122070,-0.061035
4652536458,0.01324463,0.00411987,-0.99752808,0.183105,0.122070,-0.061035
4657597666,0.01324463,0.00411987,-0.99752808,0.000000,0.244141,0.000000
4662712625,0.01414490,0.00335693,-0.99777222,0.000000,0.244141,0.000000
4667776875,0.01414490,0.00335693,-0.99777222,0.061035,0.183105,-0.122070
4672839958,0.01208496,0.00260925,-0.99861145,0.061035,0.183105,-0.122070
4677919291,0.01208496,0.00260925,-0.99861145,-0.061035,0.122070,-0.183105
4682995083,0.01193237,0.00155640,-0.99836731,-0.061035,0.122070,-0.183105
4688064750,0.01193237,0.00155640,-0.99836731,0.122070,0.000000,0.000000
4693137166,0.01354980,0.00154114,-0.99761963,0.122070,0.000000,0.000000
4698207166,0.01354980,0.00154114,-0.99761963,0.122070,0.305176,-0.061035
4703274791,0.01266479,0.00033569,-0.99763489,0.122070,0.305176,-0.061035
4708340875,0.01266479,0.00033569,-0.99763489,-0.122070,0.183105,-0.122070
4713409291,0.01225281,0.00096130,-0.99769592,-0.122070,0.183105,-0.122070
4718467791,0.01225281,0.00096130,-0.99769592,0.000000,0.183105,-0.122070
4723526125,0.01194763,0.00134277,-0.99797058,0.000000,0.183105,-0.122070
4728591708,0.01194763,0.00134277,-0.99797058,0.061035,0.122070,-0.122070
4733650500,0.01211548,0.00180054,-0.99784851,0.061035,0.122070,-0.122070
4738706958,0.01211548,0.00180054,-0.99784851,-0.061035,0.305176,-0.183105
4743764458,0.01332092,0.00161743,-0.99774170,-0.061035,0.305176,-0.183105
4748822125,0.01332092,0.00161743,-0.99774170,0.000000,0.183105,-0.061035
4753877416,0.01193237,0.00172424,-0.99780273,0.000000,0.183105,-0.061035
4758933958,0.01193237,0.00172424,-0.99780273,0.000000,0.244141,0.000000
4763995333,0.01229858,0.00045776,-0.99864197,0.000000,0.244141,0.000000
4769057541,0.01229858,0.00045776,-0.99864197,0.122070,0.183105,-0.122070
4774126375,0.01348877,0.00090027,-0.99800110,0.122070,0.183105,-0.122070
4779183166,0.01348877,0.00090027,-0.99800110,0.061035,0.183105,-0.061035
4784289250,0.01234436,0.00186157,-0.99845886,0.061035,0.183105,-0.061035
4786837666,0.01234436,0.00186157,-0.99845886,0.061035,0.305176,0.000000
4791906541,0.01322937,0.00169373,-0.99720764,0.061035,0.305176,0.000000
4796971708,0.01322937,0.00169373,-0.99720764,-0.061035,0.305176,-0.061035
4802030041,0.01325989,0.00135803,-0.99772644,-0.061035,0.305176,-0.061035
4807110833,0.01325989,0.00135803,-0.99772644,0.061035,0.183105,-0.061035
4812174500,0.01237488,-0.00025940,-0.99838257,0.061035,0.183105,-0.061035
4817239375,0.01237488,-0.00025940,-0.99838257,0.000000,0.244141,-0.061035
4822295208,0.01319885,0.00051880,-0.99844360,0.000000,0.244141,-0.061035
4827381833,0.01319885,0.00051880,-0.99844360,-0.061035,0.366211,-0.305176
4832478416,0.01358032,0.00035095,-0.99768066,-0.061035,0.366211,-0.305176
4837543375,0.01358032,0.00035095,-0.99768066,-0.122070,0.183105,-0.244141
4842601000,0.01280212,-0.00065613,-0.99752808,-0.122070,0.183105,-0.244141
4847655500,0.01280212,-0.00065613,-0.99752808,-0.061035,0.305176,-0.061035
4852712583,0.01235962,0.00000000,-0.99766541,-0.061035,0.305176,-0.061035
4857768125,0.01235962,0.00000000,-0.99766541,0.122070,0.122070,-0.305176
4862890375,0.01181030,-0.00006104,-0.99836731,0.122070,0.122070,-0.305176
4867974458,0.01181030,-0.00006104,-0.99836731,0.122070,0.183105,-0.183105
4873034958,0.01223755,0.00056458,-0.99702454,0.122070,0.183105,-0.183105
4878197208,0.01223755,0.00056458,-0.99702454,0.122070,0.183105,-0.183105
4883258250,0.01246643,0.00192261,-0.99794006,0.122070,0.183105,-0.183105
4888315750,0.01246643,0.00192261,-0.99794006,0.122070,0.244141,-0.122070
4893385458,0.01223755,0.00268555,-0.99836731,0.122070,0.244141,-0.122070
4898447125,0.01223755,0.00268555,-0.99836731,0.061035,0.122070,-0.183105
4903506500,0.01243591,0.00260925,-0.99751282,0.061035,0.122070,-0.183105
4908568625,0.01243591,0.00260925,-0.99751282,0.061035,0.183105,-0.061035
4913633000,0.01296997,0.00216675,-0.99870300,0.061035,0.183105,-0.061035
4918697166,0.01296997,0.00216675,-0.99870300,0.122070,0.305176,-0.122070
4923775291,0.01293945,0.00317383,-0.99763489,0.122070,0.305176,-0.122070
4928832041,0.01293945,0.00317383,-0.99763489,0.183105,0.305176,-0.183105
4933916541,0.01211548,0.00329590,-0.99781799,0.183105,0.305176,-0.183105
4938980416,0.01211548,0.00329590,-0.99781799,0.061035,0.183105,-0.061035
4944044250,0.01283264,0.00221252,-0.99729919,0.061035,0.183105,-0.061035
4949098916,0.01283264,0.00221252,-0.99729919,0.000000,0.061035,-0.244141
4954154625,0.01292419,0.00172424,-0.99803162,0.000000,0.061035,-0.244141
4959224666,0.01292419,0.00172424,-0.99803162,0.244141,0.305176,0.000000
4964298041,0.01206970,0.00112915,-0.99760437,0.244141,0.305176,0.000000
4969364958,0.01206970,0.00112915,-0.99760437,-0.061035,0.122070,-0.061035
4974497583,0.01235962,0.00061035,-0.99638367,-0.061035,0.122070,-0.061035
4979570208,0.01235962,0.00061035,-0.99638367,0.122070,0.183105,-0.061035
4984628000,0.01354980,0.00024414,-1.00273132,0.122070,0.183105,-0.061035
4989735500,0.01354980,0.00024414,-1.00273132,0.122070,0.305176,0.000000
4994821541,0.01277161,-0.00003052,-0.99539185,0.122070,0.305176,0.000000
4999881416,0.01277161,-0.00003052,-0.99539185,0.061035,0.183105,-0.061035
5004959875,0.01258850,0.00025940,-0.99853516,0.061035,0.183105,-0.061035
5007506541,0.01258850,0.00025940,-0.99853516,-0.122070,0.244141,-0.061035
5012580750,0.01188660,0.00041199,-0.99934387,-0.122070,0.244141,-0.061035
5017636875,0.01188660,0.00041199,-0.99934387,0.061035,0.122070,-0.122070
5022700833,0.01272583,0.00085449,-0.99737549,0.061035,0.122070,-0.122070
5027758458,0.01272583,0.00085449,-0.99737549,0.061035,0.244141,-0.122070
5032817916,0.01223755,0.00132751,-0.99734497,0.061035,0.244141,-0.122070
5037875000,0.01223755,0.00132751,-0.99734497,0.183105,0.122070,-0.061035
5042959541,0.01165771,0.00219727,-0.99763489,0.183105,0.122070,-0.061035
5048025916,0.01165771,0.00219727,-0.99763489,0.183105,0.244141,-0.122070
5053083583,0.01229858,0.00149536,-0.99781799,0.183105,0.244141,-0.122070
5058140583,0.01229858,0.00149536,-0.99781799,0.061035,0.122070,-0.122070
5063198291,0.01185608,0.00141907,-0.99687195,0.061035,0.122070,-0.122070
5068255333,0.01185608,0.00141907,-0.99687195,0.000000,0.183105,-0.061035
5073312750,0.01219177,0.00051880,-0.99755859,0.000000,0.183105,-0.061035
5078369208,0.01219177,0.00051880,-0.99755859,0.122070,0.183105,-0.061035
5083434958,0.01402283,0.00122070,-0.99783325,0.122070,0.183105,-0.061035
5088508708,0.01402283,0.00122070,-0.99783325,0.122070,0.244141,-0.183105
5093586625,0.01393127,0.00177002,-0.99792480,0.122070,0.244141,-0.183105
5098666083,0.01393127,0.00177002,-0.99792480,0.000000,0.244141,-0.061035
5103754541,0.01354980,0.00180054,-0.99775696,0.000000,0.244141,-0.061035
5108854625,0.01354980,0.00180054,-0.99775696,0.122070,0.305176,-0.061035
5113927250,0.01376343,0.00219727,-0.99697876,0.122070,0.305176,-0.061035
5119015583,0.01376343,0.00219727,-0.99697876,-0.061035,0.183105,-0.122070
5124089416,0.01275635,0.00299072,-0.99691772,-0.061035,0.183105,-0.122070
5129152666,0.01275635,0.00299072,-0.99691772,0.000000,0.183105,-0.183105
5133806208,0.01237488,0.00344849,-0.99751282,0.000000,0.183105,-0.183105
5138886750,0.01237488,0.00344849,-0.99751282,0.000000,0.183105,-0.122070
5143943458,0.01329041,0.00297546,-0.99787903,0.000000,0.183105,-0.122070
5149001625,0.01329041,0.00297546,-0.99787903,-0.061035,0.183105,-0.061035
5154068208,0.01222229,0.00282288,-0.99772644,-0.061035,0.183105,-0.061035
5159125833,0.01222229,0.00282288,-0.99772644,0.122070,0.244141,-0.122070
5164190583,0.01182556,0.00137329,-0.99647522,0.122070,0.244141,-0.122070
5169249041,0.01182556,0.00137329,-0.99647522,0.061035,0.183105,0.000000
5174307458,0.01214600,-0.00004578,-0.99739075,0.061035,0.183105,0.000000
5179364291,0.01214600,-0.00004578,-0.99739075,0.061035,0.183105,-0.061035
5184421958,0.01254272,0.00080872,-0.99848938,0.061035,0.183105,-0.061035
5189574833,0.01254272,0.00080872,-0.99848938,0.061035,0.122070,-0.061035
5194652041,0.01295471,0.00146484,-0.99855042,0.061035,0.122070,-0.061035
5199720291,0.01295471,0.00146484,-0.99855042,0.000000,0.244141,-0.183105
5204326291,0.01319885,0.00141907,-0.99955750,0.000000,0.244141,-0.183105
5209399958,0.01319885,0.00141907,-0.99955750,0.000000,0.183105,-0.061035
5214464458,0.01382446,0.00103760,-0.99842834,0.000000,0.183105,-0.061035
5219543208,0.01382446,0.00103760,-0.99842834,0.122070,0.183105,0.061035
5224604000,0.01333618,0.00181580,-0.99592590,0.122070,0.183105,0.061035
5229661583,0.01333618,0.00181580,-0.99592590,0.000000,0.244141,-0.183105
5234732083,0.01266479,0.00209045,-0.99792480,0.000000,0.244141,-0.183105
5239790125,0.01266479,0.00209045,-0.99792480,0.000000,0.122070,-0.183105
5244870208,0.01289368,0.00184631,-0.99768066,0.000000,0.122070,-0.183105
5250210208,0.01289368,0.00184631,-0.99768066,0.183105,0.183105,-0.061035
5252795750,0.01219177,0.00196838,-0.99807739,0.183105,0.183105,-0.061035
5257866000,0.01219177,0.00196838,-0.99807739,0.061035,0.305176,-0.061035
5262944500,0.01191711,0.00157166,-0.99816895,0.061035,0.305176,-0.061035
5268003041,0.01191711,0.00157166,-0.99816895,0.000000,0.244141,-0.061035
5273071041,0.01257324,0.00167847,-0.99615479,0.000000,0.244141,-0.061035
5278129625,0.01257324,0.00167847,-0.99615479,0.000000,0.061035,-0.122070
5283187000,0.01327515,0.00210571,-0.99717712,0.000000,0.061035,-0.122070
5288241625,0.01327515,0.00210571,-0.99717712,0.061035,0.183105,-0.061035
5293298166,0.01295471,0.00259399,-0.99806213,0.061035,0.183105,-0.061035
5298353041,0.01295471,0.00259399,-0.99806213,-0.061035,0.244141,-0.183105
5303408791,0.01315308,0.00117493,-0.99765015,-0.061035,0.244141,-0.183105
5308468208,0.01315308,0.00117493,-0.99765015,0.061035,0.244141,-0.183105
5313523791,0.01347351,0.00044250,-0.99719238,0.061035,0.244141,-0.183105
5318588041,0.01347351,0.00044250,-0.99719238,0.671387,-0.183105,-0.183105
5323651791,0.01295471,0.00125122,-0.99095154,0.671387,-0.183105,-0.183105
5328708208,0.01295471,0.00125122,-0.99095154,1.098633,-0.671387,-0.183105
5333779916,0.01271057,-0.00158691,-0.98432922,1.098633,-0.671387,-0.183105
5338835583,0.01271057,-0.00158691,-0.98432922,0.488281,0.854492,-0.305176
5343886625,0.01412964,-0.00076294,-1.03443909,0.488281,0.854492,-0.305176
5348950541,0.01412964,-0.00076294,-1.03443909,-0.366211,0.122070,-0.122070
5354091875,0.01139832,0.00129700,-0.97090149,-0.366211,0.122070,-0.122070
5359159666,0.01139832,0.00129700,-0.97090149,-0.610352,0.305176,-0.183105
5364225500,0.01153564,0.00270081,-1.01591492,-0.610352,0.305176,-0.183105
5369297041,0.01153564,0.00270081,-1.01591492,0.122070,0.061035,0.061035
5374367958,0.01132202,0.00323486,-0.99406433,0.122070,0.061035,0.061035
5379422875,0.01132202,0.00323486,-0.99406433,0.549316,0.122070,-0.122070
5384471625,0.01029968,0.00550842,-0.99423218,0.549316,0.122070,-0.122070
5389420166,0.01029968,0.00550842,-0.99423218,0.244141,0.305176,-0.122070
5394472375,0.01214600,0.00407410,-0.99955750,0.244141,0.305176,-0.122070
5399532666,0.01214600,0.00407410,-0.99955750,0.061035,0.305176,-0.061035
5404602166,0.01316833,0.00395203,-0.99249268,0.061035,0.305176,-0.061035
5410013166,0.01316833,0.00395203,-0.99249268,0.244141,0.305176,-0.061035
5415109791,0.01332092,0.00466919,-1.00282288,0.244141,0.305176,-0.061035
5420178666,0.01332092,0.00466919,-1.00282288,0.183105,0.061035,0.000000
5425240083,0.01467896,0.00263977,-0.99319458,0.183105,0.061035,0.000000
5430307208,0.01467896,0.00263977,-0.99319458,0.183105,0.244141,-0.061035
5435368000,0.01441956,0.00030518,-1.00070190,0.183105,0.244141,-0.061035
5440442083,0.01441956,0.00030518,-1.00070190,0.061035,0.183105,-0.183105
5445284291,0.01304626,-0.00010681,-0.99575806,0.061035,0.183105,-0.183105
5450333000,0.01304626,-0.00010681,-0.99575806,0.061035,0.122070,-0.061035
5455393791,0.01301575,-0.00180054,-0.99717712,0.061035,0.122070,-0.061035
5460450666,0.01301575,-0.00180054,-0.99717712,0.061035,0.244141,-0.183105
5465005291,0.01333618,-0.00326538,-1.00012207,0.061035,0.244141,-0.183105
5470085708,0.01333618,-0.00326538,-1.00012207,-0.061035,0.244141,-0.183105
5475192791,0.01269531,-0.00416565,-0.99552917,-0.061035,0.244141,-0.183105
5480273416,0.01269531,-0.00416565,-0.99552917,0.000000,0.183105,-0.122070
5485345250,0.01318359,-0.00311279,-0.99851990,0.000000,0.183105,-0.122070
5490452291,0.01318359,-0.00311279,-0.99851990,0.061035,0.000000,-0.244141
5495522083,0.01342773,-0.00093079,-0.99763489,0.061035,0.000000,-0.244141
5500591000,0.01342773,-0.00093079,-0.99763489,0.061035,0.183105,-0.061035
5505660375,0.01252747,0.00152588,-0.99807739,0.061035,0.183105,-0.061035
5510760250,0.01252747,0.00152588,-0.99807739,0.061035,0.183105,-0.183105
5515844833,0.01239014,0.00360107,-0.99809265,0.061035,0.183105,-0.183105
5518383916,0.01239014,0.00360107,-0.99809265,0.183105,0.122070,-0.183105
5523445833,0.01127625,0.00590515,-0.99714661,0.183105,0.122070,-0.183105
5528518250,0.01127625,0.00590515,-0.99714661,0.061035,0.183105,-0.183105
5533465916,0.01191711,0.00585938,-0.99818420,0.061035,0.183105,-0.183105
5538529916,0.01191711,0.00585938,-0.99818420,0.000000,0.183105,0.000000
5543602750,0.01412964,0.00534058,-0.99807739,0.000000,0.183105,0.000000
5548661333,0.01412964,0.00534058,-0.99807739,0.122070,0.244141,0.000000
5553719125,0.01333618,0.00440979,-0.99836731,0.122070,0.244141,0.000000
5558805000,0.01333618,0.00440979,-0.99836731,0.000000,0.183105,-0.061035
5563886500,0.01338196,0.00315857,-0.99931335,0.000000,0.183105,-0.061035
5568945791,0.01338196,0.00315857,-0.99931335,0.061035,0.183105,-0.122070
5574007791,0.01284790,0.00199890,-0.99987793,0.061035,0.183105,-0.122070
5579073208,0.01284790,0.00199890,-0.99987793,0.061035,0.122070,-0.061035
5584153125,0.01281738,0.00050354,-0.99784851,0.061035,0.122070,-0.061035
5589220125,0.01281738,0.00050354,-0.99784851,-0.061035,0.183105,-0.122070
5594294083,0.01210022,-0.00070190,-0.99746704,-0.061035,0.183105,-0.122070
5599358041,0.01210022,-0.00070190,-0.99746704,-0.061035,0.183105,-0.122070
5604445333,0.01232910,-0.00103760,-0.99790955,-0.061035,0.183105,-0.122070
5609534166,0.01232910,-0.00103760,-0.99790955,0.061035,0.305176,-0.122070
5614609416,0.01358032,-0.00083923,-0.99789429,0.061035,0.305176,-0.122070
5619685916,0.01358032,-0.00083923,-0.99789429,0.122070,0.305176,-0.244141
5624758833,0.01268005,0.00019836,-0.99815369,0.122070,0.305176,-0.244141
5629847000,0.01268005,0.00019836,-0.99815369,0.000000,0.061035,-0.183105
5634956791,0.01300049,0.00061035,-0.99749756,0.000000,0.061035,-0.183105
5640035333,0.01300049,0.00061035,-0.99749756,0.061035,0.244141,-0.244141
5645108583,0.01274109,0.00158691,-0.99725342,0.061035,0.244141,-0.244141
5650168458,0.01274109,0.00158691,-0.99725342,0.061035,0.183105,-0.122070
5655229500,0.01243591,0.00285339,-0.99765015,0.061035,0.183105,-0.122070
5660311208,0.01243591,0.00285339,-0.99765015,0.122070,0.183105,-0.122070
5665370000,0.01365662,0.00308228,-0.99790955,0.122070,0.183105,-0.122070
5670429625,0.01365662,0.00308228,-0.99790955,0.000000,0.183105,-0.305176
5675495333,0.01321411,0.00273132,-0.99778748,0.000000,0.183105,-0.305176
5680562375,0.01321411,0.00273132,-0.99778748,-0.061035,0.244141,-0.061035
5685638250,0.01382446,0.00263977,-0.99684143,-0.061035,0.244141,-0.061035
5690696333,0.01382446,0.00263977,-0.99684143,0.061035,0.122070,-0.122070
5695752916,0.01272583,0.00160217,-0.99751282,0.061035,0.122070,-0.122070
5700820166,0.01272583,0.00160217,-0.99751282,0.061035,0.244141,-0.122070
5705878541,0.01200867,0.00047302,-0.99713135,0.061035,0.244141,-0.122070
5710943041,0.01200867,0.00047302,-0.99713135,-0.061035,0.122070,-0.183105
5716009250,0.01280212,0.00090027,-0.99819946,-0.061035,0.122070,-0.183105
5721072166,0.01280212,0.00090027,-0.99819946,0.122070,0.244141,-0.183105
5726128750,0.01286316,0.00068665,-0.99713135,0.122070,0.244141,-0.183105
5731185708,0.01286316,0.00068665,-0.99713135,0.000000,0.305176,-0.122070
5736256875,0.01202393,0.00051880,-0.99803162,0.000000,0.305176,-0.122070
5738860916,0.01202393,0.00051880,-0.99803162,0.061035,0.122070,-0.244141
5743924500,0.01269531,0.00053406,-0.99794006,0.061035,0.122070,-0.244141
5748982125,0.01269531,0.00053406,-0.99794006,0.061035,0.061035,-0.183105
5754038250,0.01165771,0.00021362,-0.99777222,0.061035,0.061035,-0.183105
5759093458,0.01165771,0.00021362,-0.99777222,0.061035,0.244141,-0.122070
5764164250,0.01194763,-0.00010681,-0.99705505,0.061035,0.244141,-0.122070
5769221208,0.01194763,-0.00010681,-0.99705505,0.061035,0.244141,-0.061035
5774285125,0.01200867,0.00007629,-0.99795532,0.061035,0.244141,-0.061035
5779341208,0.01200867,0.00007629,-0.99795532,0.061035,0.244141,-0.122070
5784395041,0.01242065,0.00106812,-0.99736023,0.061035,0.244141,-0.122070
5789449125,0.01242065,0.00106812,-0.99736023,0.122070,0.122070,-0.061035
5794508791,0.01132202,0.00120544,-0.99832153,0.122070,0.122070,-0.061035
5799574333,0.01132202,0.00120544,-0.99832153,0.000000,0.183105,-0.244141
5804638041,0.01150513,0.00225830,-0.99717712,0.000000,0.183105,-0.244141
5809703708,0.01150513,0.00225830,-0.99717712,0.183105,0.244141,0.000000
5814780291,0.01300049,0.00254822,-0.99800110,0.183105,0.244141,0.000000
5819849791,0.01300049,0.00254822,-0.99800110,-0.061035,0.061035,0.000000
5824935666,0.01260376,0.00325012,-0.99848938,-0.061035,0.061035,0.000000
5829996958,0.01260376,0.00325012,-0.99848938,0.000000,0.122070,-0.061035
5835062625,0.01293945,0.00396729,-0.99792480,0.000000,0.122070,-0.061035
5840121708,0.01293945,0.00396729,-0.99792480,1.586914,0.183105,-0.061035
5845191375,0.01295471,0.00373840,-0.99803162,1.586914,0.183105,-0.061035
5850271625,0.01295471,0.00373840,-0.99803162,-2.685547,0.061035,0.000000
5855377333,0.01296997,0.00187683,-0.97094727,-2.685547,0.061035,0.000000
5860444708,0.01296997,0.00187683,-0.97094727,0.610352,0.000000,-0.244141
5865511375,0.01329041,-0.00213623,-1.03547668,0.610352,0.000000,-0.244141
5870600541,0.01329041,-0.00213623,-1.03547668,-0.732422,-0.122070,-0.061035
5875669916,0.01411438,-0.00317383,-0.97236633,-0.732422,-0.122070,-0.061035
5880735041,0.01411438,-0.00317383,-0.97236633,-0.061035,0.305176,-0.122070
5885799291,0.01307678,-0.00097656,-1.02738953,-0.061035,0.305176,-0.122070
5890862958,0.01307678,-0.00097656,-1.02738953,-0.549316,0.183105,-0.061035
5895668958,0.01129150,-0.00155640,-0.97947693,-0.549316,0.183105,-0.061035
5900734833,0.01129150,-0.00155640,-0.97947693,-0.061035,0.427246,-0.244141
5905809708,0.01043701,0.00061035,-1.00614929,-0.061035,0.427246,-0.244141
5910872375,0.01043701,0.00061035,-1.00614929,0.122070,0.122070,-0.061035
5915948541,0.01094055,0.00231934,-0.99195862,0.122070,0.122070,-0.061035
5921188625,0.01094055,0.00231934,-0.99195862,0.061035,0.000000,-0.122070
5926260708,0.01194763,0.00282288,-0.99755859,0.061035,0.000000,-0.122070
5930944625,0.01194763,0.00282288,-0.99755859,0.305176,0.061035,-0.122070
5936024375,0.01252747,0.00302124,-0.99906921,0.305176,0.061035,-0.122070
5941094250,0.01252747,0.00302124,-0.99906921,0.000000,0.183105,0.000000
5946162958,0.01268005,0.00325012,-0.99322510,0.000000,0.183105,0.000000
5951221750,0.01268005,0.00325012,-0.99322510,0.000000,0.305176,-0.122070
5956281416,0.01434326,0.00431824,-1.00161743,0.000000,0.305176,-0.122070
5961338833,0.01434326,0.00431824,-1.00161743,0.122070,0.061035,-0.122070
5966419208,0.01356506,0.00222778,-0.99497986,0.122070,0.061035,-0.122070
5971487750,0.01356506,0.00222778,-0.99497986,0.122070,0.183105,-0.122070
5976547583,0.01405334,0.00219727,-0.99980164,0.122070,0.183105,-0.122070
5981607666,0.01405334,0.00219727,-0.99980164,0.000000,0.122070,-0.183105
5986685875,0.01374817,0.00076294,-0.99562073,0.000000,0.122070,-0.183105
5991746416,0.01374817,0.00076294,-0.99562073,0.000000,0.061035,-0.122070
5996846375,0.01385498,-0.00146484,-0.99789429,0.000000,0.061035,-0.122070
5999397708,0.01385498,-0.00146484,-0.99789429,0.183105,0.183105,-0.122070
6004468333,0.01382446,-0.00190735,-0.99745178,0.183105,0.183105,-0.122070
6009526625,0.01382446,-0.00190735,-0.99745178,0.122070,0.183105,-0.122070
6014596833,0.01237488,-0.00245667,-0.99559021,0.122070,0.183105,-0.122070
6019668375,0.01237488,-0.00245667,-0.99559021,-0.061035,0.244141,-0.122070
6024464250,0.01091003,-0.00238037,-1.00003052,-0.061035,0.244141,-0.122070
6029530875,0.01091003,-0.00238037,-1.00003052,0.000000,0.305176,-0.122070
6034596458,0.01139832,-0.00128174,-0.99728394,0.000000,0.305176,-0.122070
6039669541,0.01139832,-0.00128174,-0.99728394,0.000000,0.122070,-0.244141
6044728250,0.01170349,0.00048828,-0.99749756,0.000000,0.122070,-0.244141
6049794125,0.01170349,0.00048828,-0.99749756,0.061035,0.183105,-0.183105
6054853250,0.01141357,0.00344849,-0.99879456,0.061035,0.183105,-0.183105
6059916458,0.01141357,0.00344849,-0.99879456,0.000000,0.122070,-0.122070
6064994583,0.01223755,0.00395203,-0.99844360,0.000000,0.122070,-0.122070
6070053375,0.01223755,0.00395203,-0.99844360,0.000000,0.305176,-0.122070
6075113791,0.01322937,0.00407410,-0.99771118,0.000000,0.305176,-0.122070
6080175916,0.01322937,0.00407410,-0.99771118,0.122070,0.244141,-0.122070
6085240541,0.01286316,0.00396729,-0.99784851,0.122070,0.244141,-0.122070
6090308333,0.01286316,0.00396729,-0.99784851,0.061035,0.183105,-0.061035
6095375625,0.01289368,0.00430298,-0.99757385,0.061035,0.183105,-0.061035
6100448791,0.01289368,0.00430298,-0.99757385,0.061035,0.183105,-0.183105
6105574958,0.01246643,0.00326538,-0.99888611,0.061035,0.183105,-0.183105
6110648625,0.01246643,0.00326538,-0.99888611,0.061035,0.366211,-0.061035
6115744625,0.01313782,0.00201416,-0.99937439,0.061035,0.366211,-0.061035
6120840666,0.01313782,0.00201416,-0.99937439,0.000000,0.122070,-0.305176
6125905875,0.01271057,0.00135803,-0.99699402,0.000000,0.122070,-0.305176
6130972625,0.01271057,0.00135803,-0.99699402,0.122070,0.000000,-0.061035
6136032458,0.01214600,0.00053406,-0.99731445,0.122070,0.000000,-0.061035
6141088500,0.01214600,0.00053406,-0.99731445,0.000000,0.183105,-0.183105
6146146708,0.01281738,-0.00103760,-0.99803162,0.000000,0.183105,-0.183105
6151204041,0.01281738,-0.00103760,-0.99803162,0.061035,0.244141,-0.061035
6156266833,0.01272583,-0.00175476,-0.99722290,0.061035,0.244141,-0.061035
6161361041,0.01272583,-0.00175476,-0.99722290,0.000000,0.244141,-0.122070
6166428958,0.01335144,-0.00100708,-0.99772644,0.000000,0.244141,-0.122070
6171491375,0.01335144,-0.00100708,-0.99772644,-0.061035,0.061035,-0.244141
6176549625,0.01274109,-0.00152588,-0.99751282,-0.061035,0.061035,-0.244141
6181616833,0.01274109,-0.00152588,-0.99751282,0.000000,0.122070,-0.122070
6186680666,0.01304626,-0.00122070,-0.99858093,0.000000,0.122070,-0.122070
6191737916,0.01304626,-0.00122070,-0.99858093,0.122070,0.305176,-0.122070
6196810166,0.01263428,-0.00077820,-0.99798584,0.122070,0.305176,-0.122070
6201575250,0.01263428,-0.00077820,-0.99798584,0.061035,0.061035,-0.122070
6206640208,0.01196289,0.00085449,-0.99778748,0.061035,0.061035,-0.122070
6211697916,0.01196289,0.00085449,-0.99778748,0.061035,0.244141,-0.061035
6216757166,0.01191711,0.00288391,-0.99700928,0.061035,0.244141,-0.061035
6221816583,0.01191711,0.00288391,-0.99700928,0.061035,0.244141,-0.183105
6226884416,0.01145935,0.00302124,-0.99758911,0.061035,0.244141,-0.183105
6231955041,0.01145935,0.00302124,-0.99758911,0.000000,0.183105,-0.122070
6237017208,0.01268005,0.00311279,-0.99810791,0.000000,0.183105,-0.122070
6242079791,0.01268005,0.00311279,-0.99810791,0.000000,0.061035,-0.244141
6247199125,0.01387024,0.00399780,-0.99810791,0.000000,0.061035,-0.244141
6252277291,0.01387024,0.00399780,-0.99810791,0.122070,0.183105,-0.122070
6257363041,0.01269531,0.00427246,-0.99737549,0.122070,0.183105,-0.122070
6262428625,0.01269531,0.00427246,-0.99737549,0.000000,0.244141,-0.061035
6267488750,0.01448059,0.00309753,-0.99723816,0.000000,0.244141,-0.061035
6272553916,0.01448059,0.00309753,-0.99723816,0.000000,0.244141,-0.061035
6277610875,0.01351929,0.00100708,-0.99719238,0.000000,0.244141,-0.061035
6282673500,0.01351929,0.00100708,-0.99719238,0.183105,0.183105,-0.183105
6287741083,0.01269531,0.00028992,-0.99877930,0.183105,0.183105,-0.183105
6292797083,0.01269531,0.00028992,-0.99877930,0.122070,0.183105,-0.244141
6297863500,0.01242065,0.00032043,-0.99722290,0.122070,0.183105,-0.244141
6300397333,0.01242065,0.00032043,-0.99722290,0.000000,0.183105,-0.122070
6305454666,0.01188660,0.00016785,-0.99728394,0.000000,0.183105,-0.122070
6310520791,0.01188660,0.00016785,-0.99728394,0.061035,0.061035,-0.244141
6318121250,0.01173401,-0.00053406,-0.99758911,0.061035,0.061035,-0.244141
6320657750,0.01173401,-0.00053406,-0.99758911,-0.061035,0.244141,-0.061035
6325741000,0.01071167,0.00053406,-0.99739075,-0.061035,0.244141,-0.061035
6330799333,0.01071167,0.00053406,-0.99739075,0.061035,0.183105,-0.183105
6335854166,0.01197815,0.00108337,-0.99732971,0.061035,0.183105,-0.183105
6340910750,0.01197815,0.00108337,-0.99732971,0.183105,0.183105,-0.122070
6345971375,0.01272583,0.00131226,-0.99783325,0.183105,0.183105,-0.122070
6351032666,0.01272583,0.00131226,-0.99783325,0.000000,0.244141,0.061035
6356088458,0.01237488,0.00288391,-0.99874878,0.000000,0.244141,0.061035
6360978333,0.01237488,0.00288391,-0.99874878,0.061035,0.122070,0.000000
6366045750,0.01283264,0.00347900,-0.99816895,0.061035,0.122070,0.000000
6371104166,0.01283264,0.00347900,-0.99816895,0.061035,0.244141,-0.061035
6376161458,0.01216125,0.00410461,-0.99751282,0.061035,0.244141,-0.061035
6381217333,0.01216125,0.00410461,-0.99751282,0.061035,0.122070,-0.122070
6386273541,0.01239014,0.00373840,-0.99819946,0.061035,0.122070,-0.122070
6391345000,0.01239014,0.00373840,-0.99819946,4.821777,0.427246,-0.061035
6396412583,0.01284790,0.00303650,-0.99389648,4.821777,0.427246,-0.061035
6401477666,0.01284790,0.00303650,-0.99389648,-0.183105,0.000000,-0.122070
6406588958,0.01477051,-0.00027466,-0.97920227,-0.183105,0.000000,-0.122070
6411679708,0.01477051,-0.00027466,-0.97920227,0.305176,0.549316,-0.244141
6416762458,0.01356506,-0.00129700,-1.03657532,0.305176,0.549316,-0.244141
6421852125,0.01356506,-0.00129700,-1.03657532,-0.244141,0.122070,-0.061035
6426453791,0.01293945,-0.00151062,-0.97172546,-0.244141,0.122070,-0.061035
6431529000,0.01293945,-0.00151062,-0.97172546,0.061035,0.244141,-0.122070
6436596541,0.01264954,-0.00009155,-1.01614380,0.061035,0.244141,-0.122070
6441661208,0.01264954,-0.00009155,-1.01614380,0.061035,0.000000,-0.305176
6446742458,0.01124573,-0.00067139,-0.98817444,0.061035,0.000000,-0.305176
6451811541,0.01124573,-0.00067139,-0.98817444,-0.061035,0.061035,-0.183105
6456881416,0.01036072,0.00146484,-0.99859619,-0.061035,0.061035,-0.183105
6461951666,0.01036072,0.00146484,-0.99859619,0.061035,0.183105,-0.061035
6467013041,0.01159668,0.00239563,-0.99595642,0.061035,0.183105,-0.061035
6472082416,0.01159668,0.00239563,-0.99595642,0.244141,0.061035,-0.183105
6477142083,0.01141357,0.00265503,-0.99845886,0.244141,0.061035,-0.183105
6482199000,0.01141357,0.00265503,-0.99845886,0.122070,0.183105,-0.183105
6487268291,0.01243591,0.00454712,-0.99746704,0.122070,0.183105,-0.183105
6492334916,0.01243591,0.00454712,-0.99746704,0.000000,0.061035,-0.061035
6497392583,0.01263428,0.00599670,-0.99644470,0.000000,0.061035,-0.061035
6502475708,0.01263428,0.00599670,-0.99644470,0.061035,0.244141,-0.122070
6507543541,0.01229858,0.00312805,-1.00067139,0.061035,0.244141,-0.122070
6512605458,0.01229858,0.00312805,-1.00067139,0.122070,0.122070,-0.122070
6517683083,0.01223755,0.00186157,-0.99565125,0.122070,0.122070,-0.122070
6522315791,0.01223755,0.00186157,-0.99565125,-0.122070,0.122070,-0.183105
6527393000,0.01322937,0.00083923,-0.99848938,-0.122070,0.122070,-0.183105
6532535250,0.01322937,0.00083923,-0.99848938,0.000000,0.305176,0.000000
6537594250,0.01373291,-0.00160217,-0.99865723,0.000000,0.305176,0.000000
6542681500,0.01373291,-0.00160217,-0.99865723,0.061035,0.244141,-0.122070
6547752250,0.01263428,-0.00219727,-0.99642944,0.061035,0.244141,-0.122070
6552814958,0.01263428,-0.00219727,-0.99642944,0.000000,0.122070,-0.244141
6557881458,0.01246643,-0.00283813,-0.99766541,0.000000,0.122070,-0.244141
6562955750,0.01246643,-0.00283813,-0.99766541,-0.061035,0.122070,-0.122070
6568035166,0.01379395,-0.00311279,-0.99711609,-0.061035,0.122070,-0.122070
6570585208,0.01379395,-0.00311279,-0.99711609,-0.061035,0.244141,-0.183105
6575657958,0.01264954,-0.00100708,-0.99865723,-0.061035,0.244141,-0.183105
6580716416,0.01264954,-0.00100708,-0.99865723,0.061035,0.305176,-0.244141
6585777041,0.01199341,0.00068665,-0.99684143,0.061035,0.305176,-0.244141
6590857583,0.01199341,0.00068665,-0.99684143,-0.061035,0.183105,-0.244141
6595953791,0.01177979,0.00167847,-0.99749756,-0.061035,0.183105,-0.244141
6601020750,0.01177979,0.00167847,-0.99749756,0.000000,0.183105,-0.305176
6606079500,0.01185608,0.00323486,-1.00012207,0.000000,0.183105,-0.305176
6611134833,0.01185608,0.00323486,-1.00012207,0.122070,0.244141,-0.061035
6616193208,0.01252747,0.00375366,-0.99697876,0.122070,0.244141,-0.061035
6621252958,0.01252747,0.00375366,-0.99697876,0.122070,0.183105,-0.122070
6626312666,0.01284790,0.00410461,-0.99801636,0.122070,0.183105,-0.122070
6631392916,0.01284790,0.00410461,-0.99801636,0.000000,0.122070,-0.061035
6636495416,0.01141357,0.00439453,-0.99700928,0.000000,0.122070,-0.061035
6641564458,0.01141357,0.00439453,-0.99700928,0.183105,0.183105,-0.061035
6646620958,0.01181030,0.00428772,-0.99774170,0.183105,0.183105,-0.061035
6651678916,0.01181030,0.00428772,-0.99774170,-0.061035,0.183105,-0.061035
6656740958,0.01268005,0.00285339,-0.99813843,-0.061035,0.183105,-0.061035
6661816875,0.01268005,0.00285339,-0.99813843,0.122070,0.244141,-0.061035
6666915833,0.01382446,0.00134277,-0.99792480,0.122070,0.244141,-0.061035
6671987500,0.01382446,0.00134277,-0.99792480,0.000000,0.122070,-0.061035
6677104583,0.01335144,0.00053406,-0.99934387,0.000000,0.122070,-0.061035
6682172333,0.01335144,0.00053406,-0.99934387,0.061035,0.183105,0.000000
6687230208,0.01202393,0.00003052,-0.99801636,0.061035,0.183105,0.000000
6692315166,0.01202393,0.00003052,-0.99801636,-0.061035,0.244141,-0.122070
6697380041,0.01161194,-0.00068665,-0.99691772,-0.061035,0.244141,-0.122070
6702455208,0.01161194,-0.00068665,-0.99691772,0.061035,0.305176,-0.122070
6707736916,0.01229858,-0.00120544,-0.99670410,0.061035,0.305176,-0.122070
6712799625,0.01229858,-0.00120544,-0.99670410,-0.061035,0.183105,-0.122070
6717858875,0.01277161,-0.00241089,-0.99678040,-0.061035,0.183105,-0.122070
6722926708,0.01277161,-0.00241089,-0.99678040,0.061035,0.122070,-0.183105
6727998083,0.01280212,-0.00112915,-0.99876404,0.061035,0.122070,-0.183105
6733073625,0.01280212,-0.00112915,-0.99876404,0.061035,0.122070,-0.122070
6738139583,0.01216125,-0.00021362,-0.99844360,0.061035,0.122070,-0.122070
6743198416,0.01216125,-0.00021362,-0.99844360,0.000000,0.183105,-0.122070
6748254791,0.01271057,0.00039673,-0.99818420,0.000000,0.183105,-0.122070
6753326250,0.01271057,0.00039673,-0.99818420,-0.061035,0.183105,-0.122070
6758425875,0.01333618,0.00314331,-0.99856567,-0.061035,0.183105,-0.122070
6763488791,0.01333618,0.00314331,-0.99856567,0.122070,0.183105,-0.183105
6768548791,0.01333618,0.00379944,-0.99786377,0.122070,0.183105,-0.183105
6773611083,0.01333618,0.00379944,-0.99786377,0.000000,0.183105,-0.244141
6778667958,0.01313782,0.00520325,-0.99894714,0.000000,0.183105,-0.244141
6783786125,0.01313782,0.00520325,-0.99894714,-0.122070,0.244141,-0.122070
6788863000,0.01293945,0.00442505,-0.99763489,-0.122070,0.244141,-0.122070
6791406166,0.01293945,0.00442505,-0.99763489,0.061035,0.183105,-0.122070
6796474250,0.01249695,0.00355530,-0.99794006,0.061035,0.183105,-0.122070
6801535708,0.01249695,0.00355530,-0.99794006,0.183105,0.305176,0.061035
6806591625,0.01348877,0.00314331,-0.99858093,0.183105,0.305176,0.061035
6811652541,0.01348877,0.00314331,-0.99858093,0.183105,0.244141,-0.122070
6816710750,0.01229858,0.00140381,-0.99819946,0.183105,0.244141,-0.122070
6821785083,0.01229858,0.00140381,-0.99819946,0.183105,0.183105,-0.122070
6826853166,0.01232910,0.00035095,-0.99708557,0.183105,0.183105,-0.122070
6831917250,0.01232910,0.00035095,-0.99708557,0.061035,0.183105,-0.183105
6836996041,0.01242065,-0.00039673,-0.99902344,0.061035,0.183105,-0.183105
6842063250,0.01242065,-0.00039673,-0.99902344,0.061035,0.183105,-0.122070
6847147708,0.01217651,-0.00033569,-0.99887085,0.061035,0.183105,-0.122070
6852205583,0.01217651,-0.00033569,-0.99887085,0.122070,0.183105,-0.122070
6857261583,0.01295471,0.00000000,-0.99696350,0.122070,0.183105,-0.122070
6862319125,0.01295471,0.00000000,-0.99696350,0.122070,0.244141,-0.122070
6867385625,0.01309204,-0.00019836,-0.99787903,0.122070,0.244141,-0.122070
6872440666,0.01309204,-0.00019836,-0.99787903,0.061035,0.183105,-0.183105
6877497416,0.01197815,-0.00071716,-0.99815369,0.061035,0.183105,-0.183105
6882551791,0.01197815,-0.00071716,-0.99815369,0.122070,0.122070,-0.183105
6887607083,0.01234436,0.00109863,-0.99819946,0.122070,0.122070,-0.183105
6892662291,0.01234436,0.00109863,-0.99819946,0.061035,0.244141,-0.122070
6897726458,0.01210022,0.00265503,-0.99874878,0.061035,0.244141,-0.122070
6902799416,0.01210022,0.00265503,-0.99874878,-0.061035,0.122070,-0.122070
6907914500,0.01223755,0.00445557,-0.99752808,-0.061035,0.122070,-0.122070
6912986333,0.01223755,0.00445557,-0.99752808,0.183105,0.244141,-0.122070
6918053250,0.01232910,0.00547791,-0.99816895,0.183105,0.244141,-0.122070
6923116833,0.01232910,0.00547791,-0.99816895,0.305176,0.305176,-0.183105
6928175208,0.01210022,0.00451660,-0.98803711,0.305176,0.305176,-0.183105
6933238750,0.01210022,0.00451660,-0.98803711,-0.122070,-0.061035,-0.061035
6937937875,0.01365662,0.00076294,-0.98713684,-0.122070,-0.061035,-0.061035
6942996333,0.01365662,0.00076294,-0.98713684,-0.183105,0.122070,-0.061035
6947665166,0.01579285,-0.00251770,-1.02624512,-0.183105,0.122070,-0.061035
6952750708,0.01579285,-0.00251770,-1.02624512,-0.610352,0.122070,-0.122070
6957814208,0.01502991,-0.00115967,-0.99150085,-0.610352,0.122070,-0.122070
6962887416,0.01502991,-0.00115967,-0.99150085,-0.366211,0.305176,-0.183105
6967974250,0.01176453,-0.00022888,-0.99746704,-0.366211,0.305176,-0.183105
6973038583,0.01176453,-0.00022888,-0.99746704,0.061035,0.244141,-0.122070
6978097541,0.01029968,-0.00090027,-0.99339294,0.061035,0.244141,-0.122070
6983161541,0.01029968,-0.00090027,-0.99339294,0.061035,0.122070,-0.183105
6988218291,0.01133728,0.00096130,-0.99600220,0.061035,0.122070,-0.183105
6993273208,0.01133728,0.00096130,-0.99600220,-0.061035,0.244141,-0.061035
6998330958,0.01333618,0.00291443,-0.99900818,-0.061035,0.244141,-0.061035
7003387166,0.01333618,0.00291443,-0.99900818,-0.061035,0.244141,-0.061035
7008441500,0.01271057,0.00265503,-0.99612427,-0.061035,0.244141,-0.061035
7013519916,0.01271057,0.00265503,-0.99612427,0.000000,0.061035,-0.122070
7018574125,0.01284790,0.00411987,-0.99877930,0.000000,0.061035,-0.122070
7023630416,0.01284790,0.00411987,-0.99877930,-0.061035,0.122070,0.000000
7028687458,0.01252747,0.00465393,-0.99787903,-0.061035,0.122070,0.000000
7033749541,0.01252747,0.00465393,-0.99787903,-0.061035,0.244141,-0.122070
7038810708,0.01242065,0.00292969,-0.99780273,-0.061035,0.244141,-0.122070
7043879500,0.01242065,0.00292969,-0.99780273,0.427246,0.183105,-0.122070
7048954875,0.01097107,0.00151062,-0.99760437,0.427246,0.183105,-0.122070
7054033791,0.01097107,0.00151062,-0.99760437,0.000000,0.122070,-0.244141
7058928125,0.01232910,-0.00050354,-0.99501038,0.000000,0.122070,-0.244141
7064012166,0.01232910,-0.00050354,-0.99501038,0.122070,0.122070,-0.183105
7069072333,0.01446533,-0.00090027,-1.00413513,0.122070,0.122070,-0.183105
7074147208,0.01446533,-0.00090027,-1.00413513,0.061035,0.183105,-0.183105
7079220833,0.01268005,-0.00076294,-0.99073792,0.061035,0.183105,-0.183105
7081761083,0.01268005,-0.00076294,-0.99073792,0.000000,0.305176,0.000000
7086817166,0.01296997,-0.00044250,-0.99806213,0.000000,0.305176,0.000000
7091903125,0.01296997,-0.00044250,-0.99806213,0.183105,0.122070,-0.061035
7096964291,0.01281738,0.00080872,-0.99685669,0.183105,0.122070,-0.061035
7101720125,0.01281738,0.00080872,-0.99685669,-0.061035,0.305176,-0.122070
7106790166,0.01248169,0.00134277,-0.99868774,-0.061035,0.305176,-0.122070
7111864000,0.01248169,0.00134277,-0.99868774,0.000000,0.305176,0.061035
7116926125,0.01118469,0.00177002,-0.99789429,0.000000,0.305176,0.061035
7121986375,0.01118469,0.00177002,-0.99789429,0.061035,0.244141,-0.061035
7127072375,0.01193237,0.00128174,-0.99717712,0.061035,0.244141,-0.061035
7132142041,0.01193237,0.00128174,-0.99717712,0.000000,0.061035,-0.061035
7137202333,0.01136780,0.00114441,-0.99920654,0.000000,0.061035,-0.061035
7142261333,0.01136780,0.00114441,-0.99920654,0.000000,0.244141,-0.122070
7147102625,0.01219177,0.00157166,-0.99772644,0.000000,0.244141,-0.122070
7152182125,0.01219177,0.00157166,-0.99772644,0.061035,0.244141,-0.061035
7157240833,0.01351929,0.00193787,-0.99809265,0.061035,0.244141,-0.061035
7162297666,0.01351929,0.00193787,-0.99809265,0.061035,0.122070,-0.122070
7167359958,0.01348877,0.00390625,-0.99859619,0.061035,0.122070,-0.122070
7172428875,0.01348877,0.00390625,-0.99859619,0.183105,0.183105,-0.183105
7177490708,0.01249695,0.00239563,-0.99801636,0.183105,0.183105,-0.183105
7182555541,0.01249695,0.00239563,-0.99801636,0.000000,0.183105,-0.061035
7187623375,0.01332092,0.00088501,-0.99766541,0.000000,0.183105,-0.061035
7192680916,0.01332092,0.00088501,-0.99766541,0.122070,0.244141,-0.183105
7197741500,0.01315308,0.00148010,-0.99815369,0.122070,0.244141,-0.183105
7202800791,0.01315308,0.00148010,-0.99815369,0.061035,0.305176,-0.122070
7207914708,0.01203918,0.00172424,-0.99752808,0.061035,0.305176,-0.122070
7212979041,0.01203918,0.00172424,-0.99752808,0.061035,0.183105,-0.122070
7218040541,0.01289368,0.00123596,-0.99696350,0.061035,0.183105,-0.122070
7223154208,0.01289368,0.00123596,-0.99696350,0.122070,0.183105,-0.122070
7228250125,0.01210022,-0.00022888,-0.99731445,0.122070,0.183105,-0.122070
7233323500,0.01210022,-0.00022888,-0.99731445,-0.061035,0.244141,-0.061035
7238391083,0.01289368,-0.00012207,-0.99813843,-0.061035,0.244141,-0.061035
7243457375,0.01289368,-0.00012207,-0.99813843,0.000000,0.122070,-0.244141
7248517583,0.01300049,0.00015259,-0.99748230,0.000000,0.122070,-0.244141
7253579208,0.01300049,0.00015259,-0.99748230,0.122070,0.244141,-0.183105
7258636791,0.01278687,0.00071716,-0.99687195,0.122070,0.244141,-0.183105
7263703916,0.01278687,0.00071716,-0.99687195,0.061035,0.305176,-0.183105
7268764333,0.01231384,0.00105286,-0.99783325,0.061035,0.305176,-0.183105
7273823000,0.01231384,0.00105286,-0.99783325,-0.061035,0.244141,-0.122070
7278882208,0.01260376,0.00091553,-0.99760437,-0.061035,0.244141,-0.122070
7283943750,0.01260376,0.00091553,-0.99760437,0.000000,0.244141,0.000000
7289008708,0.01194763,0.00119019,-0.99813843,0.000000,0.244141,0.000000
7294067208,0.01194763,0.00119019,-0.99813843,0.000000,0.305176,-0.061035
7299124833,0.01208496,0.00289917,-0.99842834,0.000000,0.305176,-0.061035
7304181208,0.01208496,0.00289917,-0.99842834,0.122070,0.183105,-0.122070
7309237750,0.01312256,0.00282288,-0.99777222,0.122070,0.183105,-0.122070
7314294666,0.01312256,0.00282288,-0.99777222,0.122070,0.122070,-0.183105
7319352083,0.01368713,0.00239563,-0.99726868,0.122070,0.122070,-0.183105
7324407500,0.01368713,0.00239563,-0.99726868,0.000000,0.183105,-0.305176
7329481958,0.01217651,0.00326538,-0.99714661,0.000000,0.183105,-0.305176
7334546000,0.01217651,0.00326538,-0.99714661,0.061035,0.244141,-0.122070
7339621125,0.01251221,0.00296021,-0.99829102,0.061035,0.244141,-0.122070
7344681291,0.01251221,0.00296021,-0.99829102,0.122070,0.244141,-0.122070
7349764875,0.01277161,0.00100708,-0.99667358,0.122070,0.244141,-0.122070
7354822750,0.01277161,0.00100708,-0.99667358,0.122070,0.061035,-0.183105
7357357625,0.01319885,0.00140381,-0.99752808,0.122070,0.061035,-0.183105
7362414666,0.01319885,0.00140381,-0.99752808,-0.061035,0.000000,-0.122070
7367488416,0.01325989,0.00080872,-0.99714661,-0.061035,0.000000,-0.122070
7372556500,0.01325989,0.00080872,-0.99714661,0.000000,0.305176,-0.122070
7377620125,0.01237488,0.00122070,-0.99815369,0.000000,0.305176,-0.122070
7382678000,0.01237488,0.00122070,-0.99815369,0.061035,0.183105,-0.183105
7387737208,0.01210022,0.00080872,-0.99812317,0.061035,0.183105,-0.183105
7392794333,0.01210022,0.00080872,-0.99812317,0.000000,0.244141,-0.122070
7397850625,0.01168823,-0.00033569,-0.99766541,0.000000,0.244141,-0.122070
7402906833,0.01168823,-0.00033569,-0.99766541,0.061035,0.183105,-0.122070
7407963583,0.01119995,0.00003052,-0.99775696,0.061035,0.183105,-0.122070
7413031625,0.01119995,0.00003052,-0.99775696,0.000000,0.244141,-0.183105
7418088083,0.01104736,0.00000000,-0.99673462,0.000000,0.244141,-0.183105
7423145458,0.01104736,0.00000000,-0.99673462,0.000000,0.061035,0.000000
7428219916,0.01252747,0.00192261,-0.99716187,0.000000,0.061035,0.000000
7433291166,0.01252747,0.00192261,-0.99716187,0.183105,0.183105,-0.122070
7438347291,0.01321411,0.00250244,-0.99777222,0.183105,0.183105,-0.122070
7443411666,0.01321411,0.00250244,-0.99777222,0.061035,0.183105,-0.122070
7448470333,0.01264954,0.00209045,-0.99819946,0.061035,0.183105,-0.122070
7453525291,0.01264954,0.00209045,-0.99819946,-0.122070,0.244141,-0.122070
7458581291,0.01199341,0.00308228,-0.99775696,-0.122070,0.244141,-0.122070
7463651875,0.01199341,0.00308228,-0.99775696,0.000000,0.183105,-0.183105
7468728208,0.01234436,0.00294495,-0.99723816,0.000000,0.183105,-0.183105
7473793625,0.01234436,0.00294495,-0.99723816,0.000000,0.244141,-0.061035
7478849458,0.01344299,0.00289917,-0.99769592,0.000000,0.244141,-0.061035
7483911250,0.01344299,0.00289917,-0.99769592,0.061035,0.305176,0.000000
7488987958,0.01319885,0.00244141,-0.99789429,0.061035,0.305176,0.000000
7494051375,0.01319885,0.00244141,-0.99789429,0.122070,0.305176,-0.122070
7499121708,0.01156616,0.00215149,-0.99707031,0.122070,0.305176,-0.122070
7504181541,0.01156616,0.00215149,-0.99707031,0.549316,0.366211,-0.122070
7509245125,0.01193237,0.00236511,-0.98957825,0.549316,0.366211,-0.122070
7514319333,0.01193237,0.00236511,-0.98957825,0.244141,0.122070,-0.244141
7519401875,0.01362610,-0.00132751,-0.98774719,0.244141,0.122070,-0.244141
7524486083,0.01362610,-0.00132751,-0.98774719,-0.061035,0.183105,-0.122070
7529561875,0.01422119,-0.00344849,-1.02111816,-0.061035,0.183105,-0.122070
7534638791,0.01422119,-0.00344849,-1.02111816,-0.427246,0.183105,-0.122070
7539722333,0.01283264,-0.00239563,-0.99464417,-0.427246,0.183105,-0.122070
7544795875,0.01283264,-0.00239563,-0.99464417,-0.122070,0.305176,-0.122070
7549865625,0.01116943,-0.00158691,-0.99847412,-0.122070,0.305176,-0.122070
7554921541,0.01116943,-0.00158691,-0.99847412,0.061035,0.061035,-0.244141
7559994791,0.01066589,-0.00068665,-0.99307251,0.061035,0.061035,-0.244141
7565059375,0.01066589,-0.00068665,-0.99307251,0.061035,0.244141,-0.183105
7570147958,0.01135254,0.00257874,-0.99751282,0.061035,0.244141,-0.183105
7572750500,0.01135254,0.00257874,-0.99751282,0.244141,0.244141,-0.061035
7577839666,0.01361084,0.00311279,-0.99761963,0.244141,0.244141,-0.061035
7582929791,0.01361084,0.00311279,-0.99761963,-0.061035,0.183105,-0.122070
7587994250,0.01412964,0.00238037,-0.99813843,-0.061035,0.183105,-0.122070
7593055125,0.01412964,0.00238037,-0.99813843,-0.061035,0.244141,0.000000
7598115625,0.01263428,0.00454712,-0.99784851,-0.061035,0.244141,0.000000
7603191000,0.01263428,0.00454712,-0.99784851,0.671387,0.122070,-0.183105
7608259583,0.01325989,0.00529480,-0.99737549,0.671387,0.122070,-0.183105
7613323083,0.01325989,0.00529480,-0.99737549,0.244141,0.061035,-0.061035
7618404458,0.01307678,0.00282288,-0.99688721,0.244141,0.061035,-0.061035
7623469583,0.01307678,0.00282288,-0.99688721,0.061035,0.244141,-0.061035
7628541666,0.01159668,0.00157166,-1.00099182,0.061035,0.244141,-0.061035
7633612250,0.01159668,0.00157166,-1.00099182,0.183105,0.183105,0.000000
7638677375,0.01216125,0.00167847,-0.99383545,0.183105,0.183105,0.000000
7643739208,0.01216125,0.00167847,-0.99383545,0.061035,0.244141,-0.122070
7648801291,0.01287842,-0.00007629,-0.99882507,0.061035,0.244141,-0.122070
7653873125,0.01287842,-0.00007629,-0.99882507,0.000000,0.183105,-0.061035
7658953583,0.01429749,-0.00122070,-0.99700928,0.000000,0.183105,-0.061035
7664027416,0.01429749,-0.00122070,-0.99700928,0.061035,0.305176,-0.061035
7669090250,0.01429749,-0.00105286,-0.99688721,0.061035,0.305176,-0.061035
7674150500,0.01429749,-0.00105286,-0.99688721,0.061035,0.305176,-0.122070
7679209666,0.01263428,-0.00094604,-0.99951172,0.061035,0.305176,-0.122070
7684283041,0.01263428,-0.00094604,-0.99951172,0.000000,0.183105,-0.183105
7689391458,0.01231384,-0.00032043,-0.99710083,0.000000,0.183105,-0.183105
7694455291,0.01231384,-0.00032043,-0.99710083,0.061035,0.305176,-0.122070
7699545666,0.01123047,0.00100708,-0.99606323,0.061035,0.305176,-0.122070
7704602375,0.01123047,0.00100708,-0.99606323,0.000000,0.305176,-0.122070
7709678041,0.01150513,0.00128174,-0.99729919,0.000000,0.305176,-0.122070
7714736500,0.01150513,0.00128174,-0.99729919,0.122070,0.183105,-0.244141
7719793500,0.01217651,0.00201416,-0.99925232,0.122070,0.183105,-0.244141
7724851000,0.01217651,0.00201416,-0.99925232,0.000000,0.122070,-0.183105
7729914666,0.01287842,0.00239563,-0.99760437,0.000000,0.122070,-0.183105
7734983333,0.01287842,0.00239563,-0.99760437,0.122070,0.183105,-0.061035
7740045666,0.01327515,0.00317383,-0.99725342,0.122070,0.183105,-0.061035
7745106500,0.01327515,0.00317383,-0.99725342,0.061035,0.000000,-0.122070
7750181916,0.01325989,0.00451660,-0.99726868,0.061035,0.000000,-0.122070
7755248958,0.01325989,0.00451660,-0.99726868,0.000000,0.244141,-0.122070
7760327916,0.01293945,0.00341797,-0.99615479,0.000000,0.244141,-0.122070
7765390291,0.01293945,0.00341797,-0.99615479,0.000000,0.244141,-0.061035
7770471000,0.01264954,0.00190735,-0.99673462,0.000000,0.244141,-0.061035
7775544291,0.01264954,0.00190735,-0.99673462,-0.061035,0.244141,-0.305176
7780621125,0.01271057,0.00196838,-0.99774170,-0.061035,0.244141,-0.305176
7785694166,0.01271057,0.00196838,-0.99774170,0.000000,0.183105,-0.061035
7790767083,0.01374817,0.00164795,-0.99761963,0.000000,0.183105,-0.061035
7795839791,0.01374817,0.00164795,-0.99761963,0.061035,0.305176,-0.061035
7798374541,0.01249695,0.00016785,-0.99650574,0.061035,0.305176,-0.061035
7803432166,0.01249695,0.00016785,-0.99650574,-0.061035,0.183105,-0.061035
7808492000,0.01136780,0.00010681,-0.99716187,-0.061035,0.183105,-0.061035
7813557916,0.01136780,0.00010681,-0.99716187,0.000000,0.122070,-0.061035
7818617708,0.01260376,0.00038147,-0.99755859,0.000000,0.122070,-0.061035
7823679166,0.01260376,0.00038147,-0.99755859,-0.061035,0.244141,-0.244141
7828737625,0.01243591,-0.00073242,-0.99755859,-0.061035,0.244141,-0.244141
7833799500,0.01243591,-0.00073242,-0.99755859,0.061035,0.244141,-0.244141
7838916875,0.01210022,0.00018311,-0.99809265,0.061035,0.244141,-0.244141
7843988416,0.01210022,0.00018311,-0.99809265,0.061035,0.305176,-0.183105
7849051333,0.01208496,0.00106812,-0.99723816,0.061035,0.305176,-0.183105
7854121416,0.01208496,0.00106812,-0.99723816,0.000000,0.244141,-0.122070
7859178500,0.01303101,0.00129700,-0.99833679,0.000000,0.244141,-0.122070
7864235208,0.01303101,0.00129700,-0.99833679,0.000000,0.183105,-0.122070
7869292500,0.01290894,0.00152588,-0.99832153,0.000000,0.183105,-0.122070
7874349500,0.01290894,0.00152588,-0.99832153,0.000000,0.183105,-0.061035
7879406541,0.01284790,0.00228882,-0.99841309,0.000000,0.183105,-0.061035
7884501250,0.01284790,0.00228882,-0.99841309,0.061035,0.183105,-0.244141
7889595625,0.01245117,0.00282288,-0.99794006,0.061035,0.183105,-0.244141
7894673791,0.01245117,0.00282288,-0.99794006,0.061035,0.183105,-0.244141
7899741833,0.01266479,0.00234985,-0.99784851,0.061035,0.183105,-0.244141
7904808541,0.01266479,0.00234985,-0.99784851,0.122070,0.305176,-0.061035
7909877916,0.01248169,0.00173950,-0.99774170,0.122070,0.305176,-0.061035
7914463083,0.01248169,0.00173950,-0.99774170,-0.061035,0.305176,-0.183105
7919549583,0.01264954,0.00161743,-0.99870300,-0.061035,0.305176,-0.183105
7924628750,0.01264954,0.00161743,-0.99870300,0.061035,0.122070,-0.122070
7929718833,0.01342773,0.00155640,-0.99853516,0.061035,0.122070,-0.122070
7934813916,0.01342773,0.00155640,-0.99853516,0.061035,0.183105,-0.122070
7939883125,0.01217651,0.00151062,-0.99761963,0.061035,0.183105,-0.122070
7944946041,0.01217651,0.00151062,-0.99761963,-0.061035,0.122070,-0.122070
7950003958,0.01315308,0.00137329,-0.99729919,-0.061035,0.122070,-0.122070
7955072416,0.01315308,0.00137329,-0.99729919,0.122070,0.366211,-0.122070
7960159666,0.01332092,0.00149536,-0.99778748,0.122070,0.366211,-0.122070
7965220333,0.01332092,0.00149536,-0.99778748,0.000000,0.244141,-0.122070
7970279000,0.01147461,0.00044250,-0.99795532,0.000000,0.244141,-0.122070
7975337958,0.01147461,0.00044250,-0.99795532,0.000000,0.305176,0.061035
7980404875,0.01170349,-0.00071716,-0.99758911,0.000000,0.305176,0.061035
7985477208,0.01170349,-0.00071716,-0.99758911,-0.061035,0.061035,-0.244141
7990541291,0.01196289,0.00010681,-0.99766541,-0.061035,0.061035,-0.244141
7995598666,0.01196289,0.00010681,-0.99766541,0.122070,0.122070,-0.244141
8000657375,0.01246643,0.00138855,-0.99803162,0.122070,0.122070,-0.244141
8005715250,0.01246643,0.00138855,-0.99803162,0.000000,0.122070,-0.122070
8010772791,0.01278687,0.00181580,-0.99702454,0.000000,0.122070,-0.122070
8015532875,0.01278687,0.00181580,-0.99702454,0.122070,0.122070,-0.061035
8020315791,0.01359558,0.00230408,-0.99797058,0.122070,0.122070,-0.061035
8025391000,0.01359558,0.00230408,-0.99797058,0.122070,0.305176,-0.122070
8030494125,0.01258850,0.00285339,-0.99752808,0.122070,0.305176,-0.122070
8035569541,0.01258850,0.00285339,-0.99752808,0.000000,0.305176,-0.061035
8040628875,0.01277161,0.00317383,-0.99847412,0.000000,0.305176,-0.061035
8045689833,0.01277161,0.00317383,-0.99847412,0.122070,0.183105,0.000000
8050755791,0.01293945,0.00329590,-0.99627686,0.122070,0.183105,0.000000
8055845583,0.01293945,0.00329590,-0.99627686,0.122070,0.183105,-0.122070
8060906958,0.01232910,0.00335693,-0.99766541,0.122070,0.183105,-0.122070
8065972958,0.01232910,0.00335693,-0.99766541,0.000000,0.122070,-0.061035
8071038541,0.01287842,0.00337219,-0.99876404,0.000000,0.122070,-0.061035
8076095708,0.01287842,0.00337219,-0.99876404,0.061035,0.244141,-0.183105
8081169708,0.01206970,0.00289917,-0.99618530,0.061035,0.244141,-0.183105
8086260333,0.01206970,0.00289917,-0.99618530,0.793457,0.366211,-0.122070
8091326625,0.01245117,0.00170898,-0.99473572,0.793457,0.366211,-0.122070
8093863958,0.01245117,0.00170898,-0.99473572,-1.464844,0.122070,-0.061035
8098950458,0.01327515,-0.00083923,-0.97776794,-1.464844,0.122070,-0.061035
8104038208,0.01327515,-0.00083923,-0.97776794,-0.061035,-0.427246,-0.305176
8109107000,0.01405334,-0.00502014,-1.02645874,-0.061035,-0.427246,-0.305176
8114179000,0.01405334,-0.00502014,-1.02645874,-0.671387,0.061035,-0.122070
8119257708,0.01455688,-0.00349426,-0.99725342,-0.671387,0.061035,-0.122070
8124330875,0.01455688,-0.00349426,-0.99725342,-0.061035,0.244141,-0.244141
8131927541,0.01104736,-0.00079346,-0.99871826,-0.061035,0.244141,-0.244141
8134472583,0.01104736,-0.00079346,-0.99871826,-0.183105,0.244141,-0.122070
8139533166,0.00958252,-0.00114441,-0.98542786,-0.183105,0.244141,-0.122070
8144596333,0.00958252,-0.00114441,-0.98542786,0.000000,0.244141,0.061035
8149658583,0.01069641,0.00210571,-1.00517273,0.000000,0.244141,0.061035
8154713833,0.01069641,0.00210571,-1.00517273,0.061035,0.122070,-0.122070
8159769833,0.01177979,0.00436401,-0.99745178,0.061035,0.122070,-0.122070
8164824791,0.01177979,0.00436401,-0.99745178,0.000000,0.183105,-0.122070
8169882041,0.01280212,0.00494385,-1.00054932,0.000000,0.183105,-0.122070
8174951166,0.01280212,0.00494385,-1.00054932,-0.061035,0.183105,-0.183105
8180010875,0.01268005,0.00457764,-0.99639893,-0.061035,0.183105,-0.183105
8185145583,0.01268005,0.00457764,-0.99639893,0.183105,0.305176,-0.061035
8190210458,0.01309204,0.00524902,-0.99931335,0.183105,0.305176,-0.061035
8195269833,0.01309204,0.00524902,-0.99931335,-0.244141,0.488281,0.000000
8200367416,0.01368713,0.00508118,-0.99421692,-0.244141,0.488281,0.000000
