timestamp_ns,accel_x,accel_y,accel_z,gyro_x,gyro_y,gyro_z
84735083,0.01463318,0.00271606,-0.99453735,0.000000,0.000000,0.000000
92536791,0.01463318,0.00271606,-0.99453735,0.122070,0.122070,-0.122070
103611291,0.01350403,0.00297546,-0.99388123,0.061035,0.122070,-0.122070
106288625,0.01242065,0.00378418,-0.99430847,0.000000,0.122070,-0.061035
114722000,0.01138306,0.00367737,-0.99499512,0.000000,0.122070,-0.061035
117253166,0.01138306,0.00367737,-0.99499512,0.122070,0.244141,-0.061035
122620958,0.01098633,0.00381470,-0.99505615,0.122070,0.244141,-0.061035
129750958,0.01098633,0.00381470,-0.99505615,0.122070,0.244141,-0.061035
132295250,0.01184082,0.00404358,-0.99623108,0.122070,0.244141,-0.061035
137659708,0.01184082,0.00404358,-0.99623108,0.122070,0.305176,-0.061035
142712291,0.01274109,0.00442505,-0.99580383,0.122070,0.305176,-0.061035
147771166,0.01274109,0.00442505,-0.99580383,0.061035,0.122070,-0.061035
152830125,0.01417542,0.00369263,-0.99449158,0.061035,0.122070,-0.061035
157860666,0.01417542,0.00369263,-0.99449158,0.183105,0.183105,-0.061035
162886708,0.01358032,0.00334167,-0.99391174,0.183105,0.183105,-0.061035
167934250,0.01358032,0.00334167,-0.99391174,0.061035,0.122070,-0.244141
172986041,0.01353455,0.00395203,-0.99415588,0.061035,0.122070,-0.244141
178045125,0.01353455,0.00395203,-0.99415588,0.244141,0.122070,0.000000
183064875,0.01367188,0.00312805,-0.99482727,0.244141,0.122070,0.000000
188087875,0.01367188,0.00312805,-0.99482727,0.122070,0.244141,-0.061035
193130541,0.01295471,0.00390625,-0.99472046,0.122070,0.244141,-0.061035
198152000,0.01295471,0.00390625,-0.99472046,-0.061035,0.244141,-0.122070
203173833,0.01362610,0.00395203,-0.99482727,-0.061035,0.244141,-0.122070
208202000,0.01362610,0.00395203,-0.99482727,0.671387,0.305176,-0.183105
213229291,0.01292419,0.00520325,-0.99761963,0.671387,0.305176,-0.183105
218248000,0.01292419,0.00520325,-0.99761963,-0.122070,0.122070,-0.061035
223263750,0.01252747,0.00599670,-0.99162292,-0.122070,0.122070,-0.061035
228291916,0.01252747,0.00599670,-0.99162292,0.061035,0.305176,-0.122070
233322833,0.01237488,0.00471497,-0.99777222,0.061035,0.305176,-0.122070
238369625,0.01237488,0.00471497,-0.99777222,0.061035,0.183105,-0.244141
243425916,0.01327515,0.00382996,-0.99444580,0.061035,0.183105,-0.244141
248469541,0.01327515,0.00382996,-0.99444580,0.122070,0.183105,-0.061035
253528125,0.01387024,0.00257874,-0.99658203,0.122070,0.183105,-0.061035
258591291,0.01387024,0.00257874,-0.99658203,0.000000,0.366211,-0.122070
263661583,0.01359558,0.00231934,-0.99436951,0.000000,0.366211,-0.122070
268728958,0.01359558,0.00231934,-0.99436951,0.061035,0.183105,-0.183105
273783291,0.01344299,0.00321960,-0.99516296,0.061035,0.183105,-0.183105
278851125,0.01344299,0.00321960,-0.99516296,0.244141,0.061035,-0.183105
283924916,0.01402283,0.00347900,-0.99569702,0.244141,0.061035,-0.183105
288997541,0.01402283,0.00347900,-0.99569702,0.183105,0.122070,-0.061035
294045708,0.01336670,0.00344849,-0.99508667,0.183105,0.122070,-0.061035
299098708,0.01336670,0.00344849,-0.99508667,-0.305176,0.183105,-0.061035
304136375,0.01367188,0.00415039,-0.99380493,-0.305176,0.183105,-0.061035
309260125,0.01367188,0.00415039,-0.99380493,0.122070,0.244141,-0.183105
314296666,0.01362610,0.00590515,-0.99859619,0.122070,0.244141,-0.183105
319328250,0.01362610,0.00590515,-0.99859619,0.305176,0.183105,-0.061035
324361375,0.01309204,0.00613403,-0.99174500,0.305176,0.183105,-0.061035
329398708,0.01309204,0.00613403,-0.99174500,0.061035,0.122070,-0.122070
334465750,0.01268005,0.00628662,-0.99592590,0.061035,0.122070,-0.122070
336993791,0.01268005,0.00628662,-0.99592590,0.061035,0.244141,-0.061035
342019458,0.01153564,0.00590515,-0.99465942,0.061035,0.244141,-0.061035
347045500,0.01153564,0.00590515,-0.99465942,0.122070,0.305176,-0.061035
352070000,0.01252747,0.00505066,-0.99612427,0.122070,0.305176,-0.061035
357091750,0.01252747,0.00505066,-0.99612427,0.122070,0.122070,-0.183105
364572375,0.01263428,0.00343323,-0.99513245,0.122070,0.122070,-0.183105
367088583,0.01263428,0.00343323,-0.99513245,0.000000,0.244141,-0.061035
372111708,0.01304626,0.00331116,-0.99415588,0.000000,0.244141,-0.061035
377134791,0.01304626,0.00331116,-0.99415588,0.000000,0.183105,-0.183105
382173916,0.01419067,0.00277710,-0.99497986,0.000000,0.183105,-0.183105
387220208,0.01419067,0.00277710,-0.99497986,0.122070,0.122070,-0.122070
392265458,0.01383972,0.00164795,-0.99516296,0.122070,0.122070,-0.122070
397307208,0.01383972,0.00164795,-0.99516296,0.122070,0.305176,-0.122070
402345208,0.01388550,0.00091553,-0.99499512,0.122070,0.305176,-0.122070
407374041,0.01388550,0.00091553,-0.99499512,0.000000,0.061035,-0.122070
412403916,0.01292419,0.00141907,-0.99606323,0.000000,0.061035,-0.122070
417430958,0.01292419,0.00141907,-0.99606323,0.000000,0.183105,-0.183105
422472458,0.01293945,0.00172424,-0.99485779,0.000000,0.183105,-0.183105
427523625,0.01293945,0.00172424,-0.99485779,-0.061035,0.183105,-0.122070
432556625,0.01361084,0.00259399,-0.99395752,-0.061035,0.183105,-0.122070
437712875,0.01361084,0.00259399,-0.99395752,0.183105,0.183105,0.000000
442697666,0.01371765,0.00282288,-0.99333191,0.183105,0.183105,0.000000
447799666,0.01371765,0.00282288,-0.99333191,0.061035,0.244141,-0.061035
452881250,0.01367188,0.00462341,-0.99491882,0.061035,0.244141,-0.061035
457946625,0.01367188,0.00462341,-0.99491882,0.061035,0.183105,-0.122070
463027750,0.01303101,0.00566101,-0.99562073,0.061035,0.183105,-0.122070
468212333,0.01303101,0.00566101,-0.99562073,0.000000,0.122070,-0.122070
473368291,0.01431274,0.00666809,-0.99574280,0.000000,0.122070,-0.122070
478525416,0.01431274,0.00666809,-0.99574280,0.061035,0.183105,-0.122070
484241958,0.01406860,0.00628662,-0.99424744,0.061035,0.183105,-0.122070
489399791,0.01406860,0.00628662,-0.99424744,0.122070,0.244141,0.000000
494520333,0.01379395,0.00592041,-0.99472046,0.122070,0.244141,0.000000
499651458,0.01379395,0.00592041,-0.99472046,0.122070,0.244141,-0.183105
502210250,0.01446533,0.00531006,-0.99478149,0.122070,0.244141,-0.183105
510673458,0.01446533,0.00531006,-0.99478149,0.122070,0.183105,-0.122070
522653041,0.01387024,0.00379944,-0.99470520,0.061035,0.244141,-0.061035
525211958,0.01409912,0.00238037,-0.99414062,0.061035,0.244141,-0.061035
527758250,0.01409912,0.00238037,-0.99414062,0.061035,0.122070,-0.122070
532813500,0.01361084,0.00213623,-0.99540710,0.061035,0.122070,-0.122070
537867250,0.01361084,0.00213623,-0.99540710,0.000000,0.183105,-0.183105
542915916,0.01345825,0.00187683,-0.99481201,0.000000,0.183105,-0.183105
547917208,0.01345825,0.00187683,-0.99481201,0.061035,0.183105,-0.183105
552956875,0.01335144,0.00149536,-0.99580383,0.061035,0.183105,-0.183105
558095958,0.01335144,0.00149536,-0.99580383,-0.061035,0.183105,-0.061035
562906666,0.01341248,0.00210571,-0.99559021,-0.061035,0.183105,-0.061035
568032375,0.01341248,0.00210571,-0.99559021,0.000000,0.122070,-0.122070
573159791,0.01385498,0.00190735,-0.99519348,0.000000,0.122070,-0.122070
578266416,0.01385498,0.00190735,-0.99519348,0.061035,0.305176,-0.061035
583354333,0.01348877,0.00321960,-0.99516296,0.061035,0.305176,-0.061035
588433791,0.01348877,0.00321960,-0.99516296,-0.061035,0.122070,-0.122070
593507666,0.01382446,0.00462341,-0.99487305,-0.061035,0.122070,-0.122070
598626500,0.01382446,0.00462341,-0.99487305,0.061035,0.244141,-0.061035
604198333,0.01364136,0.00473022,-0.99525452,0.061035,0.244141,-0.061035
609528541,0.01364136,0.00473022,-0.99525452,0.183105,0.122070,-0.122070
614757625,0.01339722,0.00448608,-0.99520874,0.183105,0.122070,-0.122070
619953708,0.01339722,0.00448608,-0.99520874,0.061035,0.183105,-0.122070
622537500,0.01306152,0.00511169,-0.99583435,0.061035,0.183105,-0.122070
627644833,0.01306152,0.00511169,-0.99583435,-0.061035,0.183105,0.000000
632729375,0.01266479,0.00454712,-0.99452209,-0.061035,0.183105,0.000000
637799916,0.01266479,0.00454712,-0.99452209,0.183105,0.244141,-0.061035
642873500,0.01301575,0.00430298,-0.99546814,0.183105,0.244141,-0.061035
647951916,0.01301575,0.00430298,-0.99546814,-0.061035,0.305176,-0.122070
653021166,0.01322937,0.00407410,-0.99519348,-0.061035,0.305176,-0.122070
658108625,0.01322937,0.00407410,-0.99519348,0.000000,0.244141,0.000000
663180875,0.01306152,0.00338745,-0.99501038,0.000000,0.244141,0.000000
668258250,0.01306152,0.00338745,-0.99501038,0.183105,0.244141,-0.122070
673317916,0.01367188,0.00271606,-0.99507141,0.183105,0.244141,-0.122070
678379541,0.01367188,0.00271606,-0.99507141,0.122070,0.244141,-0.061035
683439500,0.01319885,0.00271606,-0.99513245,0.122070,0.244141,-0.061035
688499166,0.01319885,0.00271606,-0.99513245,0.061035,0.244141,-0.183105
693559291,0.01390076,0.00318909,-0.99389648,0.061035,0.244141,-0.183105
698619833,0.01390076,0.00318909,-0.99389648,0.061035,0.122070,-0.183105
703677625,0.01383972,0.00320435,-0.99519348,0.061035,0.122070,-0.183105
708724958,0.01383972,0.00320435,-0.99519348,-0.061035,0.183105,-0.061035
713815291,0.01383972,0.00364685,-0.99459839,-0.061035,0.183105,-0.061035
718938416,0.01383972,0.00364685,-0.99459839,0.000000,0.244141,-0.061035
724007875,0.01240540,0.00431824,-0.99424744,0.000000,0.244141,-0.061035
729106916,0.01240540,0.00431824,-0.99424744,0.000000,0.122070,-0.061035
734173916,0.01306152,0.00503540,-0.99485779,0.000000,0.122070,-0.061035
739244041,0.01306152,0.00503540,-0.99485779,0.000000,0.244141,-0.061035
744310875,0.01304626,0.00410461,-0.99467468,0.000000,0.244141,-0.061035
749374041,0.01304626,0.00410461,-0.99467468,-0.061035,0.122070,-0.122070
754448333,0.01383972,0.00479126,-0.99531555,-0.061035,0.122070,-0.122070
759510875,0.01383972,0.00479126,-0.99531555,0.061035,0.305176,-0.122070
764585958,0.01394653,0.00489807,-0.99513245,0.061035,0.305176,-0.122070
769662416,0.01394653,0.00489807,-0.99513245,0.000000,0.183105,-0.061035
774720333,0.01329041,0.00447083,-0.99626160,0.000000,0.183105,-0.061035
779779791,0.01329041,0.00447083,-0.99626160,0.000000,0.122070,-0.244141
784837250,0.01399231,0.00419617,-0.99588013,0.000000,0.122070,-0.244141
789894708,0.01399231,0.00419617,-0.99588013,0.000000,0.183105,-0.183105
794954000,0.01327515,0.00303650,-0.99592590,0.000000,0.183105,-0.183105
800010750,0.01327515,0.00303650,-0.99592590,0.000000,0.244141,-0.122070
805069916,0.01350403,0.00308228,-0.99589539,0.000000,0.244141,-0.122070
810142333,0.01350403,0.00308228,-0.99589539,0.061035,0.122070,-0.061035
815201041,0.01330566,0.00263977,-0.99421692,0.061035,0.122070,-0.061035
820280750,0.01330566,0.00263977,-0.99421692,0.000000,0.244141,-0.244141
825372500,0.01214600,0.00311279,-0.99533081,0.000000,0.244141,-0.244141
830453958,0.01214600,0.00311279,-0.99533081,0.000000,0.183105,-0.183105
832997541,0.01277161,0.00364685,-0.99481201,0.000000,0.183105,-0.183105
838058333,0.01277161,0.00364685,-0.99481201,0.061035,0.305176,-0.122070
843122625,0.01251221,0.00376892,-0.99464417,0.061035,0.305176,-0.122070
848185291,0.01251221,0.00376892,-0.99464417,0.000000,0.244141,-0.061035
853146583,0.01330566,0.00392151,-0.99505615,0.000000,0.244141,-0.061035
858216541,0.01330566,0.00392151,-0.99505615,-0.061035,0.061035,-0.183105
863130791,0.01289368,0.00389099,-0.99494934,-0.061035,0.061035,-0.183105
868208708,0.01289368,0.00389099,-0.99494934,0.000000,0.183105,-0.183105
873274791,0.01275635,0.00390625,-0.99479675,0.000000,0.183105,-0.183105
878338291,0.01275635,0.00390625,-0.99479675,0.000000,0.183105,-0.061035
883414166,0.01318359,0.00453186,-0.99430847,0.000000,0.183105,-0.061035
888473083,0.01318359,0.00453186,-0.99430847,0.122070,0.244141,-0.122070
893567500,0.01287842,0.00422668,-0.99490356,0.122070,0.244141,-0.122070
898634875,0.01287842,0.00422668,-0.99490356,0.244141,0.305176,-0.122070
903694208,0.01296997,0.00396729,-0.99497986,0.244141,0.305176,-0.122070
908750541,0.01296997,0.00396729,-0.99497986,0.000000,0.183105,-0.183105
913812333,0.01324463,0.00437927,-0.99543762,0.000000,0.183105,-0.183105
918869250,0.01324463,0.00437927,-0.99543762,0.000000,0.305176,-0.183105
923940708,0.01155090,0.00486755,-0.99411011,0.000000,0.305176,-0.183105
928998666,0.01155090,0.00486755,-0.99411011,0.122070,0.061035,-0.061035
934060958,0.01324463,0.00434875,-0.99520874,0.122070,0.061035,-0.061035
939125583,0.01324463,0.00434875,-0.99520874,0.122070,0.244141,-0.061035
944238708,0.01408386,0.00471497,-0.99473572,0.122070,0.244141,-0.061035
949309208,0.01408386,0.00471497,-0.99473572,0.000000,0.061035,-0.122070
954393375,0.01409912,0.00485229,-0.99465942,0.000000,0.061035,-0.122070
959507708,0.01409912,0.00485229,-0.99465942,0.122070,0.305176,-0.061035
964080541,0.01306152,0.00447083,-0.99531555,0.122070,0.305176,-0.061035
969146625,0.01306152,0.00447083,-0.99531555,0.000000,0.183105,0.000000
974217125,0.01264954,0.00328064,-0.99520874,0.000000,0.183105,0.000000
979278500,0.01264954,0.00328064,-0.99520874,0.122070,0.244141,-0.183105
984335166,0.01275635,0.00306702,-0.99522400,0.122070,0.244141,-0.183105
989400875,0.01275635,0.00306702,-0.99522400,0.122070,0.305176,-0.061035
994470291,0.01324463,0.00260925,-0.99493408,0.122070,0.305176,-0.061035
999533875,0.01324463,0.00260925,-0.99493408,-0.122070,0.122070,-0.122070
1004609000,0.01266479,0.00294495,-0.99401855,-0.122070,0.122070,-0.122070
1009667708,0.01266479,0.00294495,-0.99401855,0.061035,0.183105,-0.122070
1014727583,0.01258850,0.00297546,-0.99430847,0.061035,0.183105,-0.122070
1019786250,0.01258850,0.00297546,-0.99430847,0.183105,0.244141,-0.122070
1024844416,0.01403809,0.00354004,-0.99499512,0.183105,0.244141,-0.122070
1029914958,0.01403809,0.00354004,-0.99499512,0.000000,0.244141,-0.122070
1034981708,0.01275635,0.00474548,-0.99481201,0.000000,0.244141,-0.122070
1039858333,0.01275635,0.00474548,-0.99481201,0.122070,0.183105,-0.122070
1044926000,0.01319885,0.00601196,-0.99551392,0.122070,0.183105,-0.122070
1049997125,0.01319885,0.00601196,-0.99551392,0.061035,0.122070,-0.061035
1055054416,0.01390076,0.00584412,-0.99488831,0.061035,0.122070,-0.061035
1060120291,0.01390076,0.00584412,-0.99488831,0.061035,0.244141,-0.122070
1065181166,0.01263428,0.00610352,-0.99484253,0.061035,0.244141,-0.122070
1070247625,0.01263428,0.00610352,-0.99484253,0.061035,0.122070,0.000000
1075309750,0.01281738,0.00607300,-0.99510193,0.061035,0.122070,0.000000
1080371250,0.01281738,0.00607300,-0.99510193,0.000000,0.122070,-0.061035
1085435125,0.01240540,0.00479126,-0.99510193,0.000000,0.122070,-0.061035
1090492500,0.01240540,0.00479126,-0.99510193,0.000000,0.183105,-0.061035
1095551875,0.01315308,0.00434875,-0.99491882,0.000000,0.183105,-0.061035
1100616958,0.01315308,0.00434875,-0.99491882,-0.061035,0.244141,-0.122070
1105672958,0.01242065,0.00285339,-0.99441528,-0.061035,0.244141,-0.122070
1110740541,0.01242065,0.00285339,-0.99441528,0.000000,0.244141,-0.122070
1115802416,0.01286316,0.00198364,-0.99461365,0.000000,0.244141,-0.122070
1120864541,0.01286316,0.00198364,-0.99461365,0.061035,0.122070,-0.122070
1125924416,0.01239014,0.00149536,-0.99481201,0.061035,0.122070,-0.122070
1130999666,0.01239014,0.00149536,-0.99481201,0.183105,0.061035,-0.122070
1136088708,0.01296997,0.00083923,-0.99484253,0.183105,0.061035,-0.122070
1141158291,0.01296997,0.00083923,-0.99484253,0.122070,0.244141,-0.183105
1146227083,0.01345825,0.00164795,-0.99470520,0.122070,0.244141,-0.183105
1151283416,0.01345825,0.00164795,-0.99470520,0.122070,0.244141,-0.122070
1156341708,0.01292419,0.00325012,-0.99473572,0.122070,0.244141,-0.122070
1161402125,0.01292419,0.00325012,-0.99473572,0.183105,0.244141,-0.183105
1166498625,0.01371765,0.00384521,-0.99436951,0.183105,0.244141,-0.183105
1169045583,0.01371765,0.00384521,-0.99436951,0.122070,0.183105,-0.122070
1174122333,0.01284790,0.00386047,-0.99531555,0.122070,0.183105,-0.122070
1179188875,0.01284790,0.00386047,-0.99531555,0.122070,0.305176,-0.061035
1184250291,0.01219177,0.00555420,-0.99482727,0.122070,0.305176,-0.061035
1189309875,0.01219177,0.00555420,-0.99482727,0.183105,0.244141,-0.061035
1194378833,0.01249695,0.00598145,-0.99520874,0.183105,0.244141,-0.061035
1199438125,0.01249695,0.00598145,-0.99520874,0.244141,0.183105,-0.122070
1204502333,0.01345825,0.00625610,-0.99455261,0.244141,0.183105,-0.122070
1209563875,0.01345825,0.00625610,-0.99455261,0.061035,0.244141,-0.183105
1214628083,0.01373291,0.00569153,-0.99516296,0.061035,0.244141,-0.183105
1219703625,0.01373291,0.00569153,-0.99516296,0.122070,0.183105,-0.061035
1224662208,0.01280212,0.00439453,-0.99613953,0.122070,0.183105,-0.061035
1229720458,0.01280212,0.00439453,-0.99613953,-0.061035,0.244141,-0.183105
1234777541,0.01403809,0.00331116,-0.99452209,-0.061035,0.244141,-0.183105
1239833750,0.01403809,0.00331116,-0.99452209,0.061035,0.305176,-0.061035
1244919250,0.01356506,0.00259399,-0.99519348,0.061035,0.305176,-0.061035
1249990541,0.01356506,0.00259399,-0.99519348,0.000000,0.244141,-0.122070
1255082333,0.01278687,0.00227356,-0.99539185,0.000000,0.244141,-0.122070
1260152041,0.01278687,0.00227356,-0.99539185,0.061035,0.183105,-0.061035
1265215000,0.01301575,0.00134277,-0.99418640,0.061035,0.183105,-0.061035
1270294708,0.01301575,0.00134277,-0.99418640,0.183105,0.183105,-0.061035
1275351750,0.01332092,0.00224304,-0.99555969,0.183105,0.183105,-0.061035
1280426791,0.01332092,0.00224304,-0.99555969,0.244141,0.305176,-0.183105
1285510166,0.01403809,0.00296021,-0.99623108,0.244141,0.305176,-0.183105
1290576458,0.01403809,0.00296021,-0.99623108,0.000000,0.122070,-0.061035
1295641625,0.01371765,0.00315857,-0.99441528,0.000000,0.122070,-0.061035
1300755875,0.01371765,0.00315857,-0.99441528,0.061035,0.183105,-0.183105
1305823833,0.01318359,0.00476074,-0.99513245,0.061035,0.183105,-0.183105
1310883458,0.01318359,0.00476074,-0.99513245,0.000000,0.183105,-0.122070
1315943500,0.01301575,0.00482178,-0.99525452,0.000000,0.183105,-0.122070
1321001250,0.01301575,0.00482178,-0.99525452,-0.122070,0.244141,-0.122070
1326072375,0.01333618,0.00535583,-0.99504089,-0.122070,0.244141,-0.122070
1331131958,0.01333618,0.00535583,-0.99504089,0.000000,0.183105,-0.122070
1336188750,0.01481628,0.00505066,-0.99487305,0.000000,0.183105,-0.122070
1341250583,0.01481628,0.00505066,-0.99487305,0.061035,0.244141,0.000000
1346316083,0.01419067,0.00440979,-0.99563599,0.061035,0.244141,0.000000
1351372791,0.01419067,0.00440979,-0.99563599,0.122070,0.183105,-0.122070
1356437541,0.01409912,0.00381470,-0.99534607,0.122070,0.183105,-0.122070
1361574333,0.01409912,0.00381470,-0.99534607,0.122070,0.305176,-0.122070
1364112666,0.01327515,0.00343323,-0.99519348,0.122070,0.305176,-0.122070
1371705750,0.01327515,0.00343323,-0.99519348,0.000000,0.244141,-0.122070
1374247083,0.01354980,0.00300598,-0.99577332,0.000000,0.244141,-0.122070
1379320000,0.01354980,0.00300598,-0.99577332,0.183105,0.305176,-0.183105
1384386750,0.01367188,0.00254822,-0.99559021,0.183105,0.305176,-0.183105
1389195583,0.01367188,0.00254822,-0.99559021,0.061035,0.122070,-0.183105
1394253250,0.01325989,0.00299072,-0.99409485,0.061035,0.122070,-0.183105
1399308750,0.01325989,0.00299072,-0.99409485,0.061035,0.305176,-0.061035
1404366333,0.01387024,0.00210571,-0.99510193,0.061035,0.305176,-0.061035
1409449875,0.01387024,0.00210571,-0.99510193,0.000000,0.183105,-0.061035
1414528916,0.01406860,0.00270081,-0.99543762,0.000000,0.183105,-0.061035
1419605125,0.01406860,0.00270081,-0.99543762,0.122070,0.183105,-0.122070
1424667375,0.01290894,0.00379944,-0.99450684,0.122070,0.183105,-0.122070
1429729458,0.01290894,0.00379944,-0.99450684,0.061035,0.366211,-0.122070
1434787291,0.01281738,0.00431824,-0.99475098,0.061035,0.366211,-0.122070
1439920666,0.01281738,0.00431824,-0.99475098,0.122070,0.183105,-0.061035
1444929583,0.01388550,0.00468445,-0.99554443,0.122070,0.183105,-0.061035
1449999916,0.01388550,0.00468445,-0.99554443,0.061035,0.122070,-0.122070
1455081791,0.01258850,0.00421143,-0.99571228,0.061035,0.122070,-0.122070
1460151000,0.01258850,0.00421143,-0.99571228,0.000000,0.244141,-0.122070
1465251208,0.01312256,0.00411987,-0.99592590,0.000000,0.244141,-0.122070
1470123166,0.01312256,0.00411987,-0.99592590,0.061035,0.122070,-0.183105
1475191625,0.01339722,0.00495911,-0.99464417,0.061035,0.122070,-0.183105
1480252833,0.01339722,0.00495911,-0.99464417,0.061035,0.305176,-0.122070
1485322208,0.01394653,0.00508118,-0.99600220,0.061035,0.305176,-0.122070
1490388458,0.01394653,0.00508118,-0.99600220,0.122070,0.244141,-0.183105
1495446708,0.01319885,0.00440979,-0.99615479,0.122070,0.244141,-0.183105
1500504541,0.01319885,0.00440979,-0.99615479,0.244141,0.183105,-0.061035
1505576500,0.01248169,0.00489807,-0.99424744,0.244141,0.183105,-0.061035
1510641083,0.01248169,0.00489807,-0.99424744,0.183105,0.305176,0.000000
1515712375,0.01385498,0.00489807,-0.99493408,0.183105,0.305176,0.000000
1520771791,0.01385498,0.00489807,-0.99493408,0.061035,0.183105,-0.122070
1525832250,0.01380920,0.00379944,-0.99594116,0.061035,0.183105,-0.122070
1530942250,0.01380920,0.00379944,-0.99594116,0.183105,0.244141,-0.122070
1536020000,0.01269531,0.00346375,-0.99557495,0.183105,0.244141,-0.122070
1541072208,0.01269531,0.00346375,-0.99557495,0.061035,0.244141,-0.183105
1546117291,0.01374817,0.00314331,-0.99504089,0.061035,0.244141,-0.183105
1551175125,0.01374817,0.00314331,-0.99504089,0.061035,0.122070,-0.183105
1556230625,0.01414490,0.00216675,-0.99636841,0.061035,0.122070,-0.183105
1561262708,0.01414490,0.00216675,-0.99636841,0.122070,0.122070,-0.244141
1566326833,0.01251221,0.00340271,-0.99455261,0.122070,0.122070,-0.244141
1571373291,0.01251221,0.00340271,-0.99455261,0.122070,0.183105,-0.061035
1576406250,0.01313782,0.00312805,-0.99511719,0.122070,0.183105,-0.061035
1581467041,0.01313782,0.00312805,-0.99511719,-0.061035,0.061035,-0.122070
1586565416,0.01380920,0.00372314,-0.99487305,-0.061035,0.061035,-0.122070
1591650333,0.01380920,0.00372314,-0.99487305,0.122070,0.183105,-0.183105
1596714208,0.01298523,0.00416565,-0.99502563,0.122070,0.183105,-0.183105
1601774125,0.01298523,0.00416565,-0.99502563,-0.061035,0.122070,-0.061035
1606834583,0.01301575,0.00506592,-0.99537659,-0.061035,0.122070,-0.061035
1611715666,0.01301575,0.00506592,-0.99537659,0.244141,0.122070,-0.244141
1616838708,0.01268005,0.00489807,-0.99615479,0.244141,0.122070,-0.244141
1621937833,0.01268005,0.00489807,-0.99615479,0.061035,0.183105,0.000000
1627021416,0.01312256,0.00500488,-0.99589539,0.061035,0.183105,0.000000
1632088583,0.01312256,0.00500488,-0.99589539,0.061035,0.244141,0.000000
1637236541,0.01382446,0.00538635,-0.99514771,0.061035,0.244141,0.000000
1642359625,0.01382446,0.00538635,-0.99514771,0.122070,0.366211,-0.061035
1647446875,0.01461792,0.00427246,-0.99386597,0.122070,0.366211,-0.061035
1649984708,0.01461792,0.00427246,-0.99386597,0.122070,0.183105,-0.122070
1655116458,0.01397705,0.00378418,-0.99464417,0.122070,0.183105,-0.122070
1661629916,0.01397705,0.00378418,-0.99464417,0.061035,0.061035,-0.122070
1666770541,0.01434326,0.00379944,-0.99468994,0.061035,0.061035,-0.122070
1671867750,0.01434326,0.00379944,-0.99468994,0.061035,0.305176,-0.183105
1676944541,0.01455688,0.00236511,-0.99548340,0.061035,0.305176,-0.183105
1681997208,0.01455688,0.00236511,-0.99548340,0.122070,0.305176,-0.183105
1687066041,0.01400757,0.00233459,-0.99465942,0.122070,0.305176,-0.183105
1690157333,0.01400757,0.00233459,-0.99465942,0.183105,0.244141,-0.122070
1695256750,0.01274109,0.00230408,-0.99528503,0.183105,0.244141,-0.122070
1700327958,0.01274109,0.00230408,-0.99528503,0.183105,0.244141,-0.244141
1705375458,0.01359558,0.00320435,-0.99423218,0.183105,0.244141,-0.244141
1710410500,0.01359558,0.00320435,-0.99423218,0.122070,0.244141,-0.183105
1715450333,0.01319885,0.00408936,-0.99467468,0.122070,0.244141,-0.183105
1720490333,0.01319885,0.00408936,-0.99467468,0.000000,0.183105,-0.183105
1725531708,0.01257324,0.00334167,-0.99450684,0.000000,0.183105,-0.183105
1730521291,0.01257324,0.00334167,-0.99450684,0.122070,0.183105,-0.244141
1735568041,0.01374817,0.00434875,-0.99417114,0.122070,0.183105,-0.244141
1740621916,0.01374817,0.00434875,-0.99417114,0.061035,0.183105,-0.122070
1745682958,0.01280212,0.00450134,-0.99517822,0.061035,0.183105,-0.122070
1750280291,0.01280212,0.00450134,-0.99517822,0.061035,0.244141,-0.061035
1755323541,0.01223755,0.00439453,-0.99453735,0.061035,0.244141,-0.061035
1760140083,0.01223755,0.00439453,-0.99453735,-0.061035,0.122070,-0.122070
1765183625,0.01336670,0.00469971,-0.99497986,-0.061035,0.122070,-0.122070
1769989208,0.01336670,0.00469971,-0.99497986,0.061035,0.183105,-0.183105
1775023000,0.01397705,0.00398254,-0.99478149,0.061035,0.183105,-0.183105
1780091791,0.01397705,0.00398254,-0.99478149,-0.061035,0.122070,0.000000
1785145625,0.01353455,0.00318909,-0.99484253,-0.061035,0.122070,0.000000
1791805708,0.01353455,0.00318909,-0.99484253,0.061035,0.244141,-0.061035
1796878291,0.01255798,0.00419617,-0.99388123,0.061035,0.244141,-0.061035
1801964625,0.01255798,0.00419617,-0.99388123,0.000000,0.183105,-0.122070
1807321958,0.01231384,0.00334167,-0.99491882,0.000000,0.183105,-0.122070
1812474625,0.01231384,0.00334167,-0.99491882,0.183105,0.305176,0.000000
1817687583,0.01298523,0.00323486,-0.99424744,0.183105,0.305176,0.000000
1820279375,0.01298523,0.00323486,-0.99424744,0.061035,0.244141,-0.183105
1825467333,0.01226807,0.00366211,-0.99455261,0.061035,0.244141,-0.183105
1830642375,0.01226807,0.00366211,-0.99455261,0.000000,0.122070,-0.061035
1835762375,0.01354980,0.00372314,-0.99377441,0.000000,0.122070,-0.061035
1840745333,0.01354980,0.00372314,-0.99377441,0.122070,0.122070,-0.061035
1845835083,0.01188660,0.00418091,-0.99481201,0.122070,0.122070,-0.061035
1850675333,0.01188660,0.00418091,-0.99481201,0.061035,0.061035,-0.122070
1855670625,0.01148987,0.00389099,-0.99565125,0.061035,0.061035,-0.122070
1860770416,0.01148987,0.00389099,-0.99565125,0.244141,0.244141,-0.122070
1865841416,0.01223755,0.00500488,-0.99514771,0.244141,0.244141,-0.122070
1870583583,0.01223755,0.00500488,-0.99514771,0.061035,0.183105,-0.183105
1875659250,0.01268005,0.00558472,-0.99543762,0.061035,0.183105,-0.183105
1880647791,0.01268005,0.00558472,-0.99543762,0.183105,0.244141,-0.061035
1885689708,0.01268005,0.00427246,-0.99441528,0.183105,0.244141,-0.061035
1890407000,0.01268005,0.00427246,-0.99441528,0.061035,0.305176,-0.061035
1895512166,0.01268005,0.00373840,-0.99526978,0.061035,0.305176,-0.061035
1900848083,0.01268005,0.00373840,-0.99526978,0.122070,0.244141,0.000000
1905920750,0.01361084,0.00460815,-0.99528503,0.122070,0.244141,0.000000
1910978791,0.01361084,0.00460815,-0.99528503,0.061035,0.183105,-0.122070
1916068583,0.01470947,0.00373840,-0.99449158,0.061035,0.183105,-0.122070
1921170541,0.01470947,0.00373840,-0.99449158,0.000000,0.183105,-0.061035
1926256833,0.01417542,0.00280762,-0.99542236,0.000000,0.183105,-0.061035
1931359916,0.01417542,0.00280762,-0.99542236,0.061035,0.122070,-0.122070
1936499708,0.01414490,0.00331116,-0.99595642,0.061035,0.122070,-0.122070
1941623208,0.01414490,0.00331116,-0.99595642,0.122070,0.183105,-0.122070
1946714041,0.01295471,0.00288391,-0.99519348,0.122070,0.183105,-0.122070
1951797000,0.01295471,0.00288391,-0.99519348,0.061035,0.244141,-0.244141
1956869291,0.01358032,0.00202942,-0.99456787,0.061035,0.244141,-0.244141
1961960583,0.01358032,0.00202942,-0.99456787,0.061035,0.244141,-0.122070
1967061083,0.01362610,0.00398254,-0.99525452,0.061035,0.244141,-0.122070
1972134333,0.01362610,0.00398254,-0.99525452,0.000000,0.122070,-0.122070
1977206708,0.01324463,0.00440979,-0.99403381,0.000000,0.122070,-0.122070
1982272625,0.01324463,0.00440979,-0.99403381,0.366211,0.183105,-0.061035
1987343666,0.01371765,0.00473022,-0.99235535,0.366211,0.183105,-0.061035
1992412166,0.01371765,0.00473022,-0.99235535,0.183105,0.122070,-0.183105
1997480125,0.01367188,0.00463867,-0.99420166,0.183105,0.122070,-0.183105
2002559291,0.01367188,0.00463867,-0.99420166,-0.061035,0.305176,-0.122070
2007625083,0.01213074,0.00395203,-0.99734497,-0.061035,0.305176,-0.122070
2012685375,0.01213074,0.00395203,-0.99734497,0.000000,0.183105,-0.061035
2017743208,0.01339722,0.00421143,-0.99740601,0.000000,0.183105,-0.061035
2022807125,0.01339722,0.00421143,-0.99740601,0.000000,0.183105,-0.061035
2027871500,0.01200867,0.00445557,-0.99411011,0.000000,0.183105,-0.061035
2032953000,0.01200867,0.00445557,-0.99411011,0.000000,0.122070,-0.244141
2038052250,0.01268005,0.00379944,-0.99417114,0.000000,0.122070,-0.244141
2043151916,0.01268005,0.00379944,-0.99417114,0.061035,0.122070,-0.122070
2048227458,0.01380920,0.00314331,-0.99525452,0.061035,0.122070,-0.122070
2053298416,0.01380920,0.00314331,-0.99525452,0.122070,0.305176,-0.122070
2058364625,0.01364136,0.00364685,-0.99594116,0.122070,0.305176,-0.122070
2060912958,0.01364136,0.00364685,-0.99594116,0.183105,0.183105,-0.061035
2065989583,0.01255798,0.00347900,-0.99519348,0.183105,0.183105,-0.061035
2071055958,0.01255798,0.00347900,-0.99519348,0.122070,0.244141,-0.183105
2076125208,0.01213074,0.00427246,-0.99516296,0.122070,0.244141,-0.183105
2081187916,0.01213074,0.00427246,-0.99516296,0.122070,0.244141,-0.061035
2086248375,0.01329041,0.00372314,-0.99588013,0.122070,0.244141,-0.061035
2091314041,0.01329041,0.00372314,-0.99588013,0.000000,0.305176,-0.061035
2096374666,0.01325989,0.00392151,-0.99522400,0.000000,0.305176,-0.061035
2101452791,0.01325989,0.00392151,-0.99522400,0.061035,0.305176,-0.122070
2106524375,0.01319885,0.00332642,-0.99476624,0.061035,0.305176,-0.122070
2111598333,0.01319885,0.00332642,-0.99476624,0.061035,0.244141,-0.122070
2116671291,0.01358032,0.00415039,-0.99516296,0.061035,0.244141,-0.122070
2121757583,0.01358032,0.00415039,-0.99516296,0.000000,0.244141,-0.122070
2126832000,0.01399231,0.00361633,-0.99449158,0.000000,0.244141,-0.122070
2131918666,0.01399231,0.00361633,-0.99449158,0.183105,0.305176,-0.122070
2137011208,0.01327515,0.00326538,-0.99453735,0.183105,0.305176,-0.122070
2142098541,0.01327515,0.00326538,-0.99453735,0.122070,0.305176,0.000000
2147168500,0.01336670,0.00292969,-0.99545288,0.122070,0.305176,0.000000
2152221041,0.01336670,0.00292969,-0.99545288,0.183105,0.244141,-0.122070
2157282333,0.01370239,0.00344849,-0.99491882,0.183105,0.244141,-0.122070
2162383458,0.01370239,0.00344849,-0.99491882,0.122070,0.122070,-0.061035
2167341416,0.01235962,0.00392151,-0.99484253,0.122070,0.122070,-0.061035
2172431083,0.01235962,0.00392151,-0.99484253,-0.061035,0.122070,-0.061035
2177223125,0.01274109,0.00431824,-0.99447632,-0.061035,0.122070,-0.061035
2182296625,0.01274109,0.00431824,-0.99447632,0.000000,0.122070,-0.183105
2187084500,0.01333618,0.00183105,-0.99528503,0.000000,0.122070,-0.183105
2192176416,0.01333618,0.00183105,-0.99528503,0.244141,0.061035,-0.183105
2197056833,0.01239014,0.00247192,-0.99617004,0.244141,0.061035,-0.183105
2202141583,0.01239014,0.00247192,-0.99617004,0.183105,0.183105,-0.183105
2207216125,0.01325989,0.00241089,-0.99539185,0.183105,0.183105,-0.183105
2212292750,0.01325989,0.00241089,-0.99539185,0.122070,0.000000,-0.122070
2217354208,0.01383972,0.00251770,-0.99641418,0.122070,0.000000,-0.122070
2222436583,0.01383972,0.00251770,-0.99641418,0.183105,0.183105,-0.183105
2227218708,0.01400757,0.00468445,-0.99594116,0.183105,0.183105,-0.183105
2232292708,0.01400757,0.00468445,-0.99594116,0.061035,0.244141,-0.061035
2237361625,0.01364136,0.00379944,-0.99510193,0.061035,0.244141,-0.061035
2242438583,0.01364136,0.00379944,-0.99510193,0.122070,0.122070,-0.122070
2247528875,0.01445007,0.00410461,-0.99496460,0.122070,0.122070,-0.122070
2252598458,0.01445007,0.00410461,-0.99496460,0.122070,0.061035,-0.122070
2257676958,0.01390076,0.00393677,-0.99543762,0.122070,0.061035,-0.122070
2262744916,0.01390076,0.00393677,-0.99543762,0.061035,0.244141,0.000000
2267569250,0.01277161,0.00375366,-0.99475098,0.061035,0.244141,0.000000
2272639041,0.01277161,0.00375366,-0.99475098,0.122070,0.244141,-0.183105
2277710750,0.01246643,0.00466919,-0.99559021,0.122070,0.244141,-0.183105
2282780541,0.01246643,0.00466919,-0.99559021,0.061035,0.183105,-0.061035
2287840000,0.01327515,0.00508118,-0.99494934,0.061035,0.183105,-0.061035
2292901333,0.01327515,0.00508118,-0.99494934,0.000000,0.183105,-0.061035
2297971916,0.01309204,0.00396729,-0.99459839,0.000000,0.183105,-0.061035
2303080500,0.01309204,0.00396729,-0.99459839,0.061035,0.305176,0.000000
2308154583,0.01348877,0.00283813,-0.99508667,0.061035,0.305176,0.000000
2313219416,0.01348877,0.00283813,-0.99508667,0.000000,0.122070,-0.122070
2318292916,0.01399231,0.00347900,-0.99583435,0.000000,0.122070,-0.122070
2323351375,0.01399231,0.00347900,-0.99583435,0.122070,0.305176,-0.122070
2328422041,0.01394653,0.00444031,-0.99494934,0.122070,0.305176,-0.122070
2333512208,0.01394653,0.00444031,-0.99494934,0.061035,0.122070,-0.061035
2338573333,0.01425171,0.00332642,-0.99539185,0.061035,0.122070,-0.061035
2343632875,0.01425171,0.00332642,-0.99539185,0.061035,0.183105,0.000000
2348695291,0.01371765,0.00360107,-0.99546814,0.061035,0.183105,0.000000
2353759750,0.01371765,0.00360107,-0.99546814,0.061035,0.244141,-0.183105
2358834041,0.01361084,0.00407410,-0.99446106,0.061035,0.244141,-0.183105
2361375583,0.01361084,0.00407410,-0.99446106,0.122070,0.305176,-0.122070
2366434500,0.01353455,0.00436401,-0.99488831,0.122070,0.305176,-0.122070
2371507541,0.01353455,0.00436401,-0.99488831,0.000000,0.183105,0.000000
2376571250,0.01301575,0.00347900,-0.99438477,0.000000,0.183105,0.000000
2383832041,0.01301575,0.00347900,-0.99438477,0.061035,0.183105,-0.122070
2388903208,0.01380920,0.00447083,-0.99490356,0.061035,0.183105,-0.122070
2391455500,0.01380920,0.00447083,-0.99490356,0.000000,0.183105,-0.122070
2396528750,0.01322937,0.00482178,-0.99490356,0.000000,0.183105,-0.122070
2401596916,0.01322937,0.00482178,-0.99490356,0.000000,0.244141,-0.122070
2406660875,0.01330566,0.00317383,-0.99504089,0.000000,0.244141,-0.122070
2411724125,0.01330566,0.00317383,-0.99504089,0.122070,0.061035,-0.122070
2416799625,0.01318359,0.00372314,-0.99528503,0.122070,0.061035,-0.122070
2421862583,0.01318359,0.00372314,-0.99528503,0.061035,0.244141,-0.061035
2426944875,0.01287842,0.00317383,-0.99475098,0.061035,0.244141,-0.061035
2432005708,0.01287842,0.00317383,-0.99475098,0.061035,0.061035,-0.061035
2437068791,0.01359558,0.00320435,-0.99577332,0.061035,0.061035,-0.061035
2442127916,0.01359558,0.00320435,-0.99577332,0.122070,0.305176,0.000000
2447204541,0.01374817,0.00308228,-0.99520874,0.122070,0.305176,0.000000
2452283041,0.01374817,0.00308228,-0.99520874,0.000000,0.061035,-0.122070
2457343375,0.01329041,0.00308228,-0.99478149,0.000000,0.061035,-0.122070
2462402083,0.01329041,0.00308228,-0.99478149,0.000000,0.244141,-0.183105
2467456500,0.01289368,0.00291443,-0.99494934,0.000000,0.244141,-0.183105
2472510583,0.01289368,0.00291443,-0.99494934,0.183105,0.244141,-0.122070
2480114416,0.01345825,0.00332642,-0.99539185,0.183105,0.244141,-0.122070
2482651000,0.01345825,0.00332642,-0.99539185,0.122070,0.183105,-0.061035
2487715041,0.01353455,0.00413513,-0.99577332,0.122070,0.183105,-0.061035
2492770541,0.01353455,0.00413513,-0.99577332,0.000000,0.183105,-0.244141
2497481666,0.01235962,0.00445557,-0.99504089,0.000000,0.183105,-0.244141
2502537916,0.01235962,0.00445557,-0.99504089,0.061035,0.244141,-0.183105
2507619375,0.01173401,0.00463867,-0.99514771,0.061035,0.244141,-0.183105
2512677708,0.01173401,0.00463867,-0.99514771,0.061035,0.183105,-0.183105
2517745208,0.01278687,0.00434875,-0.99499512,0.061035,0.183105,-0.183105
2522819500,0.01278687,0.00434875,-0.99499512,0.000000,0.183105,-0.061035
2527892541,0.01405334,0.00347900,-0.99578857,0.000000,0.183105,-0.061035
2532953375,0.01405334,0.00347900,-0.99578857,0.061035,0.122070,-0.122070
2538009375,0.01336670,0.00262451,-0.99630737,0.061035,0.122070,-0.122070
2543070833,0.01336670,0.00262451,-0.99630737,0.061035,0.122070,-0.122070
2548133583,0.01319885,0.00238037,-0.99520874,0.061035,0.122070,-0.122070
2553218250,0.01319885,0.00238037,-0.99520874,0.061035,0.305176,-0.122070
2558276458,0.01420593,0.00358582,-0.99565125,0.061035,0.305176,-0.122070
2563348750,0.01420593,0.00358582,-0.99565125,0.122070,0.183105,-0.244141
2568427875,0.01394653,0.00379944,-0.99523926,0.122070,0.183105,-0.244141
2573511083,0.01394653,0.00379944,-0.99523926,0.122070,0.183105,-0.061035
2578579500,0.01460266,0.00372314,-0.99497986,0.122070,0.183105,-0.061035
2583650916,0.01460266,0.00372314,-0.99497986,0.000000,0.305176,-0.183105
2588711416,0.01345825,0.00364685,-0.99453735,0.000000,0.305176,-0.183105
2593770000,0.01345825,0.00364685,-0.99453735,0.183105,0.183105,-0.061035
2598840541,0.01382446,0.00402832,-0.99504089,0.183105,0.183105,-0.061035
2603917375,0.01382446,0.00402832,-0.99504089,0.122070,0.061035,-0.122070
2608986166,0.01393127,0.00311279,-0.99575806,0.122070,0.061035,-0.122070
2614044333,0.01393127,0.00311279,-0.99575806,0.061035,0.061035,-0.061035
2619109250,0.01342773,0.00306702,-0.99494934,0.061035,0.061035,-0.061035
2624175625,0.01342773,0.00306702,-0.99494934,0.122070,0.183105,-0.244141
2629281125,0.01278687,0.00363159,-0.99472046,0.122070,0.183105,-0.244141
2634359541,0.01278687,0.00363159,-0.99472046,0.061035,0.122070,-0.183105
2639443791,0.01295471,0.00280762,-0.99575806,0.061035,0.122070,-0.183105
2642016625,0.01295471,0.00280762,-0.99575806,0.061035,0.366211,-0.061035
2647075500,0.01295471,0.00312805,-0.99620056,0.061035,0.366211,-0.061035
2652132916,0.01295471,0.00312805,-0.99620056,0.183105,0.061035,-0.244141
2657205875,0.01353455,0.00375366,-0.99543762,0.183105,0.061035,-0.244141
2662267000,0.01353455,0.00375366,-0.99543762,0.183105,0.366211,0.000000
2667337750,0.01333618,0.00395203,-0.99592590,0.183105,0.366211,0.000000
2672398875,0.01333618,0.00395203,-0.99592590,0.122070,0.183105,-0.122070
2677468666,0.01277161,0.00398254,-0.99516296,0.122070,0.183105,-0.122070
2682568500,0.01277161,0.00398254,-0.99516296,0.000000,0.061035,-0.122070
2687628583,0.01322937,0.00422668,-0.99468994,0.000000,0.061035,-0.122070
2692689791,0.01322937,0.00422668,-0.99468994,0.122070,0.183105,-0.061035
2697755541,0.01364136,0.00386047,-0.99508667,0.122070,0.183105,-0.061035
2702813500,0.01364136,0.00386047,-0.99508667,0.000000,0.366211,-0.061035
2707892166,0.01264954,0.00460815,-0.99526978,0.000000,0.366211,-0.061035
2712958291,0.01264954,0.00460815,-0.99526978,0.122070,0.244141,-0.061035
2718101083,0.01213074,0.00491333,-0.99533081,0.122070,0.244141,-0.061035
2723171000,0.01213074,0.00491333,-0.99533081,0.061035,0.061035,-0.061035
2728233416,0.01271057,0.00437927,-0.99560547,0.061035,0.061035,-0.061035
2733328375,0.01271057,0.00437927,-0.99560547,0.000000,0.183105,-0.061035
2738429583,0.01422119,0.00317383,-0.99592590,0.000000,0.183105,-0.061035
2743507458,0.01422119,0.00317383,-0.99592590,0.000000,0.183105,-0.122070
2748575041,0.01333618,0.00286865,-0.99545288,0.000000,0.183105,-0.122070
2753638791,0.01333618,0.00286865,-0.99545288,0.061035,0.122070,-0.183105
2758722041,0.01289368,0.00386047,-0.99388123,0.061035,0.122070,-0.183105
2763807000,0.01289368,0.00386047,-0.99388123,0.061035,0.122070,-0.122070
2768866958,0.01312256,0.00222778,-0.99430847,0.061035,0.122070,-0.122070
2773948333,0.01312256,0.00222778,-0.99430847,0.000000,0.305176,-0.183105
2779016916,0.01301575,0.00308228,-0.99586487,0.000000,0.305176,-0.183105
2784157000,0.01301575,0.00308228,-0.99586487,-0.061035,0.305176,-0.061035
2789230666,0.01423645,0.00315857,-0.99426270,-0.061035,0.305176,-0.061035
2794315208,0.01423645,0.00315857,-0.99426270,0.061035,0.244141,-0.183105
2799381000,0.01338196,0.00343323,-0.99375916,0.061035,0.244141,-0.183105
2804443375,0.01338196,0.00343323,-0.99375916,-0.061035,0.061035,-0.183105
2809510708,0.01350403,0.00308228,-0.99519348,-0.061035,0.061035,-0.183105
2814595083,0.01350403,0.00308228,-0.99519348,-0.061035,0.244141,-0.183105
2819664666,0.01354980,0.00363159,-0.99429321,-0.061035,0.244141,-0.183105
2824722791,0.01354980,0.00363159,-0.99429321,0.061035,0.244141,-0.061035
2829780833,0.01329041,0.00416565,-0.99412537,0.061035,0.244141,-0.061035
2834872041,0.01329041,0.00416565,-0.99412537,0.000000,0.183105,-0.061035
2837419583,0.01321411,0.00444031,-0.99487305,0.000000,0.183105,-0.061035
2844696458,0.01321411,0.00444031,-0.99487305,0.000000,0.183105,-0.122070
2849760958,0.01240540,0.00508118,-0.99456787,0.000000,0.183105,-0.122070
2854871833,0.01240540,0.00508118,-0.99456787,0.183105,0.183105,0.000000
2859977041,0.01298523,0.00476074,-0.99418640,0.183105,0.183105,0.000000
2862530375,0.01298523,0.00476074,-0.99418640,0.122070,0.305176,-0.061035
2867588458,0.01319885,0.00444031,-0.99465942,0.122070,0.305176,-0.061035
2872646833,0.01319885,0.00444031,-0.99465942,0.061035,0.183105,-0.061035
2877702166,0.01266479,0.00350952,-0.99497986,0.061035,0.183105,-0.061035
2882781750,0.01266479,0.00350952,-0.99497986,0.183105,0.183105,0.000000
2890374833,0.01333618,0.00376892,-0.99505615,0.183105,0.183105,0.000000
2892917750,0.01333618,0.00376892,-0.99505615,-0.061035,0.488281,-0.061035
2897984166,0.01422119,0.00305176,-0.99601746,-0.061035,0.488281,-0.061035
2903031291,0.01422119,0.00305176,-0.99601746,0.000000,0.244141,-0.183105
2910309000,0.01284790,0.00216675,-0.99534607,0.000000,0.244141,-0.183105
2915349500,0.01284790,0.00216675,-0.99534607,0.061035,0.061035,-0.122070
2920398583,0.01376343,0.00259399,-0.99559021,0.061035,0.061035,-0.122070
2922931333,0.01376343,0.00259399,-0.99559021,0.061035,0.244141,-0.122070
2927991541,0.01423645,0.00195312,-0.99560547,0.061035,0.244141,-0.122070
2933041500,0.01423645,0.00195312,-0.99560547,0.122070,0.183105,-0.183105
2938103458,0.01414490,0.00244141,-0.99459839,0.122070,0.183105,-0.183105
2943160041,0.01414490,0.00244141,-0.99459839,0.061035,0.244141,-0.183105
2948221583,0.01443481,0.00308228,-0.99563599,0.061035,0.244141,-0.183105
2953291208,0.01443481,0.00308228,-0.99563599,0.061035,0.122070,-0.061035
2958362708,0.01396179,0.00354004,-0.99600220,0.061035,0.122070,-0.061035
2963501666,0.01396179,0.00354004,-0.99600220,0.122070,0.183105,-0.183105
2968577000,0.01362610,0.00471497,-0.99481201,0.122070,0.183105,-0.183105
2973642666,0.01362610,0.00471497,-0.99481201,0.061035,0.244141,-0.122070
2978703250,0.01336670,0.00468445,-0.99569702,0.061035,0.244141,-0.122070
2983767083,0.01336670,0.00468445,-0.99569702,0.061035,0.183105,-0.122070
2988828208,0.01351929,0.00431824,-0.99510193,0.061035,0.183105,-0.122070
2993920041,0.01351929,0.00431824,-0.99510193,0.000000,0.061035,-0.061035
2998996000,0.01338196,0.00547791,-0.99504089,0.000000,0.061035,-0.061035
3004059125,0.01338196,0.00547791,-0.99504089,0.061035,0.244141,-0.122070
3009127166,0.01353455,0.00456238,-0.99458313,0.061035,0.244141,-0.122070
3014196916,0.01353455,0.00456238,-0.99458313,0.183105,0.244141,0.061035
3019255333,0.01396179,0.00341797,-0.99536133,0.183105,0.244141,0.061035
3024314166,0.01396179,0.00341797,-0.99536133,0.061035,0.244141,-0.061035
3029383000,0.01380920,0.00262451,-0.99473572,0.061035,0.244141,-0.061035
3034449166,0.01380920,0.00262451,-0.99473572,0.061035,0.183105,-0.183105
3039519458,0.01293945,0.00245667,-0.99510193,0.061035,0.183105,-0.183105
3044580541,0.01293945,0.00245667,-0.99510193,0.000000,0.183105,-0.183105
3049644958,0.01278687,0.00187683,-0.99482727,0.000000,0.183105,-0.183105
3054702708,0.01278687,0.00187683,-0.99482727,0.122070,0.244141,-0.061035
3059763375,0.01332092,0.00251770,-0.99618530,0.122070,0.244141,-0.061035
3064823458,0.01332092,0.00251770,-0.99618530,0.061035,0.122070,-0.061035
3069881125,0.01353455,0.00286865,-0.99519348,0.061035,0.122070,-0.061035
3074954541,0.01353455,0.00286865,-0.99519348,0.122070,0.183105,-0.122070
3080013166,0.01412964,0.00308228,-0.99443054,0.122070,0.183105,-0.122070
3085094000,0.01412964,0.00308228,-0.99443054,0.061035,0.183105,-0.122070
3090160125,0.01303101,0.00375366,-0.99461365,0.061035,0.183105,-0.122070
3095215875,0.01303101,0.00375366,-0.99461365,0.183105,0.183105,-0.061035
3100282041,0.01222229,0.00477600,-0.99447632,0.183105,0.183105,-0.061035
3105339291,0.01222229,0.00477600,-0.99447632,0.000000,0.183105,-0.183105
3110443916,0.01364136,0.00445557,-0.99472046,0.000000,0.183105,-0.183105
3113028291,0.01364136,0.00445557,-0.99472046,0.122070,0.122070,-0.061035
3118088958,0.01370239,0.00444031,-0.99546814,0.122070,0.122070,-0.061035
3123152708,0.01370239,0.00444031,-0.99546814,0.000000,0.122070,-0.183105
3128212500,0.01304626,0.00416565,-0.99543762,0.000000,0.122070,-0.183105
3133288583,0.01304626,0.00416565,-0.99543762,0.061035,0.244141,0.000000
3138348458,0.01406860,0.00468445,-0.99539185,0.061035,0.244141,0.000000
3143410708,0.01406860,0.00468445,-0.99539185,0.061035,0.122070,-0.183105
3148491833,0.01354980,0.00476074,-0.99613953,0.061035,0.122070,-0.183105
3153567416,0.01354980,0.00476074,-0.99613953,0.061035,0.122070,-0.061035
3158629750,0.01243591,0.00410461,-0.99601746,0.061035,0.122070,-0.061035
3163686166,0.01243591,0.00410461,-0.99601746,0.122070,0.122070,-0.244141
3168746250,0.01251221,0.00392151,-0.99507141,0.122070,0.122070,-0.244141
3173815250,0.01251221,0.00392151,-0.99507141,0.122070,0.244141,-0.061035
3178867458,0.01318359,0.00267029,-0.99499512,0.122070,0.244141,-0.061035
3183910000,0.01318359,0.00267029,-0.99499512,-0.061035,0.061035,-0.061035
3188951541,0.01339722,0.00296021,-0.99493408,-0.061035,0.061035,-0.061035
3194014958,0.01339722,0.00296021,-0.99493408,0.061035,0.305176,-0.183105
3199068041,0.01374817,0.00302124,-0.99499512,0.061035,0.305176,-0.183105
3204115250,0.01374817,0.00302124,-0.99499512,0.122070,0.183105,-0.061035
3209184000,0.01467896,0.00332642,-0.99580383,0.122070,0.183105,-0.061035
3213980208,0.01467896,0.00332642,-0.99580383,0.183105,0.244141,-0.183105
3219041333,0.01371765,0.00337219,-0.99505615,0.183105,0.244141,-0.183105
3224111625,0.01371765,0.00337219,-0.99505615,0.061035,0.183105,-0.061035
3229159416,0.01284790,0.00265503,-0.99444580,0.061035,0.183105,-0.061035
3234224750,0.01284790,0.00265503,-0.99444580,0.061035,0.122070,-0.122070
3239296500,0.01205444,0.00305176,-0.99392700,0.061035,0.122070,-0.122070
3244364166,0.01205444,0.00305176,-0.99392700,0.000000,0.122070,-0.183105
3249144791,0.01168823,0.00347900,-0.99499512,0.000000,0.122070,-0.183105
3254214333,0.01168823,0.00347900,-0.99499512,0.061035,0.122070,-0.183105
3259274083,0.01254272,0.00372314,-0.99542236,0.061035,0.122070,-0.183105
3264346291,0.01254272,0.00372314,-0.99542236,0.000000,0.183105,-0.183105
3269431250,0.01223755,0.00360107,-0.99504089,0.000000,0.183105,-0.183105
3274511000,0.01223755,0.00360107,-0.99504089,-0.061035,0.183105,-0.122070
3279614166,0.01339722,0.00329590,-0.99552917,-0.061035,0.183105,-0.122070
3284683750,0.01339722,0.00329590,-0.99552917,0.061035,0.244141,-0.122070
3289752750,0.01321411,0.00430298,-0.99473572,0.061035,0.244141,-0.122070
3294814041,0.01321411,0.00430298,-0.99473572,0.061035,0.122070,-0.122070
3299886666,0.01324463,0.00292969,-0.99455261,0.061035,0.122070,-0.122070
3304952250,0.01324463,0.00292969,-0.99455261,0.183105,0.183105,0.000000
3310032166,0.01336670,0.00297546,-0.99546814,0.183105,0.183105,0.000000
3315096583,0.01336670,0.00297546,-0.99546814,0.061035,0.183105,-0.122070
3320164708,0.01329041,0.00376892,-0.99563599,0.061035,0.183105,-0.122070
3325228333,0.01329041,0.00376892,-0.99563599,-0.061035,0.244141,-0.122070
3330289250,0.01393127,0.00283813,-0.99447632,-0.061035,0.244141,-0.122070
3335350416,0.01393127,0.00283813,-0.99447632,0.000000,0.183105,-0.061035
3340409916,0.01342773,0.00227356,-0.99526978,0.000000,0.183105,-0.061035
3345478541,0.01342773,0.00227356,-0.99526978,0.061035,0.183105,-0.061035
3350540541,0.01284790,0.00335693,-0.99484253,0.061035,0.183105,-0.061035
3355618875,0.01284790,0.00335693,-0.99484253,0.000000,0.183105,-0.122070
3360680583,0.01373291,0.00228882,-0.99488831,0.000000,0.183105,-0.122070
3365737166,0.01373291,0.00228882,-0.99488831,0.122070,0.183105,-0.244141
3370794583,0.01295471,0.00338745,-0.99458313,0.122070,0.183105,-0.244141
3375853375,0.01295471,0.00338745,-0.99458313,0.000000,0.061035,-0.061035
3380910333,0.01229858,0.00468445,-0.99436951,0.000000,0.061035,-0.061035
3385984916,0.01229858,0.00468445,-0.99436951,-0.061035,0.122070,-0.122070
3391079541,0.01353455,0.00344849,-0.99609375,-0.061035,0.122070,-0.122070
3396162791,0.01353455,0.00344849,-0.99609375,0.122070,0.183105,0.000000
3401248750,0.01409912,0.00326538,-0.99508667,0.122070,0.183105,0.000000
3406310666,0.01409912,0.00326538,-0.99508667,-0.061035,0.122070,-0.061035
3411370708,0.01368713,0.00387573,-0.99467468,-0.061035,0.122070,-0.061035
3413912666,0.01368713,0.00387573,-0.99467468,0.000000,0.183105,-0.122070
3418963291,0.01394653,0.00321960,-0.99485779,0.000000,0.183105,-0.122070
3424009416,0.01394653,0.00321960,-0.99485779,0.183105,0.183105,-0.122070
3429043583,0.01399231,0.00389099,-0.99507141,0.183105,0.183105,-0.122070
3436118916,0.01399231,0.00389099,-0.99507141,0.122070,0.183105,-0.061035
3441168958,0.01377869,0.00447083,-0.99594116,0.122070,0.183105,-0.061035
3446024416,0.01377869,0.00447083,-0.99594116,-0.061035,0.244141,0.061035
3450940375,0.01356506,0.00347900,-0.99388123,-0.061035,0.244141,0.061035
3456005541,0.01356506,0.00347900,-0.99388123,0.122070,0.244141,0.000000
3461076000,0.01419067,0.00375366,-0.99525452,0.122070,0.244141,0.000000
3466131333,0.01419067,0.00375366,-0.99525452,0.000000,0.183105,-0.122070
3471198208,0.01277161,0.00393677,-0.99511719,0.000000,0.183105,-0.122070
3476273708,0.01277161,0.00393677,-0.99511719,0.183105,0.244141,-0.122070
3481344708,0.01425171,0.00389099,-0.99499512,0.183105,0.244141,-0.122070
3486409125,0.01425171,0.00389099,-0.99499512,-0.061035,0.183105,-0.061035
3488943791,0.01470947,0.00372314,-0.99600220,-0.061035,0.183105,-0.061035
3494006875,0.01470947,0.00372314,-0.99600220,0.000000,0.183105,-0.122070
3499074125,0.01278687,0.00382996,-0.99542236,0.000000,0.183105,-0.122070
3504132083,0.01278687,0.00382996,-0.99542236,0.000000,0.244141,-0.061035
3509190333,0.01263428,0.00354004,-0.99360657,0.000000,0.244141,-0.061035
3514253208,0.01263428,0.00354004,-0.99360657,0.061035,0.183105,-0.122070
3519316000,0.01307678,0.00329590,-0.99586487,0.061035,0.183105,-0.122070
3524372083,0.01307678,0.00329590,-0.99586487,0.122070,0.183105,-0.122070
3529431625,0.01318359,0.00349426,-0.99508667,0.122070,0.183105,-0.122070
3534490250,0.01318359,0.00349426,-0.99508667,0.183105,0.183105,-0.061035
3539550958,0.01387024,0.00369263,-0.99475098,0.183105,0.183105,-0.061035
3544625166,0.01387024,0.00369263,-0.99475098,-0.061035,0.183105,-0.183105
3549684875,0.01422119,0.00312805,-0.99522400,-0.061035,0.183105,-0.183105
3554743791,0.01422119,0.00312805,-0.99522400,0.061035,0.183105,-0.061035
3559800791,0.01332092,0.00366211,-0.99601746,0.061035,0.183105,-0.061035
3564860333,0.01332092,0.00366211,-0.99601746,0.122070,0.122070,-0.061035
3569931833,0.01327515,0.00347900,-0.99450684,0.122070,0.122070,-0.061035
3574996416,0.01327515,0.00347900,-0.99450684,-0.061035,0.183105,-0.061035
3580054375,0.01266479,0.00328064,-0.99526978,-0.061035,0.183105,-0.061035
3585118958,0.01266479,0.00328064,-0.99526978,-0.061035,0.122070,-0.183105
3590183875,0.01240540,0.00303650,-0.99366760,-0.061035,0.122070,-0.183105
3595108416,0.01240540,0.00303650,-0.99366760,0.061035,0.183105,-0.183105
3600173083,0.01324463,0.00375366,-0.99496460,0.061035,0.183105,-0.183105
3605237791,0.01324463,0.00375366,-0.99496460,0.122070,0.122070,-0.244141
3610309458,0.01336670,0.00260925,-0.99520874,0.122070,0.122070,-0.244141
3615400291,0.01336670,0.00260925,-0.99520874,0.000000,0.305176,-0.183105
3620461000,0.01361084,0.00329590,-0.99621582,0.000000,0.305176,-0.183105
3625524375,0.01361084,0.00329590,-0.99621582,0.183105,0.183105,-0.122070
3630587125,0.01292419,0.00277710,-0.99540710,0.183105,0.183105,-0.122070
3635652666,0.01292419,0.00277710,-0.99540710,0.000000,0.244141,-0.122070
3640739083,0.01313782,0.00239563,-0.99652100,0.000000,0.244141,-0.122070
3645805166,0.01313782,0.00239563,-0.99652100,0.061035,0.122070,-0.061035
3650874375,0.01400757,0.00318909,-0.99539185,0.061035,0.122070,-0.061035
3655936500,0.01400757,0.00318909,-0.99539185,0.000000,0.244141,-0.183105
3660995708,0.01365662,0.00369263,-0.99526978,0.000000,0.244141,-0.183105
3666058333,0.01365662,0.00369263,-0.99526978,0.061035,0.244141,-0.061035
3671205666,0.01272583,0.00312805,-0.99575806,0.061035,0.244141,-0.061035
3676277916,0.01272583,0.00312805,-0.99575806,0.183105,0.183105,-0.183105
3681341416,0.01333618,0.00355530,-0.99504089,0.183105,0.183105,-0.183105
3686408916,0.01333618,0.00355530,-0.99504089,0.122070,0.244141,-0.122070
3691476916,0.01275635,0.00399780,-0.99472046,0.122070,0.244141,-0.122070
3696541958,0.01275635,0.00399780,-0.99472046,0.061035,0.244141,0.000000
3701616708,0.01391602,0.00439453,-0.99465942,0.061035,0.244141,0.000000
3706681125,0.01391602,0.00439453,-0.99465942,0.000000,0.122070,-0.244141
3711745750,0.01319885,0.00343323,-0.99488831,0.000000,0.122070,-0.244141
3716852416,0.01319885,0.00343323,-0.99488831,0.122070,0.244141,-0.122070
3719394583,0.01385498,0.00408936,-0.99420166,0.122070,0.244141,-0.122070
3724456500,0.01385498,0.00408936,-0.99420166,0.000000,0.183105,-0.122070
3729525083,0.01315308,0.00437927,-0.99461365,0.000000,0.183105,-0.122070
3734593958,0.01315308,0.00437927,-0.99461365,0.122070,0.183105,-0.122070
3739656458,0.01351929,0.00442505,-0.99485779,0.122070,0.183105,-0.122070
3744751833,0.01351929,0.00442505,-0.99485779,0.122070,0.183105,-0.122070
3749816291,0.01286316,0.00456238,-0.99552917,0.122070,0.183105,-0.122070
3754878958,0.01286316,0.00456238,-0.99552917,-0.061035,0.244141,-0.061035
3759940083,0.01260376,0.00282288,-0.99539185,-0.061035,0.244141,-0.061035
3764999916,0.01260376,0.00282288,-0.99539185,0.183105,0.122070,-0.061035
3770060541,0.01321411,0.00331116,-0.99507141,0.183105,0.122070,-0.061035
3775122083,0.01321411,0.00331116,-0.99507141,0.061035,0.061035,-0.061035
3780185625,0.01371765,0.00276184,-0.99559021,0.061035,0.061035,-0.061035
3785248375,0.01371765,0.00276184,-0.99559021,0.061035,0.183105,-0.122070
3790324458,0.01409912,0.00369263,-0.99505615,0.061035,0.183105,-0.122070
3795391333,0.01409912,0.00369263,-0.99505615,0.061035,0.305176,0.000000
3800520458,0.01400757,0.00372314,-0.99464417,0.061035,0.305176,0.000000
3805591916,0.01400757,0.00372314,-0.99464417,0.000000,0.183105,-0.122070
3810656250,0.01376343,0.00341797,-0.99392700,0.000000,0.183105,-0.122070
3815723375,0.01376343,0.00341797,-0.99392700,0.122070,0.244141,-0.183105
3820817375,0.01338196,0.00373840,-0.99523926,0.122070,0.244141,-0.183105
3825904916,0.01338196,0.00373840,-0.99523926,0.183105,0.244141,-0.183105
3830963208,0.01306152,0.00399780,-0.99490356,0.183105,0.244141,-0.183105
3836025375,0.01306152,0.00399780,-0.99490356,-0.061035,0.122070,0.061035
3841087333,0.01385498,0.00436401,-0.99444580,-0.061035,0.122070,0.061035
3846153166,0.01385498,0.00436401,-0.99444580,0.061035,0.244141,-0.122070
3851268791,0.01332092,0.00398254,-0.99496460,0.061035,0.244141,-0.122070
3856340125,0.01332092,0.00398254,-0.99496460,0.061035,0.061035,-0.061035
3861399291,0.01260376,0.00303650,-0.99557495,0.061035,0.061035,-0.061035
3866455166,0.01260376,0.00303650,-0.99557495,0.061035,0.305176,-0.061035
3871527083,0.01387024,0.00376892,-0.99378967,0.061035,0.305176,-0.061035
3876593458,0.01387024,0.00376892,-0.99378967,0.122070,0.122070,-0.122070
3881865750,0.01292419,0.00363159,-0.99523926,0.122070,0.122070,-0.122070
3886944750,0.01292419,0.00363159,-0.99523926,0.122070,0.366211,-0.122070
3892022458,0.01274109,0.00366211,-0.99528503,0.122070,0.366211,-0.122070
3897081166,0.01274109,0.00366211,-0.99528503,0.122070,0.305176,0.000000
3902176250,0.01347351,0.00398254,-0.99563599,0.122070,0.305176,0.000000
3907234291,0.01347351,0.00398254,-0.99563599,0.000000,0.061035,-0.122070
3912357958,0.01419067,0.00479126,-0.99580383,0.000000,0.061035,-0.122070
3914906458,0.01419067,0.00479126,-0.99580383,0.061035,0.244141,-0.061035
3922506958,0.01469421,0.00354004,-0.99502563,0.061035,0.244141,-0.061035
3925048375,0.01469421,0.00354004,-0.99502563,0.183105,0.122070,-0.061035
3930111083,0.01402283,0.00361633,-0.99467468,0.183105,0.122070,-0.061035
3935169291,0.01402283,0.00361633,-0.99467468,0.122070,0.305176,-0.061035
3940240666,0.01254272,0.00453186,-0.99577332,0.122070,0.305176,-0.061035
3945311000,0.01254272,0.00453186,-0.99577332,-0.061035,0.183105,-0.183105
3950370583,0.01370239,0.00379944,-0.99420166,-0.061035,0.183105,-0.183105
3955435000,0.01370239,0.00379944,-0.99420166,0.061035,0.122070,-0.122070
3960492666,0.01460266,0.00335693,-0.99388123,0.061035,0.122070,-0.122070
3965575166,0.01460266,0.00335693,-0.99388123,0.122070,0.183105,-0.122070
3970642125,0.01283264,0.00334167,-0.99594116,0.122070,0.183105,-0.122070
3975697833,0.01283264,0.00334167,-0.99594116,0.122070,0.061035,-0.061035
3980766000,0.01292419,0.00379944,-0.99606323,0.122070,0.061035,-0.061035
3985822333,0.01292419,0.00379944,-0.99606323,0.122070,0.183105,-0.061035
3990899750,0.01335144,0.00459290,-0.99479675,0.122070,0.183105,-0.061035
3995961458,0.01335144,0.00459290,-0.99479675,0.122070,0.122070,-0.061035
4001018458,0.01316833,0.00398254,-0.99423218,0.122070,0.122070,-0.061035
4006086166,0.01316833,0.00398254,-0.99423218,0.061035,0.244141,-0.122070
4011162208,0.01364136,0.00318909,-0.99671936,0.061035,0.244141,-0.122070
4016229375,0.01364136,0.00318909,-0.99671936,0.000000,0.122070,0.000000
4021308041,0.01313782,0.00424194,-0.99545288,0.000000,0.122070,0.000000
4026370291,0.01313782,0.00424194,-0.99545288,0.061035,0.061035,-0.122070
4031443291,0.01239014,0.00424194,-0.99516296,0.061035,0.061035,-0.122070
4036514166,0.01239014,0.00424194,-0.99516296,0.000000,0.122070,-0.061035
4041579500,0.01229858,0.00291443,-0.99395752,0.000000,0.122070,-0.061035
4046652541,0.01229858,0.00291443,-0.99395752,0.061035,0.366211,-0.061035
4051709750,0.01289368,0.00299072,-0.99472046,0.061035,0.366211,-0.061035
4056770333,0.01289368,0.00299072,-0.99472046,0.183105,0.244141,-0.061035
4061827250,0.01422119,0.00268555,-0.99534607,0.183105,0.244141,-0.061035
4066885333,0.01422119,0.00268555,-0.99534607,0.122070,0.061035,-0.061035
4071970375,0.01325989,0.00300598,-0.99528503,0.122070,0.061035,-0.061035
4077028250,0.01325989,0.00300598,-0.99528503,0.061035,0.183105,-0.183105
4082086666,0.01271057,0.00352478,-0.99491882,0.061035,0.183105,-0.183105
4087194083,0.01271057,0.00352478,-0.99491882,0.122070,0.183105,-0.183105
4092361666,0.01359558,0.00369263,-0.99468994,0.122070,0.183105,-0.183105
4097425625,0.01359558,0.00369263,-0.99468994,-0.061035,0.183105,-0.183105
4102484041,0.01414490,0.00418091,-0.99464417,-0.061035,0.183105,-0.183105
4107561625,0.01414490,0.00418091,-0.99464417,0.122070,0.183105,-0.122070
4112625916,0.01322937,0.00321960,-0.99484253,0.122070,0.183105,-0.122070
4115209291,0.01322937,0.00321960,-0.99484253,0.061035,0.244141,-0.061035
4122814458,0.01379395,0.00376892,-0.99398804,0.061035,0.244141,-0.061035
4125363958,0.01379395,0.00376892,-0.99398804,0.000000,0.244141,-0.183105
4130429666,0.01405334,0.00357056,-0.99458313,0.000000,0.244141,-0.183105
4135498000,0.01405334,0.00357056,-0.99458313,0.122070,0.244141,0.000000
4140564791,0.01382446,0.00349426,-0.99502563,0.122070,0.244141,0.000000
4145637541,0.01382446,0.00349426,-0.99502563,0.122070,0.305176,-0.183105
4150702166,0.01318359,0.00314331,-0.99517822,0.122070,0.305176,-0.183105
4155772583,0.01318359,0.00314331,-0.99517822,-0.061035,0.000000,-0.122070
4160834875,0.01264954,0.00335693,-0.99478149,-0.061035,0.000000,-0.122070
4165892541,0.01264954,0.00335693,-0.99478149,0.061035,0.305176,-0.061035
4170952333,0.01402283,0.00463867,-0.99455261,0.061035,0.305176,-0.061035
4176010416,0.01402283,0.00463867,-0.99455261,0.061035,0.122070,0.000000
4181068416,0.01412964,0.00474548,-0.99537659,0.061035,0.122070,0.000000
4186143375,0.01412964,0.00474548,-0.99537659,0.122070,0.244141,-0.061035
4191219875,0.01411438,0.00344849,-0.99497986,0.122070,0.244141,-0.061035
4196278125,0.01411438,0.00344849,-0.99497986,0.000000,0.244141,-0.122070
4201338375,0.01362610,0.00260925,-0.99433899,0.000000,0.244141,-0.122070
4206173083,0.01362610,0.00260925,-0.99433899,0.061035,0.183105,-0.122070
4211233708,0.01417542,0.00347900,-0.99487305,0.061035,0.183105,-0.122070
4216291833,0.01417542,0.00347900,-0.99487305,0.000000,0.183105,-0.122070
4221352583,0.01362610,0.00386047,-0.99476624,0.000000,0.183105,-0.122070
4226423791,0.01362610,0.00386047,-0.99476624,0.000000,0.244141,-0.061035
4231494666,0.01290894,0.00323486,-0.99484253,0.000000,0.244141,-0.061035
4236558666,0.01290894,0.00323486,-0.99484253,0.122070,0.183105,-0.183105
4241385500,0.01335144,0.00401306,-0.99523926,0.122070,0.183105,-0.183105
4246441208,0.01335144,0.00401306,-0.99523926,0.000000,0.244141,-0.122070
4251539666,0.01437378,0.00428772,-0.99453735,0.000000,0.244141,-0.122070
4256603708,0.01437378,0.00428772,-0.99453735,0.122070,0.183105,-0.183105
4261683833,0.01422119,0.00312805,-0.99575806,0.122070,0.183105,-0.183105
4266797166,0.01422119,0.00312805,-0.99575806,0.000000,0.305176,0.000000
4271871000,0.01365662,0.00328064,-0.99499512,0.000000,0.305176,0.000000
4276941750,0.01365662,0.00328064,-0.99499512,0.244141,0.244141,-0.122070
4282004416,0.01416016,0.00331116,-0.99479675,0.244141,0.244141,-0.122070
4287058541,0.01416016,0.00331116,-0.99479675,0.122070,0.244141,-0.183105
4292118125,0.01239014,0.00329590,-0.99397278,0.122070,0.244141,-0.183105
4297182625,0.01239014,0.00329590,-0.99397278,0.000000,0.183105,-0.061035
4302248375,0.01322937,0.00354004,-0.99429321,0.000000,0.183105,-0.061035
4307312250,0.01322937,0.00354004,-0.99429321,0.122070,0.183105,-0.122070
4312368333,0.01339722,0.00460815,-0.99499512,0.122070,0.183105,-0.122070
4317425458,0.01339722,0.00460815,-0.99499512,0.061035,0.244141,-0.122070
4322482250,0.01367188,0.00384521,-0.99525452,0.061035,0.244141,-0.122070
4327560875,0.01367188,0.00384521,-0.99525452,0.061035,0.244141,-0.122070
4332626625,0.01403809,0.00314331,-0.99539185,0.061035,0.244141,-0.122070
4337686291,0.01403809,0.00314331,-0.99539185,0.122070,0.305176,-0.183105
4342743708,0.01370239,0.00334167,-0.99507141,0.122070,0.305176,-0.183105
4347802500,0.01370239,0.00334167,-0.99507141,0.122070,0.183105,-0.061035
4352868750,0.01277161,0.00386047,-0.99383545,0.122070,0.183105,-0.061035
4357945916,0.01277161,0.00386047,-0.99383545,0.122070,0.122070,-0.183105
4363008833,0.01318359,0.00325012,-0.99540710,0.122070,0.122070,-0.183105
4368086208,0.01318359,0.00325012,-0.99540710,0.061035,0.183105,-0.061035
4373147708,0.01341248,0.00396729,-0.99571228,0.061035,0.183105,-0.061035
4378255625,0.01341248,0.00396729,-0.99571228,0.122070,0.183105,-0.183105
4383372833,0.01338196,0.00326538,-0.99432373,0.122070,0.183105,-0.183105
4388445958,0.01338196,0.00326538,-0.99432373,0.000000,0.122070,-0.183105
4393516125,0.01345825,0.00289917,-0.99391174,0.000000,0.122070,-0.183105
4396051958,0.01345825,0.00289917,-0.99391174,0.000000,0.244141,-0.183105
4401131708,0.01290894,0.00312805,-0.99482727,0.000000,0.244141,-0.183105
4406201666,0.01290894,0.00312805,-0.99482727,0.061035,0.305176,-0.183105
4410983750,0.01309204,0.00329590,-0.99531555,0.061035,0.305176,-0.183105
4416061458,0.01309204,0.00329590,-0.99531555,0.000000,0.122070,-0.183105
4421125958,0.01278687,0.00338745,-0.99470520,0.000000,0.122070,-0.183105
4426184458,0.01278687,0.00338745,-0.99470520,0.122070,0.305176,-0.061035
4431305625,0.01318359,0.00335693,-0.99530029,0.122070,0.305176,-0.061035
4436364791,0.01318359,0.00335693,-0.99530029,0.122070,0.183105,-0.061035
4441422625,0.01290894,0.00392151,-0.99504089,0.122070,0.183105,-0.061035
4446548625,0.01290894,0.00392151,-0.99504089,0.061035,0.183105,-0.061035
4451619000,0.01330566,0.00308228,-0.99394226,0.061035,0.183105,-0.061035
4456685083,0.01330566,0.00308228,-0.99394226,0.061035,0.183105,-0.183105
4461743291,0.01405334,0.00428772,-0.99446106,0.061035,0.183105,-0.183105
4466800791,0.01405334,0.00428772,-0.99446106,0.000000,0.305176,-0.122070
4471873625,0.01333618,0.00379944,-0.99487305,0.000000,0.305176,-0.122070
4476930916,0.01333618,0.00379944,-0.99487305,0.061035,0.183105,-0.122070
4481990166,0.01307678,0.00392151,-0.99461365,0.061035,0.183105,-0.122070
4487046541,0.01307678,0.00392151,-0.99461365,0.122070,0.183105,-0.122070
4492113041,0.01332092,0.00395203,-0.99513245,0.122070,0.183105,-0.122070
4497176041,0.01332092,0.00395203,-0.99513245,0.000000,0.061035,-0.122070
4502231875,0.01339722,0.00477600,-0.99441528,0.000000,0.061035,-0.122070
4507294833,0.01339722,0.00477600,-0.99441528,0.000000,0.244141,-0.183105
4512356916,0.01365662,0.00364685,-0.99548340,0.000000,0.244141,-0.183105
4517438750,0.01365662,0.00364685,-0.99548340,0.183105,0.244141,-0.122070
4522498916,0.01321411,0.00326538,-0.99539185,0.183105,0.244141,-0.122070
4527555208,0.01321411,0.00326538,-0.99539185,0.122070,0.305176,-0.061035
4532611208,0.01263428,0.00387573,-0.99401855,0.122070,0.305176,-0.061035
4537681333,0.01263428,0.00387573,-0.99401855,0.000000,0.244141,-0.122070
4542742250,0.01315308,0.00399780,-0.99438477,0.000000,0.244141,-0.122070
4547811750,0.01315308,0.00399780,-0.99438477,0.122070,0.244141,-0.061035
4552884250,0.01287842,0.00402832,-0.99578857,0.122070,0.244141,-0.061035
4557946875,0.01287842,0.00402832,-0.99578857,0.000000,0.305176,-0.122070
4563012541,0.01296997,0.00427246,-0.99517822,0.000000,0.305176,-0.122070
4568068041,0.01296997,0.00427246,-0.99517822,0.000000,0.183105,-0.183105
4573128291,0.01463318,0.00338745,-0.99552917,0.000000,0.183105,-0.183105
4578186916,0.01463318,0.00338745,-0.99552917,0.122070,0.305176,-0.122070
4583296500,0.01399231,0.00320435,-0.99479675,0.122070,0.305176,-0.122070
4588354166,0.01399231,0.00320435,-0.99479675,0.000000,0.305176,-0.183105
4593489041,0.01370239,0.00321960,-0.99397278,0.000000,0.305176,-0.183105
4598562000,0.01370239,0.00321960,-0.99397278,0.061035,0.183105,-0.183105
4603628125,0.01263428,0.00192261,-0.99676514,0.061035,0.183105,-0.183105
4608763958,0.01263428,0.00192261,-0.99676514,0.000000,0.305176,-0.061035
4613844916,0.01263428,0.00274658,-0.99446106,0.000000,0.305176,-0.061035
4616397250,0.01263428,0.00274658,-0.99446106,0.000000,0.244141,-0.183105
4621520791,0.01338196,0.00369263,-0.99461365,0.000000,0.244141,-0.183105
4626589458,0.01338196,0.00369263,-0.99461365,0.061035,0.305176,-0.183105
4631656083,0.01351929,0.00364685,-0.99574280,0.061035,0.305176,-0.183105
4636728083,0.01351929,0.00364685,-0.99574280,0.061035,0.122070,-0.061035
4641792416,0.01303101,0.00337219,-0.99552917,0.061035,0.122070,-0.061035
4646851500,0.01303101,0.00337219,-0.99552917,0.061035,0.183105,-0.061035
4651910708,0.01348877,0.00367737,-0.99555969,0.061035,0.183105,-0.061035
4656980708,0.01348877,0.00367737,-0.99555969,0.000000,0.183105,-0.122070
4662054708,0.01362610,0.00392151,-0.99551392,0.000000,0.183105,-0.122070
4667126125,0.01362610,0.00392151,-0.99551392,0.122070,0.244141,-0.061035
4672183666,0.01330566,0.00389099,-0.99584961,0.122070,0.244141,-0.061035
4677241000,0.01330566,0.00389099,-0.99584961,0.000000,0.122070,-0.122070
4682299833,0.01275635,0.00242615,-0.99540710,0.000000,0.122070,-0.122070
4687358875,0.01275635,0.00242615,-0.99540710,0.122070,0.244141,-0.122070
4692417916,0.01368713,0.00379944,-0.99438477,0.122070,0.244141,-0.122070
4697482750,0.01368713,0.00379944,-0.99438477,0.061035,0.183105,-0.061035
4702566750,0.01301575,0.00326538,-0.99531555,0.061035,0.183105,-0.061035
4707624666,0.01301575,0.00326538,-0.99531555,0.061035,0.183105,-0.122070
4712680208,0.01312256,0.00286865,-0.99635315,0.061035,0.183105,-0.122070
4717748541,0.01312256,0.00286865,-0.99635315,0.122070,0.305176,-0.183105
4722652333,0.01268005,0.00273132,-0.99569702,0.122070,0.305176,-0.183105
4727711166,0.01268005,0.00273132,-0.99569702,0.122070,0.183105,-0.061035
4732768458,0.01208496,0.00291443,-0.99504089,0.122070,0.183105,-0.061035
4737838291,0.01208496,0.00291443,-0.99504089,0.061035,0.305176,-0.061035
4742967916,0.01287842,0.00395203,-0.99484253,0.061035,0.305176,-0.061035
4748033375,0.01287842,0.00395203,-0.99484253,0.061035,0.183105,-0.122070
4753106333,0.01359558,0.00372314,-0.99473572,0.061035,0.183105,-0.122070
4758164458,0.01359558,0.00372314,-0.99473572,-0.061035,0.244141,-0.183105
4763249750,0.01327515,0.00375366,-0.99507141,-0.061035,0.244141,-0.183105
4768372791,0.01327515,0.00375366,-0.99507141,0.000000,0.122070,-0.305176
4773433791,0.01385498,0.00358582,-0.99501038,0.000000,0.122070,-0.305176
4778492250,0.01385498,0.00358582,-0.99501038,0.122070,0.244141,-0.061035
4783562333,0.01434326,0.00395203,-0.99566650,0.122070,0.244141,-0.061035
4788649583,0.01434326,0.00395203,-0.99566650,0.000000,0.183105,-0.183105
4793653791,0.01370239,0.00370789,-0.99623108,0.000000,0.183105,-0.183105
4798727166,0.01370239,0.00370789,-0.99623108,0.000000,0.305176,-0.122070
4803785000,0.01336670,0.00372314,-0.99501038,0.000000,0.305176,-0.122070
4808848500,0.01336670,0.00372314,-0.99501038,0.061035,0.305176,0.000000
4813906375,0.01336670,0.00256348,-0.99578857,0.061035,0.305176,0.000000
4818962041,0.01336670,0.00256348,-0.99578857,-0.061035,0.244141,-0.244141
4824019833,0.01338196,0.00320435,-0.99600220,-0.061035,0.244141,-0.244141
4829173541,0.01338196,0.00320435,-0.99600220,0.122070,0.122070,-0.183105
4834231666,0.01322937,0.00382996,-0.99552917,0.122070,0.122070,-0.183105
4839301916,0.01322937,0.00382996,-0.99552917,0.122070,0.061035,-0.122070
4844415916,0.01272583,0.00343323,-0.99511719,0.122070,0.061035,-0.122070
4846955416,0.01272583,0.00343323,-0.99511719,0.000000,0.183105,-0.061035
4852019666,0.01484680,0.00346375,-0.99485779,0.000000,0.183105,-0.061035
4857081916,0.01484680,0.00346375,-0.99485779,0.000000,0.061035,-0.183105
4864341625,0.01432800,0.00411987,-0.99639893,0.000000,0.061035,-0.183105
4869434458,0.01432800,0.00411987,-0.99639893,0.183105,0.122070,-0.061035
4874516916,0.01290894,0.00384521,-0.99499512,0.183105,0.122070,-0.061035
4877052000,0.01290894,0.00384521,-0.99499512,0.061035,0.061035,-0.244141
4882107833,0.01298523,0.00428772,-0.99491882,0.061035,0.061035,-0.244141
4887162166,0.01298523,0.00428772,-0.99491882,0.122070,0.244141,0.061035
4892215750,0.01316833,0.00335693,-0.99491882,0.122070,0.244141,0.061035
4897281500,0.01316833,0.00335693,-0.99491882,0.122070,0.183105,-0.122070
4902341083,0.01289368,0.00350952,-0.99513245,0.122070,0.183105,-0.122070
4907407416,0.01289368,0.00350952,-0.99513245,-0.061035,0.122070,-0.183105
4912480666,0.01313782,0.00428772,-0.99385071,-0.061035,0.122070,-0.183105
4917551500,0.01313782,0.00428772,-0.99385071,0.183105,0.183105,-0.061035
4922611666,0.01309204,0.00375366,-0.99516296,0.183105,0.183105,-0.061035
4927678458,0.01309204,0.00375366,-0.99516296,0.000000,0.183105,-0.122070
4932739375,0.01313782,0.00439453,-0.99501038,0.000000,0.183105,-0.122070
4937796791,0.01313782,0.00439453,-0.99501038,0.000000,0.183105,-0.305176
4942854125,0.01394653,0.00407410,-0.99569702,0.000000,0.183105,-0.305176
4947911208,0.01394653,0.00407410,-0.99569702,0.061035,0.183105,-0.183105
4952967791,0.01353455,0.00410461,-0.99534607,0.061035,0.183105,-0.183105
4958047291,0.01353455,0.00410461,-0.99534607,0.122070,0.183105,-0.061035
4962835333,0.01290894,0.00384521,-0.99514771,0.122070,0.183105,-0.061035
4967912750,0.01290894,0.00384521,-0.99514771,0.000000,0.305176,-0.122070
4972979958,0.01310730,0.00390625,-0.99499512,0.000000,0.305176,-0.122070
4978037458,0.01310730,0.00390625,-0.99499512,0.000000,0.122070,-0.183105
4983103916,0.01283264,0.00364685,-0.99507141,0.000000,0.122070,-0.183105
4988170416,0.01283264,0.00364685,-0.99507141,0.061035,0.183105,0.000000
4993289625,0.01275635,0.00273132,-0.99539185,0.061035,0.183105,0.000000
4998371333,0.01275635,0.00273132,-0.99539185,0.000000,0.244141,-0.061035
5003437958,0.01380920,0.00267029,-0.99462891,0.000000,0.244141,-0.061035
5008511541,0.01380920,0.00267029,-0.99462891,0.061035,0.305176,0.000000
5013581000,0.01409912,0.00350952,-0.99586487,0.061035,0.305176,0.000000
5018655416,0.01409912,0.00350952,-0.99586487,-0.061035,0.244141,-0.122070
5023715041,0.01324463,0.00343323,-0.99604797,-0.061035,0.244141,-0.122070
5028772125,0.01324463,0.00343323,-0.99604797,0.000000,0.061035,-0.122070
5033843916,0.01361084,0.00302124,-0.99513245,0.000000,0.061035,-0.122070
5038900416,0.01361084,0.00302124,-0.99513245,0.122070,0.183105,-0.061035
5043957625,0.01393127,0.00312805,-0.99455261,0.122070,0.183105,-0.061035
5049014750,0.01393127,0.00312805,-0.99455261,0.061035,0.244141,-0.061035
5054085625,0.01383972,0.00462341,-0.99493408,0.061035,0.244141,-0.061035
5059143625,0.01383972,0.00462341,-0.99493408,0.000000,0.122070,-0.122070
5064209333,0.01431274,0.00439453,-0.99496460,0.000000,0.122070,-0.122070
5069267916,0.01431274,0.00439453,-0.99496460,0.000000,0.244141,-0.061035
5074324250,0.01359558,0.00395203,-0.99537659,0.000000,0.244141,-0.061035
5079391750,0.01359558,0.00395203,-0.99537659,0.061035,0.244141,-0.183105
5084449750,0.01322937,0.00454712,-0.99508667,0.061035,0.244141,-0.183105
5089515666,0.01322937,0.00454712,-0.99508667,-0.061035,0.183105,-0.183105
5094574041,0.01388550,0.00369263,-0.99499512,-0.061035,0.183105,-0.183105
5099636416,0.01388550,0.00369263,-0.99499512,0.061035,0.122070,-0.183105
5104693875,0.01338196,0.00360107,-0.99450684,0.061035,0.122070,-0.183105
5109749541,0.01338196,0.00360107,-0.99450684,-0.061035,0.183105,-0.061035
5114805208,0.01292419,0.00329590,-0.99482727,-0.061035,0.183105,-0.061035
5119861833,0.01292419,0.00329590,-0.99482727,0.061035,0.305176,-0.122070
5124930333,0.01347351,0.00337219,-0.99549866,0.061035,0.305176,-0.122070
5129997291,0.01347351,0.00337219,-0.99549866,0.183105,0.183105,-0.183105
5135065500,0.01359558,0.00357056,-0.99453735,0.183105,0.183105,-0.183105
5140127458,0.01359558,0.00357056,-0.99453735,0.122070,0.000000,-0.122070
5145186041,0.01325989,0.00392151,-0.99349976,0.122070,0.000000,-0.122070
5150243333,0.01325989,0.00392151,-0.99349976,-0.244141,0.671387,-0.122070
5155297583,0.01223755,0.00367737,-0.99551392,-0.244141,0.671387,-0.122070
5160384458,0.01223755,0.00367737,-0.99551392,0.610352,0.000000,-0.061035
5165450458,0.01304626,0.00537109,-0.99720764,0.610352,0.000000,-0.061035
5168001625,0.01304626,0.00537109,-0.99720764,-0.244141,-0.061035,-0.061035
5173058583,0.01354980,0.00543213,-0.99105835,-0.244141,-0.061035,-0.061035
5178122250,0.01354980,0.00543213,-0.99105835,0.061035,0.122070,-0.061035
5183186000,0.01371765,0.00495911,-1.00030518,0.061035,0.122070,-0.061035
5188253041,0.01371765,0.00495911,-1.00030518,0.061035,0.183105,-0.244141
5193312875,0.01335144,0.00337219,-0.99220276,0.061035,0.183105,-0.244141
5198395958,0.01335144,0.00337219,-0.99220276,0.000000,0.244141,0.000000
5203473541,0.01312256,0.00204468,-0.99705505,0.000000,0.244141,0.000000
5208217541,0.01312256,0.00204468,-0.99705505,0.061035,0.305176,-0.122070
5213262333,0.01246643,0.00099182,-0.99673462,0.061035,0.305176,-0.122070
5218316750,0.01246643,0.00099182,-0.99673462,-0.122070,0.244141,-0.183105
5223380166,0.01354980,0.00071716,-0.99490356,-0.122070,0.244141,-0.183105
5228443541,0.01354980,0.00071716,-0.99490356,0.183105,0.244141,-0.122070
5233167375,0.01341248,0.00053406,-0.99464417,0.183105,0.244141,-0.122070
5238248166,0.01341248,0.00053406,-0.99464417,-0.122070,0.366211,-0.061035
5243164583,0.01274109,0.00218201,-0.99433899,-0.122070,0.366211,-0.061035
5248228458,0.01274109,0.00218201,-0.99433899,0.183105,0.244141,-0.061035
5253290583,0.01347351,0.00360107,-0.99662781,0.183105,0.244141,-0.061035
5258160708,0.01347351,0.00360107,-0.99662781,0.000000,0.183105,-0.061035
5263230333,0.01289368,0.00514221,-0.99162292,0.000000,0.183105,-0.061035
5268315791,0.01289368,0.00514221,-0.99162292,0.122070,0.244141,-0.061035
5273394708,0.01191711,0.00508118,-0.99562073,0.122070,0.244141,-0.061035
5278515000,0.01191711,0.00508118,-0.99562073,0.000000,0.305176,-0.244141
5283581416,0.01348877,0.00506592,-0.99517822,0.000000,0.305176,-0.244141
5288645750,0.01348877,0.00506592,-0.99517822,0.000000,0.061035,-0.061035
5293705958,0.01335144,0.00454712,-0.99539185,0.000000,0.061035,-0.061035
5298770291,0.01335144,0.00454712,-0.99539185,0.183105,0.183105,-0.061035
5303830541,0.01344299,0.00451660,-0.99610901,0.183105,0.183105,-0.061035
5308912708,0.01344299,0.00451660,-0.99610901,-0.061035,0.183105,-0.122070
5313955833,0.01280212,0.00422668,-0.99467468,-0.061035,0.183105,-0.122070
5318949666,0.01280212,0.00422668,-0.99467468,0.183105,0.244141,-0.122070
5324029041,0.01289368,0.00297546,-0.99572754,0.183105,0.244141,-0.122070
5329109041,0.01289368,0.00297546,-0.99572754,0.183105,0.122070,-0.183105
5334192250,0.01368713,0.00442505,-0.99505615,0.183105,0.122070,-0.183105
5339300000,0.01368713,0.00442505,-0.99505615,0.061035,0.061035,-0.183105
5344392500,0.01321411,0.00425720,-0.99505615,0.061035,0.061035,-0.183105
5349474125,0.01321411,0.00425720,-0.99505615,0.061035,0.061035,-0.183105
5354537666,0.01486206,0.00366211,-0.99456787,0.061035,0.061035,-0.183105
5359656750,0.01486206,0.00366211,-0.99456787,0.061035,0.305176,-0.122070
5364731166,0.01359558,0.00347900,-0.99436951,0.061035,0.305176,-0.122070
5369792416,0.01359558,0.00347900,-0.99436951,0.000000,0.183105,-0.183105
5374849791,0.01324463,0.00425720,-0.99481201,0.000000,0.183105,-0.183105
5379744666,0.01324463,0.00425720,-0.99481201,0.122070,0.183105,-0.122070
5384816458,0.01286316,0.00480652,-0.99429321,0.122070,0.183105,-0.122070
5389874958,0.01286316,0.00480652,-0.99429321,0.122070,0.183105,-0.122070
5394931666,0.01403809,0.00419617,-0.99475098,0.122070,0.183105,-0.122070
5399822416,0.01403809,0.00419617,-0.99475098,0.000000,0.244141,-0.061035
5404883833,0.01271057,0.00454712,-0.99507141,0.000000,0.244141,-0.061035
5409949416,0.01271057,0.00454712,-0.99507141,-0.061035,0.244141,-0.183105
5415008000,0.01153564,0.00396729,-0.99530029,-0.061035,0.244141,-0.183105
5420095041,0.01153564,0.00396729,-0.99530029,0.061035,0.122070,-0.122070
5425164875,0.01235962,0.00386047,-0.99612427,0.061035,0.122070,-0.122070
5430224000,0.01235962,0.00386047,-0.99612427,0.000000,0.366211,-0.061035
5435283250,0.01408386,0.00422668,-0.99542236,0.000000,0.366211,-0.061035
5440343583,0.01408386,0.00422668,-0.99542236,0.061035,0.183105,-0.061035
5445403375,0.01307678,0.00431824,-0.99510193,0.061035,0.183105,-0.061035
5450462833,0.01307678,0.00431824,-0.99510193,0.061035,0.122070,-0.122070
5455529541,0.01289368,0.00346375,-0.99496460,0.061035,0.122070,-0.122070
5460589458,0.01289368,0.00346375,-0.99496460,0.061035,0.061035,-0.061035
5465658041,0.01336670,0.00274658,-0.99540710,0.061035,0.061035,-0.061035
5470737166,0.01336670,0.00274658,-0.99540710,0.122070,0.183105,-0.061035
5475804916,0.01283264,0.00286865,-0.99633789,0.122070,0.183105,-0.061035
5478346500,0.01283264,0.00286865,-0.99633789,0.000000,0.122070,-0.122070
5483410041,0.01318359,0.00280762,-0.99552917,0.000000,0.122070,-0.122070
5488468708,0.01318359,0.00280762,-0.99552917,0.061035,0.183105,-0.061035
5493563208,0.01301575,0.00300598,-0.99621582,0.061035,0.183105,-0.061035
5498649625,0.01301575,0.00300598,-0.99621582,0.183105,0.366211,-0.122070
5503733083,0.01240540,0.00267029,-0.99485779,0.183105,0.366211,-0.122070
5508794791,0.01240540,0.00267029,-0.99485779,0.000000,0.244141,-0.183105
5513854250,0.01370239,0.00236511,-0.99464417,0.000000,0.244141,-0.183105
5518911375,0.01370239,0.00236511,-0.99464417,0.122070,0.305176,-0.122070
5523971291,0.01431274,0.00367737,-0.99459839,0.122070,0.305176,-0.122070
5529033750,0.01431274,0.00367737,-0.99459839,0.244141,0.305176,-0.122070
5534106708,0.01489258,0.00360107,-0.99598694,0.244141,0.305176,-0.122070
5539166750,0.01489258,0.00360107,-0.99598694,0.061035,0.183105,-0.183105
5544224875,0.01438904,0.00382996,-0.99604797,0.061035,0.183105,-0.183105
5549284125,0.01438904,0.00382996,-0.99604797,0.000000,0.244141,0.000000
5554348250,0.01321411,0.00357056,-0.99485779,0.000000,0.244141,0.000000
5559407166,0.01321411,0.00357056,-0.99485779,0.183105,0.183105,-0.122070
5564471291,0.01313782,0.00424194,-0.99470520,0.183105,0.183105,-0.122070
5569535750,0.01313782,0.00424194,-0.99470520,0.122070,0.244141,-0.122070
5574602500,0.01380920,0.00459290,-0.99418640,0.122070,0.244141,-0.122070
5579665000,0.01380920,0.00459290,-0.99418640,0.000000,0.183105,0.000000
5584736625,0.01425171,0.00465393,-0.99464417,0.000000,0.183105,0.000000
5589814416,0.01425171,0.00465393,-0.99464417,0.122070,0.183105,-0.122070
5594885625,0.01324463,0.00494385,-0.99649048,0.122070,0.183105,-0.122070
5599959625,0.01324463,0.00494385,-0.99649048,0.000000,0.061035,-0.122070
5605024541,0.01322937,0.00483704,-0.99453735,0.000000,0.061035,-0.122070
5610090083,0.01322937,0.00483704,-0.99453735,-0.061035,0.183105,-0.122070
5615161583,0.01281738,0.00273132,-0.99531555,-0.061035,0.183105,-0.122070
5620268625,0.01281738,0.00273132,-0.99531555,0.122070,0.244141,-0.061035
5625338500,0.01310730,0.00300598,-0.99490356,0.122070,0.244141,-0.061035
5630399166,0.01310730,0.00300598,-0.99490356,0.000000,0.244141,-0.122070
5635464291,0.01452637,0.00292969,-0.99468994,0.000000,0.244141,-0.122070
5640521875,0.01452637,0.00292969,-0.99468994,0.122070,0.366211,-0.122070
5645603000,0.01461792,0.00248718,-0.99513245,0.122070,0.366211,-0.122070
5650668750,0.01461792,0.00248718,-0.99513245,0.122070,0.183105,-0.061035
5655728708,0.01437378,0.00282288,-0.99548340,0.122070,0.183105,-0.061035
5660793750,0.01437378,0.00282288,-0.99548340,0.000000,0.183105,-0.183105
5665864125,0.01391602,0.00306702,-0.99659729,0.000000,0.183105,-0.183105
5670929458,0.01391602,0.00306702,-0.99659729,0.122070,0.244141,0.061035
5675993708,0.01345825,0.00274658,-0.99497986,0.122070,0.244141,0.061035
5681076166,0.01345825,0.00274658,-0.99497986,0.122070,0.183105,-0.183105
5686133708,0.01304626,0.00384521,-0.99507141,0.122070,0.183105,-0.183105
5691270041,0.01304626,0.00384521,-0.99507141,0.000000,0.183105,-0.183105
5696335125,0.01358032,0.00335693,-0.99617004,0.000000,0.183105,-0.183105
5701407958,0.01358032,0.00335693,-0.99617004,0.000000,0.244141,-0.061035
5706482625,0.01306152,0.00361633,-0.99481201,0.000000,0.244141,-0.061035
5709024541,0.01306152,0.00361633,-0.99481201,0.061035,0.244141,-0.122070
5714088000,0.01342773,0.00431824,-0.99444580,0.061035,0.244141,-0.122070
5719144833,0.01342773,0.00431824,-0.99444580,0.000000,0.244141,-0.061035
5724235458,0.01293945,0.00410461,-0.99453735,0.000000,0.244141,-0.061035
5729293750,0.01293945,0.00410461,-0.99453735,0.061035,0.183105,0.000000
5734349208,0.01353455,0.00337219,-0.99586487,0.061035,0.183105,0.000000
5739411916,0.01353455,0.00337219,-0.99586487,0.061035,0.183105,-0.061035
5744475583,0.01387024,0.00340271,-0.99517822,0.061035,0.183105,-0.061035
5749557916,0.01387024,0.00340271,-0.99517822,0.122070,0.244141,0.000000
5754621083,0.01275635,0.00395203,-0.99377441,0.122070,0.244141,0.000000
5759681583,0.01275635,0.00395203,-0.99377441,0.000000,0.122070,-0.122070
5764736791,0.01358032,0.00363159,-0.99497986,0.000000,0.122070,-0.122070
5769794458,0.01358032,0.00363159,-0.99497986,0.061035,0.305176,-0.061035
5774853416,0.01388550,0.00405884,-0.99514771,0.061035,0.305176,-0.061035
5779908208,0.01388550,0.00405884,-0.99514771,-0.122070,0.183105,-0.122070
5784966458,0.01416016,0.00343323,-0.99517822,-0.122070,0.183105,-0.122070
5790037791,0.01416016,0.00343323,-0.99517822,0.183105,0.244141,0.000000
5795096833,0.01354980,0.00259399,-0.99549866,0.183105,0.244141,0.000000
5800178958,0.01354980,0.00259399,-0.99549866,0.000000,0.122070,-0.122070
5805255500,0.01329041,0.00308228,-0.99517822,0.000000,0.122070,-0.122070
5810328166,0.01329041,0.00308228,-0.99517822,0.244141,0.244141,-0.061035
5815387791,0.01324463,0.00343323,-0.99353027,0.244141,0.244141,-0.061035
5820445625,0.01324463,0.00343323,-0.99353027,0.122070,0.122070,-0.183105
5825516750,0.01393127,0.00390625,-0.99389648,0.122070,0.122070,-0.183105
5830576041,0.01393127,0.00390625,-0.99389648,0.061035,0.061035,-0.122070
5835633166,0.01364136,0.00323486,-0.99339294,0.061035,0.061035,-0.122070
5840704666,0.01364136,0.00323486,-0.99339294,0.061035,-0.122070,-0.061035
5845274375,0.01327515,0.00521851,-0.99832153,0.061035,-0.122070,-0.061035
5850358083,0.01327515,0.00521851,-0.99832153,-0.366211,0.427246,-0.122070
5855428000,0.01411438,0.00708008,-0.98860168,-0.366211,0.427246,-0.122070
5860047791,0.01411438,0.00708008,-0.98860168,0.244141,0.122070,-0.061035
5865124916,0.01390076,0.00633240,-1.00323486,0.244141,0.122070,-0.061035
5870204166,0.01390076,0.00633240,-1.00323486,0.000000,0.244141,-0.061035
5875280458,0.01258850,0.00479126,-0.98738098,0.000000,0.244141,-0.061035
5880392583,0.01258850,0.00479126,-0.98738098,0.244141,0.183105,-0.122070
5885433708,0.01292419,0.00318909,-1.00022888,0.244141,0.183105,-0.122070
5890502166,0.01292419,0.00318909,-1.00022888,0.061035,0.305176,-0.122070
5895580000,0.01332092,0.00157166,-0.99298096,0.061035,0.305176,-0.122070
5900640208,0.01332092,0.00157166,-0.99298096,0.061035,0.244141,-0.122070
5905634875,0.01196289,0.00167847,-0.99766541,0.061035,0.244141,-0.122070
5910695666,0.01196289,0.00167847,-0.99766541,0.061035,0.244141,-0.061035
5915752500,0.01242065,0.00119019,-0.99368286,0.061035,0.244141,-0.061035
5920809583,0.01242065,0.00119019,-0.99368286,0.122070,0.549316,-0.122070
5925885166,0.01351929,0.00204468,-0.99311829,0.122070,0.549316,-0.122070
5930949166,0.01351929,0.00204468,-0.99311829,0.183105,0.122070,-0.122070
5936011875,0.01361084,0.00257874,-0.99917603,0.183105,0.122070,-0.122070
5941097541,0.01361084,0.00257874,-0.99917603,-0.061035,0.244141,-0.122070
5946171250,0.01345825,0.00340271,-0.99281311,-0.061035,0.244141,-0.122070
5950914333,0.01345825,0.00340271,-0.99281311,0.000000,0.183105,-0.122070
5955991583,0.01383972,0.00418091,-0.99571228,0.000000,0.183105,-0.122070
5961054500,0.01383972,0.00418091,-0.99571228,0.000000,0.122070,-0.061035
5966123875,0.01499939,0.00384521,-0.99359131,0.000000,0.122070,-0.061035
5971191333,0.01499939,0.00384521,-0.99359131,0.000000,0.244141,-0.183105
5976251458,0.01354980,0.00378418,-0.99711609,0.000000,0.244141,-0.183105
5981310458,0.01354980,0.00378418,-0.99711609,0.000000,0.122070,-0.061035
5986377166,0.01226807,0.00437927,-0.99452209,0.000000,0.122070,-0.061035
5991006416,0.01226807,0.00437927,-0.99452209,0.061035,0.244141,-0.183105
5996087708,0.01300049,0.00509644,-0.99566650,0.061035,0.244141,-0.183105
6001144916,0.01300049,0.00509644,-0.99566650,-0.061035,0.183105,-0.183105
6006207166,0.01325989,0.00450134,-0.99552917,-0.061035,0.183105,-0.183105
6011277166,0.01325989,0.00450134,-0.99552917,0.183105,0.244141,-0.122070
6016335500,0.01338196,0.00543213,-0.99572754,0.183105,0.244141,-0.122070
6021393666,0.01338196,0.00543213,-0.99572754,0.244141,0.244141,-0.061035
6026450625,0.01350403,0.00459290,-0.99499512,0.244141,0.244141,-0.061035
6031537041,0.01350403,0.00459290,-0.99499512,0.122070,0.183105,-0.061035
6036616041,0.01467896,0.00398254,-0.99360657,0.122070,0.183105,-0.061035
6041673375,0.01467896,0.00398254,-0.99360657,0.061035,0.244141,-0.122070
6046739916,0.01373291,0.00358582,-0.99436951,0.061035,0.244141,-0.122070
6051798250,0.01373291,0.00358582,-0.99436951,0.183105,0.183105,-0.061035
6056852958,0.01281738,0.00245667,-0.99687195,0.183105,0.183105,-0.061035
6061910166,0.01281738,0.00245667,-0.99687195,-0.122070,0.244141,-0.183105
6066968583,0.01268005,0.00205994,-0.99586487,-0.122070,0.244141,-0.183105
6072038666,0.01268005,0.00205994,-0.99586487,-0.122070,0.183105,-0.061035
6077155791,0.01296997,0.00189209,-0.99600220,-0.122070,0.183105,-0.061035
6082223250,0.01296997,0.00189209,-0.99600220,0.000000,0.183105,-0.122070
6087285500,0.01344299,0.00163269,-0.99450684,0.000000,0.183105,-0.122070
6092346208,0.01344299,0.00163269,-0.99450684,0.122070,0.122070,-0.061035
6097404375,0.01304626,0.00273132,-0.99400330,0.122070,0.122070,-0.061035
6099957708,0.01304626,0.00273132,-0.99400330,0.000000,0.244141,-0.061035
6105027875,0.01417542,0.00427246,-0.99493408,0.000000,0.244141,-0.061035
6110113000,0.01417542,0.00427246,-0.99493408,0.122070,0.122070,-0.061035
6115190875,0.01507568,0.00546265,-0.99476624,0.122070,0.122070,-0.061035
6120252458,0.01507568,0.00546265,-0.99476624,0.061035,0.244141,-0.061035
6125310791,0.01473999,0.00535583,-0.99533081,0.061035,0.244141,-0.061035
6130371000,0.01473999,0.00535583,-0.99533081,0.061035,0.122070,-0.183105
6135428583,0.01362610,0.00535583,-0.99580383,0.061035,0.122070,-0.183105
6140508041,0.01362610,0.00535583,-0.99580383,0.061035,0.183105,-0.061035
6145630333,0.01347351,0.00517273,-0.99705505,0.061035,0.183105,-0.061035
6150694166,0.01347351,0.00517273,-0.99705505,0.000000,0.244141,-0.061035
6155756041,0.01358032,0.00486755,-0.99427795,0.000000,0.244141,-0.061035
6160815000,0.01358032,0.00486755,-0.99427795,0.122070,0.244141,-0.061035
6165878625,0.01332092,0.00328064,-0.99623108,0.122070,0.244141,-0.061035
6170958083,0.01332092,0.00328064,-0.99623108,0.061035,0.305176,-0.122070
6176036375,0.01333618,0.00234985,-0.99519348,0.061035,0.305176,-0.122070
6181109541,0.01333618,0.00234985,-0.99519348,0.000000,0.183105,-0.183105
6186173250,0.01364136,0.00190735,-0.99566650,0.000000,0.183105,-0.183105
6191232583,0.01364136,0.00190735,-0.99566650,0.122070,0.183105,0.061035
6196304666,0.01333618,0.00117493,-0.99559021,0.122070,0.183105,0.061035
6201387666,0.01333618,0.00117493,-0.99559021,0.061035,0.244141,-0.122070
6206478291,0.01278687,0.00195312,-0.99606323,0.061035,0.244141,-0.122070
6211554041,0.01278687,0.00195312,-0.99606323,0.122070,0.244141,-0.183105
6216614916,0.01394653,0.00338745,-0.99632263,0.122070,0.244141,-0.183105
6221702000,0.01394653,0.00338745,-0.99632263,0.122070,0.183105,-0.061035
6226774708,0.01408386,0.00294495,-0.99418640,0.122070,0.183105,-0.061035
6231854416,0.01408386,0.00294495,-0.99418640,0.000000,0.183105,-0.061035
6236941541,0.01361084,0.00444031,-0.99404907,0.000000,0.183105,-0.061035
6242009041,0.01361084,0.00444031,-0.99404907,-0.061035,0.183105,0.000000
6247085458,0.01310730,0.00448608,-0.99432373,-0.061035,0.183105,0.000000
6252152000,0.01310730,0.00448608,-0.99432373,0.183105,0.183105,-0.244141
6257213583,0.01269531,0.00460815,-0.99485779,0.183105,0.183105,-0.244141
6262272125,0.01269531,0.00460815,-0.99485779,0.122070,0.183105,-0.122070
6267346125,0.01284790,0.00454712,-0.99491882,0.122070,0.183105,-0.122070
6272403333,0.01284790,0.00454712,-0.99491882,0.061035,0.183105,0.000000
6277510666,0.01341248,0.00413513,-0.99601746,0.061035,0.183105,0.000000
6282613125,0.01341248,0.00413513,-0.99601746,0.061035,0.122070,-0.183105
6285153625,0.01373291,0.00372314,-0.99630737,0.061035,0.122070,-0.183105
6290210500,0.01373291,0.00372314,-0.99630737,0.061035,0.244141,-0.183105
6295269666,0.01412964,0.00479126,-0.99533081,0.061035,0.244141,-0.183105
6300376208,0.01412964,0.00479126,-0.99533081,0.000000,0.183105,-0.122070
6305524375,0.01408386,0.00399780,-0.99388123,0.000000,0.183105,-0.122070
6310657166,0.01408386,0.00399780,-0.99388123,0.122070,0.366211,-0.061035
6315790083,0.01309204,0.00315857,-0.99446106,0.122070,0.366211,-0.061035
6320920833,0.01309204,0.00315857,-0.99446106,0.000000,0.122070,-0.061035
6326030916,0.01316833,0.00265503,-0.99485779,0.000000,0.122070,-0.061035
6331130250,0.01316833,0.00265503,-0.99485779,0.000000,0.244141,-0.061035
6336207250,0.01301575,0.00302124,-0.99440002,0.000000,0.244141,-0.061035
6341299083,0.01301575,0.00302124,-0.99440002,0.061035,0.305176,-0.122070
6346393250,0.01263428,0.00271606,-0.99516296,0.061035,0.305176,-0.122070
6351504416,0.01263428,0.00271606,-0.99516296,0.122070,0.122070,-0.122070
6356590416,0.01284790,0.00294495,-0.99501038,0.122070,0.122070,-0.122070
6361682458,0.01284790,0.00294495,-0.99501038,0.061035,0.305176,-0.183105
6366768541,0.01258850,0.00331116,-0.99522400,0.061035,0.305176,-0.183105
6371858958,0.01258850,0.00331116,-0.99522400,0.122070,0.183105,-0.122070
6376945583,0.01286316,0.00263977,-0.99581909,0.122070,0.183105,-0.122070
6382024708,0.01286316,0.00263977,-0.99581909,0.000000,0.305176,-0.122070
6387109750,0.01388550,0.00372314,-0.99493408,0.000000,0.305176,-0.122070
6392192208,0.01388550,0.00372314,-0.99493408,0.122070,0.183105,-0.122070
6397273958,0.01373291,0.00382996,-0.99424744,0.122070,0.183105,-0.122070
6402353541,0.01373291,0.00382996,-0.99424744,0.122070,0.061035,-0.183105
6407449416,0.01443481,0.00357056,-0.99502563,0.122070,0.061035,-0.183105
6412561666,0.01443481,0.00357056,-0.99502563,0.061035,0.061035,-0.061035
6417655375,0.01484680,0.00364685,-0.99429321,0.061035,0.061035,-0.061035
6422733541,0.01484680,0.00364685,-0.99429321,0.183105,0.183105,-0.183105
6427800041,0.01330566,0.00500488,-0.99342346,0.183105,0.183105,-0.183105
6432904500,0.01330566,0.00500488,-0.99342346,-0.183105,0.366211,-0.061035
6435466583,0.01362610,0.00521851,-0.99571228,-0.183105,0.366211,-0.061035
6440551041,0.01362610,0.00521851,-0.99571228,0.793457,0.000000,-0.183105
6445622583,0.01397705,0.00514221,-0.99812317,0.793457,0.000000,-0.183105
6453252666,0.01397705,0.00514221,-0.99812317,-0.244141,0.061035,-0.183105
6458125375,0.01234436,0.00537109,-0.98890686,-0.244141,0.061035,-0.183105
6463225625,0.01234436,0.00537109,-0.98890686,-0.122070,0.305176,-0.061035
6468309875,0.01246643,0.00512695,-1.00207520,-0.122070,0.305176,-0.061035
6473414958,0.01246643,0.00512695,-1.00207520,0.061035,0.305176,-0.122070
6475974458,0.01313782,0.00382996,-0.99195862,0.061035,0.305176,-0.122070
6481078041,0.01313782,0.00382996,-0.99195862,0.122070,0.305176,-0.122070
6486151083,0.01258850,0.00184631,-0.99676514,0.122070,0.305176,-0.122070
6491219000,0.01258850,0.00184631,-0.99676514,0.061035,0.244141,-0.244141
6496277291,0.01254272,0.00038147,-0.99551392,0.061035,0.244141,-0.244141
6501353583,0.01254272,0.00038147,-0.99551392,-0.122070,0.122070,-0.061035
6506439583,0.01396179,0.00148010,-0.99447632,-0.122070,0.122070,-0.061035
6511366583,0.01396179,0.00148010,-0.99447632,0.000000,0.122070,-0.183105
6516430791,0.01397705,0.00251770,-0.99630737,0.000000,0.122070,-0.183105
6521499958,0.01397705,0.00251770,-0.99630737,0.061035,0.549316,-0.122070
6526577500,0.01452637,0.00340271,-0.99215698,0.061035,0.549316,-0.122070
6531650208,0.01452637,0.00340271,-0.99215698,0.061035,0.122070,-0.122070
6536717375,0.01371765,0.00375366,-0.99780273,0.061035,0.122070,-0.122070
6541787708,0.01371765,0.00375366,-0.99780273,-0.122070,0.183105,-0.061035
6546863250,0.01379395,0.00491333,-0.99174500,-0.122070,0.183105,-0.061035
6551947916,0.01379395,0.00491333,-0.99174500,0.061035,0.305176,-0.183105
6557009333,0.01371765,0.00576782,-0.99374390,0.061035,0.305176,-0.183105
6562068083,0.01371765,0.00576782,-0.99374390,0.000000,0.183105,-0.122070
6567143583,0.01391602,0.00456238,-0.99391174,0.000000,0.183105,-0.122070
6572203583,0.01391602,0.00456238,-0.99391174,0.000000,0.061035,-0.122070
6577259916,0.01252747,0.00430298,-0.99626160,0.000000,0.061035,-0.122070
6582316500,0.01252747,0.00430298,-0.99626160,0.061035,0.244141,-0.061035
6587387500,0.01252747,0.00439453,-0.99270630,0.061035,0.244141,-0.061035
6592474250,0.01252747,0.00439453,-0.99270630,0.183105,0.244141,-0.122070
6597575708,0.01228333,0.00405884,-0.99478149,0.183105,0.244141,-0.122070
6602642250,0.01228333,0.00405884,-0.99478149,0.122070,0.366211,-0.061035
6607724708,0.01222229,0.00447083,-0.99572754,0.122070,0.366211,-0.061035
6612800083,0.01222229,0.00447083,-0.99572754,-0.061035,0.244141,-0.061035
6617861000,0.01350403,0.00399780,-0.99414062,-0.061035,0.244141,-0.061035
6622918666,0.01350403,0.00399780,-0.99414062,0.122070,0.183105,-0.061035
6627976000,0.01443481,0.00230408,-0.99420166,0.122070,0.183105,-0.061035
6633031583,0.01443481,0.00230408,-0.99420166,0.000000,0.183105,-0.122070
6638087583,0.01359558,0.00216675,-0.99584961,0.000000,0.183105,-0.122070
6643159333,0.01359558,0.00216675,-0.99584961,0.061035,0.061035,-0.122070
6648222000,0.01309204,0.00337219,-0.99652100,0.061035,0.061035,-0.122070
6653344291,0.01309204,0.00337219,-0.99652100,0.183105,0.183105,-0.183105
6658432791,0.01342773,0.00318909,-0.99430847,0.183105,0.183105,-0.183105
6661011333,0.01342773,0.00318909,-0.99430847,-0.122070,0.122070,0.000000
6666081333,0.01260376,0.00273132,-0.99497986,-0.122070,0.122070,0.000000
6671138125,0.01260376,0.00273132,-0.99497986,0.000000,0.061035,-0.244141
6676195458,0.01348877,0.00355530,-0.99526978,0.000000,0.061035,-0.244141
6681260708,0.01348877,0.00355530,-0.99526978,0.061035,0.244141,-0.061035
6686317208,0.01318359,0.00489807,-0.99388123,0.061035,0.244141,-0.061035
6691374333,0.01318359,0.00489807,-0.99388123,0.061035,0.244141,-0.183105
6696437791,0.01365662,0.00465393,-0.99411011,0.061035,0.244141,-0.183105
6701515208,0.01365662,0.00465393,-0.99411011,0.122070,0.122070,-0.183105
6706580791,0.01458740,0.00445557,-0.99429321,0.122070,0.122070,-0.183105
6711221750,0.01458740,0.00445557,-0.99429321,0.122070,0.244141,0.000000
6716296583,0.01481628,0.00444031,-0.99363708,0.122070,0.244141,0.000000
6721358416,0.01481628,0.00444031,-0.99363708,0.183105,0.366211,-0.061035
6726419708,0.01411438,0.00381470,-0.99516296,0.183105,0.366211,-0.061035
6731488791,0.01411438,0.00381470,-0.99516296,0.122070,0.366211,-0.061035
6736545166,0.01268005,0.00402832,-0.99461365,0.122070,0.366211,-0.061035
6741614333,0.01268005,0.00402832,-0.99461365,0.061035,0.183105,0.061035
6746674833,0.01335144,0.00309753,-0.99418640,0.061035,0.183105,0.061035
6751733333,0.01335144,0.00309753,-0.99418640,0.061035,0.122070,-0.183105
6756790333,0.01324463,0.00215149,-0.99438477,0.061035,0.122070,-0.183105
6761848166,0.01324463,0.00215149,-0.99438477,0.183105,0.305176,-0.061035
6766905208,0.01296997,0.00100708,-0.99571228,0.183105,0.305176,-0.061035
6771962458,0.01296997,0.00100708,-0.99571228,0.061035,0.183105,-0.183105
6777074208,0.01324463,0.00152588,-0.99418640,0.061035,0.183105,-0.183105
6782143583,0.01324463,0.00152588,-0.99418640,-0.122070,0.244141,-0.122070
6787203916,0.01272583,0.00251770,-0.99481201,-0.122070,0.244141,-0.122070
6792317041,0.01272583,0.00251770,-0.99481201,-0.061035,0.366211,-0.061035
6797374166,0.01293945,0.00357056,-0.99525452,-0.061035,0.366211,-0.061035
6802429500,0.01293945,0.00357056,-0.99525452,0.183105,0.122070,-0.183105
6807511458,0.01368713,0.00364685,-0.99546814,0.183105,0.122070,-0.183105
6812591750,0.01368713,0.00364685,-0.99546814,0.122070,0.366211,-0.122070
6817634625,0.01327515,0.00415039,-0.99458313,0.122070,0.366211,-0.122070
6822704583,0.01327515,0.00415039,-0.99458313,0.122070,0.061035,-0.061035
6827769750,0.01377869,0.00479126,-0.99472046,0.122070,0.061035,-0.061035
6832842958,0.01377869,0.00479126,-0.99472046,0.061035,0.122070,0.000000
6837909875,0.01329041,0.00546265,-0.99458313,0.061035,0.122070,0.000000
6842975625,0.01329041,0.00546265,-0.99458313,0.061035,0.244141,-0.183105
6847649791,0.01319885,0.00450134,-0.99499512,0.061035,0.244141,-0.183105
6852713208,0.01319885,0.00450134,-0.99499512,0.122070,0.183105,0.000000
6857784541,0.01293945,0.00498962,-0.99443054,0.122070,0.183105,0.000000
6862845958,0.01293945,0.00498962,-0.99443054,0.061035,0.244141,-0.061035
6867916500,0.01300049,0.00404358,-0.99511719,0.061035,0.244141,-0.061035
6872984916,0.01300049,0.00404358,-0.99511719,-0.061035,0.183105,-0.122070
6878056250,0.01268005,0.00416565,-0.99533081,-0.061035,0.183105,-0.122070
6883123916,0.01268005,0.00416565,-0.99533081,0.122070,0.305176,-0.122070
6888189916,0.01356506,0.00384521,-0.99420166,0.122070,0.305176,-0.122070
6893252375,0.01356506,0.00384521,-0.99420166,0.122070,0.244141,-0.061035
6898309208,0.01388550,0.00161743,-0.99557495,0.122070,0.244141,-0.061035
6903378375,0.01388550,0.00161743,-0.99557495,0.061035,0.244141,-0.061035
6908436500,0.01283264,0.00218201,-0.99472046,0.061035,0.244141,-0.061035
6913508250,0.01283264,0.00218201,-0.99472046,0.000000,0.183105,-0.122070
6918567708,0.01391602,0.00257874,-0.99430847,0.000000,0.183105,-0.122070
6923633250,0.01391602,0.00257874,-0.99430847,0.000000,0.244141,0.000000
6928693375,0.01489258,0.00299072,-0.99504089,0.000000,0.244141,0.000000
6933752208,0.01489258,0.00299072,-0.99504089,-0.122070,0.183105,-0.122070
6938828166,0.01351929,0.00331116,-0.99494934,-0.122070,0.183105,-0.122070
6943886500,0.01351929,0.00331116,-0.99494934,0.244141,0.183105,-0.061035
6948955000,0.01313782,0.00357056,-0.99389648,0.244141,0.183105,-0.061035
6953979083,0.01313782,0.00357056,-0.99389648,0.061035,0.244141,0.061035
6959066708,0.01284790,0.00363159,-0.99502563,0.061035,0.244141,0.061035
6964129958,0.01284790,0.00363159,-0.99502563,0.000000,0.244141,-0.183105
6969187291,0.01368713,0.00477600,-0.99467468,0.000000,0.244141,-0.183105
6974272208,0.01368713,0.00477600,-0.99467468,0.183105,0.183105,-0.061035
6979337250,0.01406860,0.00415039,-0.99481201,0.183105,0.183105,-0.061035
6984408291,0.01406860,0.00415039,-0.99481201,0.122070,0.244141,0.000000
6989487041,0.01344299,0.00437927,-0.99545288,0.122070,0.244141,0.000000
6992039708,0.01344299,0.00437927,-0.99545288,-0.061035,0.183105,-0.122070
6997111875,0.01293945,0.00437927,-0.99472046,-0.061035,0.183105,-0.122070
7002172666,0.01293945,0.00437927,-0.99472046,0.122070,0.122070,-0.183105
7007243250,0.01443481,0.00321960,-0.99461365,0.122070,0.122070,-0.183105
7012303041,0.01443481,0.00321960,-0.99461365,0.244141,0.000000,0.061035
7017358541,0.01359558,0.00361633,-0.99470520,0.244141,0.000000,0.061035
7022419958,0.01359558,0.00361633,-0.99470520,0.183105,-0.061035,-0.061035
7027482416,0.01388550,0.00325012,-0.99264526,0.183105,-0.061035,-0.061035
7032560583,0.01388550,0.00325012,-0.99264526,-0.366211,0.488281,-0.183105
7037634416,0.01319885,0.00253296,-0.99530029,-0.366211,0.488281,-0.183105
7042695500,0.01319885,0.00253296,-0.99530029,0.793457,0.061035,0.000000
7047761000,0.01268005,0.00372314,-0.99638367,0.793457,0.061035,0.000000
7052830125,0.01268005,0.00372314,-0.99638367,-0.122070,0.061035,-0.122070
7057891375,0.01396179,0.00488281,-0.99066162,-0.122070,0.061035,-0.122070
7062960666,0.01396179,0.00488281,-0.99066162,0.061035,0.122070,-0.244141
7067913750,0.01419067,0.00457764,-1.00173950,0.061035,0.122070,-0.244141
7072542458,0.01419067,0.00457764,-1.00173950,0.061035,0.244141,-0.122070
7077610291,0.01364136,0.00379944,-0.99327087,0.061035,0.244141,-0.122070
7082675541,0.01364136,0.00379944,-0.99327087,0.122070,0.244141,-0.183105
7087748208,0.01237488,0.00294495,-0.99809265,0.122070,0.244141,-0.183105
7092806083,0.01237488,0.00294495,-0.99809265,0.122070,0.183105,-0.122070
7097865375,0.01306152,0.00286865,-0.99591064,0.122070,0.183105,-0.122070
7102925250,0.01306152,0.00286865,-0.99591064,-0.122070,0.244141,-0.244141
7107943541,0.01385498,0.00259399,-0.99565125,-0.122070,0.244141,-0.244141
7113007041,0.01385498,0.00259399,-0.99565125,-0.061035,0.244141,-0.183105
7118068500,0.01284790,0.00299072,-0.99540710,-0.061035,0.244141,-0.183105
7123154500,0.01284790,0.00299072,-0.99540710,0.061035,0.244141,-0.122070
7128241458,0.01383972,0.00346375,-0.99397278,0.061035,0.244141,-0.122070
7133166416,0.01383972,0.00346375,-0.99397278,0.305176,0.183105,-0.061035
7138236666,0.01463318,0.00358582,-0.99435425,0.305176,0.183105,-0.061035
7143316458,0.01463318,0.00358582,-0.99435425,-0.244141,0.122070,-0.122070
7148387166,0.01348877,0.00370789,-0.99668884,-0.244141,0.122070,-0.122070
7153457500,0.01348877,0.00370789,-0.99668884,-0.061035,0.244141,-0.061035
7158514750,0.01356506,0.00352478,-0.99606323,-0.061035,0.244141,-0.061035
7163576958,0.01356506,0.00352478,-0.99606323,0.122070,0.305176,-0.122070
7168661916,0.01295471,0.00190735,-0.99203491,0.122070,0.305176,-0.122070
7173738833,0.01295471,0.00190735,-0.99203491,0.122070,0.183105,-0.122070
7178802541,0.01237488,0.00245667,-0.99505615,0.122070,0.183105,-0.122070
7183769208,0.01237488,0.00245667,-0.99505615,0.183105,0.244141,-0.122070
7188864166,0.01284790,0.00236511,-0.99490356,0.183105,0.244141,-0.122070
7193933416,0.01284790,0.00236511,-0.99490356,0.061035,0.244141,-0.061035
7198995125,0.01248169,0.00285339,-0.99606323,0.061035,0.244141,-0.061035
7204054083,0.01248169,0.00285339,-0.99606323,0.244141,0.122070,-0.122070
7209123833,0.01255798,0.00387573,-0.99499512,0.244141,0.122070,-0.122070
7214198458,0.01255798,0.00387573,-0.99499512,0.122070,0.183105,0.000000
7219259125,0.01296997,0.00585938,-0.99328613,0.122070,0.183105,0.000000
7224320666,0.01296997,0.00585938,-0.99328613,0.183105,0.244141,-0.061035
7229378875,0.01408386,0.00550842,-0.99468994,0.183105,0.244141,-0.061035
7234433750,0.01408386,0.00550842,-0.99468994,0.061035,0.122070,-0.122070
7239492333,0.01335144,0.00543213,-0.99533081,0.061035,0.122070,-0.122070
7244550375,0.01335144,0.00543213,-0.99533081,0.061035,0.244141,-0.122070
7249620833,0.01292419,0.00619507,-0.99572754,0.061035,0.244141,-0.122070
7254679458,0.01292419,0.00619507,-0.99572754,0.061035,0.183105,-0.061035
7259733625,0.01277161,0.00541687,-0.99394226,0.061035,0.183105,-0.061035
7262320583,0.01277161,0.00541687,-0.99394226,0.061035,0.122070,0.000000
7267384666,0.01425171,0.00401306,-0.99372864,0.061035,0.122070,0.000000
7272452250,0.01425171,0.00401306,-0.99372864,-0.061035,0.244141,-0.183105
7277522958,0.01367188,0.00277710,-0.99623108,-0.061035,0.244141,-0.183105
7282579208,0.01367188,0.00277710,-0.99623108,0.061035,0.183105,-0.061035
7287664916,0.01396179,0.00265503,-0.99482727,0.061035,0.183105,-0.061035
7292730583,0.01396179,0.00265503,-0.99482727,0.000000,0.244141,-0.122070
7297813083,0.01322937,0.00305176,-0.99440002,0.000000,0.244141,-0.122070
7302883500,0.01322937,0.00305176,-0.99440002,0.061035,0.183105,-0.122070
7307735833,0.01347351,0.00321960,-0.99459839,0.061035,0.183105,-0.122070
7312800583,0.01347351,0.00321960,-0.99459839,0.000000,0.244141,-0.244141
7317866083,0.01324463,0.00302124,-0.99562073,0.000000,0.244141,-0.244141
7322925791,0.01324463,0.00302124,-0.99562073,0.061035,0.122070,0.000000
7327988375,0.01354980,0.00343323,-0.99511719,0.061035,0.122070,0.000000
7333051208,0.01354980,0.00343323,-0.99511719,0.183105,0.244141,-0.061035
7338118416,0.01332092,0.00331116,-0.99446106,0.183105,0.244141,-0.061035
7343245875,0.01332092,0.00331116,-0.99446106,0.000000,0.183105,-0.183105
7348320958,0.01193237,0.00300598,-0.99534607,0.000000,0.183105,-0.183105
7355436333,0.01193237,0.00300598,-0.99534607,0.000000,0.305176,-0.122070
7360502750,0.01268005,0.00263977,-0.99526978,0.000000,0.305176,-0.122070
7363040416,0.01268005,0.00263977,-0.99526978,0.000000,0.244141,-0.183105
7368105958,0.01292419,0.00312805,-0.99411011,0.000000,0.244141,-0.183105
7375437291,0.01292419,0.00312805,-0.99411011,0.122070,0.122070,-0.122070
7380518125,0.01419067,0.00329590,-0.99290466,0.122070,0.122070,-0.122070
7383055333,0.01419067,0.00329590,-0.99290466,0.000000,0.122070,-0.122070
7388118000,0.01377869,0.00459290,-0.99456787,0.000000,0.122070,-0.122070
7393176416,0.01377869,0.00459290,-0.99456787,0.000000,0.122070,-0.183105
7398239666,0.01341248,0.00447083,-0.99528503,0.000000,0.122070,-0.183105
7403345791,0.01341248,0.00447083,-0.99528503,0.061035,0.305176,-0.183105
7408410916,0.01342773,0.00436401,-0.99523926,0.061035,0.305176,-0.183105
7413496458,0.01342773,0.00436401,-0.99523926,0.000000,0.183105,-0.122070
7418560208,0.01309204,0.00444031,-0.99566650,0.000000,0.183105,-0.122070
7423619208,0.01309204,0.00444031,-0.99566650,0.122070,0.122070,-0.122070
7428735166,0.01403809,0.00422668,-0.99424744,0.122070,0.122070,-0.122070
7433793958,0.01403809,0.00422668,-0.99424744,0.000000,0.122070,-0.183105
7438964416,0.01374817,0.00422668,-0.99403381,0.000000,0.122070,-0.183105
7444026666,0.01374817,0.00422668,-0.99403381,0.000000,0.244141,-0.244141
7449090166,0.01370239,0.00350952,-0.99513245,0.000000,0.244141,-0.244141
7454151125,0.01370239,0.00350952,-0.99513245,0.061035,0.000000,-0.061035
7459208458,0.01252747,0.00312805,-0.99523926,0.061035,0.000000,-0.061035
7464262583,0.01252747,0.00312805,-0.99523926,-0.061035,0.305176,-0.183105
7469324208,0.01290894,0.00390625,-0.99479675,-0.061035,0.305176,-0.183105
7474396708,0.01290894,0.00390625,-0.99479675,0.122070,0.183105,-0.122070
7479462416,0.01330566,0.00346375,-0.99543762,0.122070,0.183105,-0.122070
7484521666,0.01330566,0.00346375,-0.99543762,0.000000,0.061035,-0.122070
7489587083,0.01377869,0.00299072,-0.99514771,0.000000,0.061035,-0.122070
7494646541,0.01377869,0.00299072,-0.99514771,0.000000,0.183105,-0.061035
7499367208,0.01261902,0.00372314,-0.99479675,0.000000,0.183105,-0.061035
7504439666,0.01261902,0.00372314,-0.99479675,0.061035,0.183105,-0.122070
7509498333,0.01325989,0.00421143,-0.99501038,0.061035,0.183105,-0.122070
7514565500,0.01325989,0.00421143,-0.99501038,0.061035,0.122070,-0.244141
7519622166,0.01321411,0.00340271,-0.99516296,0.061035,0.122070,-0.244141
7524678416,0.01321411,0.00340271,-0.99516296,0.061035,0.244141,-0.122070
7529735791,0.01322937,0.00299072,-0.99589539,0.061035,0.244141,-0.122070
7534792791,0.01322937,0.00299072,-0.99589539,0.000000,0.183105,-0.122070
7539850125,0.01435852,0.00364685,-0.99548340,0.000000,0.183105,-0.122070
7544929875,0.01435852,0.00364685,-0.99548340,0.000000,0.305176,-0.061035
7549991791,0.01348877,0.00389099,-0.99548340,0.000000,0.305176,-0.061035
7555047250,0.01348877,0.00389099,-0.99548340,0.183105,0.244141,-0.061035
7560055791,0.01255798,0.00338745,-0.99517822,0.183105,0.244141,-0.061035
7565123833,0.01255798,0.00338745,-0.99517822,0.000000,0.244141,-0.061035
7570197000,0.01370239,0.00405884,-0.99565125,0.000000,0.244141,-0.061035
7575253041,0.01370239,0.00405884,-0.99565125,0.122070,0.244141,-0.183105
7580312041,0.01472473,0.00395203,-0.99615479,0.122070,0.244141,-0.183105
7585376666,0.01472473,0.00395203,-0.99615479,0.000000,0.122070,-0.122070
7590438750,0.01422119,0.00386047,-0.99531555,0.000000,0.122070,-0.122070
7593026916,0.01422119,0.00386047,-0.99531555,0.244141,0.183105,-0.122070
7598091583,0.01274109,0.00379944,-0.99388123,0.244141,0.183105,-0.122070
7603155333,0.01274109,0.00379944,-0.99388123,0.183105,0.000000,-0.183105
7608217791,0.01246643,0.00419617,-0.99256897,0.183105,0.000000,-0.183105
7613274125,0.01246643,0.00419617,-0.99256897,0.183105,-0.305176,-0.122070
7618363250,0.01318359,0.00473022,-0.99815369,0.183105,-0.305176,-0.122070
7623422375,0.01318359,0.00473022,-0.99815369,-0.488281,0.549316,-0.122070
7628510375,0.01310730,0.00578308,-0.98970032,-0.488281,0.549316,-0.122070
7633572875,0.01310730,0.00578308,-0.98970032,0.488281,0.183105,0.000000
7638647375,0.01319885,0.00546265,-1.00556946,0.488281,0.183105,0.000000
7643709250,0.01319885,0.00546265,-1.00556946,0.061035,0.122070,-0.061035
7648775375,0.01406860,0.00430298,-0.98623657,0.061035,0.122070,-0.061035
7653834708,0.01406860,0.00430298,-0.98623657,0.305176,0.305176,-0.061035
7658891666,0.01387024,0.00286865,-1.00042725,0.305176,0.305176,-0.061035
7663948583,0.01387024,0.00286865,-1.00042725,-0.061035,0.305176,-0.183105
7669007791,0.01296997,0.00083923,-0.99217224,-0.061035,0.305176,-0.183105
7673693083,0.01296997,0.00083923,-0.99217224,0.122070,0.244141,-0.244141
7678754333,0.01306152,0.00080872,-0.99797058,0.122070,0.244141,-0.244141
7683814416,0.01306152,0.00080872,-0.99797058,0.000000,0.183105,0.000000
7688885958,0.01258850,0.00167847,-0.99433899,0.000000,0.183105,0.000000
7693944375,0.01258850,0.00167847,-0.99433899,0.061035,0.183105,-0.061035
7698523916,0.01356506,0.00326538,-0.99559021,0.061035,0.183105,-0.061035
7703620000,0.01356506,0.00326538,-0.99559021,0.122070,-0.061035,-0.183105
7708695000,0.01344299,0.00346375,-0.99511719,0.122070,-0.061035,-0.183105
7713777666,0.01344299,0.00346375,-0.99511719,-0.427246,0.244141,-0.061035
7718693291,0.01307678,0.00325012,-0.99331665,-0.427246,0.244141,-0.061035
7723760875,0.01307678,0.00325012,-0.99331665,0.122070,0.305176,-0.122070
7728821125,0.01310730,0.00398254,-1.00172424,0.122070,0.305176,-0.122070
7733900833,0.01310730,0.00398254,-1.00172424,0.000000,0.183105,-0.061035
7738967375,0.01185608,0.00390625,-0.98806763,0.000000,0.183105,-0.061035
7744027041,0.01185608,0.00390625,-0.98806763,0.000000,0.122070,-0.122070
7749099208,0.01332092,0.00411987,-0.99835205,0.000000,0.122070,-0.122070
7754176916,0.01332092,0.00411987,-0.99835205,0.000000,0.122070,-0.183105
7759237250,0.01258850,0.00354004,-0.99328613,0.000000,0.122070,-0.183105
7763966958,0.01258850,0.00354004,-0.99328613,0.061035,0.244141,-0.122070
7769037958,0.01356506,0.00364685,-0.99528503,0.061035,0.244141,-0.122070
7774103416,0.01356506,0.00364685,-0.99528503,0.122070,0.183105,-0.183105
7779168125,0.01390076,0.00364685,-0.99526978,0.122070,0.183105,-0.183105
7784228333,0.01390076,0.00364685,-0.99526978,0.000000,0.122070,0.000000
7789307041,0.01365662,0.00289917,-0.99546814,0.000000,0.122070,0.000000
7794369250,0.01365662,0.00289917,-0.99546814,0.061035,0.244141,-0.183105
7799428750,0.01336670,0.00372314,-0.99536133,0.061035,0.244141,-0.183105
7804487791,0.01336670,0.00372314,-0.99536133,0.000000,0.122070,-0.061035
7809545208,0.01377869,0.00286865,-0.99436951,0.000000,0.122070,-0.061035
7814601666,0.01377869,0.00286865,-0.99436951,0.061035,0.122070,-0.061035
7819661916,0.01370239,0.00346375,-0.99530029,0.061035,0.122070,-0.061035
7824719708,0.01370239,0.00346375,-0.99530029,0.244141,0.122070,0.000000
7829847875,0.01284790,0.00489807,-0.99510193,0.244141,0.122070,0.000000
7834806291,0.01284790,0.00489807,-0.99510193,0.000000,0.122070,-0.122070
7839875833,0.01289368,0.00439453,-0.99497986,0.000000,0.122070,-0.122070
7844477625,0.01289368,0.00439453,-0.99497986,0.061035,0.183105,-0.122070
7849553041,0.01266479,0.00407410,-0.99436951,0.061035,0.183105,-0.122070
7854620041,0.01266479,0.00407410,-0.99436951,0.061035,0.183105,-0.183105
7859692083,0.01310730,0.00450134,-0.99507141,0.061035,0.183105,-0.183105
7864764583,0.01310730,0.00450134,-0.99507141,0.183105,0.305176,-0.183105
7869832916,0.01387024,0.00416565,-0.99468994,0.183105,0.305176,-0.183105
7874912875,0.01387024,0.00416565,-0.99468994,0.061035,0.183105,-0.122070
7879976458,0.01419067,0.00386047,-0.99453735,0.061035,0.183105,-0.122070
7885049250,0.01419067,0.00386047,-0.99453735,0.000000,0.183105,-0.183105
7890108166,0.01341248,0.00405884,-0.99455261,0.000000,0.183105,-0.183105
7895183625,0.01341248,0.00405884,-0.99455261,0.061035,0.244141,-0.122070
7900266916,0.01408386,0.00305176,-0.99464417,0.061035,0.244141,-0.122070
7905326125,0.01408386,0.00305176,-0.99464417,0.000000,0.244141,-0.061035
7910384125,0.01371765,0.00286865,-0.99516296,0.000000,0.244141,-0.061035
7915442125,0.01371765,0.00286865,-0.99516296,0.183105,0.122070,-0.061035
7920515958,0.01385498,0.00343323,-0.99545288,0.183105,0.122070,-0.061035
7925572958,0.01385498,0.00343323,-0.99545288,-0.061035,0.244141,-0.061035
7930638666,0.01397705,0.00332642,-0.99444580,-0.061035,0.244141,-0.061035
7935712916,0.01397705,0.00332642,-0.99444580,0.061035,0.244141,-0.122070
7940770333,0.01269531,0.00329590,-0.99522400,0.061035,0.244141,-0.122070
7945828625,0.01269531,0.00329590,-0.99522400,0.061035,0.244141,-0.183105
7950883625,0.01235962,0.00366211,-0.99453735,0.061035,0.244141,-0.183105
7955937875,0.01235962,0.00366211,-0.99453735,0.122070,0.183105,-0.061035
7961016416,0.01303101,0.00277710,-0.99359131,0.122070,0.183105,-0.061035
7966075750,0.01303101,0.00277710,-0.99359131,0.122070,0.244141,-0.122070
7971141083,0.01322937,0.00325012,-0.99496460,0.122070,0.244141,-0.122070
7976198791,0.01322937,0.00325012,-0.99496460,0.061035,0.183105,-0.061035
7981254500,0.01451111,0.00291443,-0.99478149,0.061035,0.183105,-0.061035
7986334916,0.01451111,0.00291443,-0.99478149,0.000000,0.366211,-0.183105
7991431041,0.01347351,0.00296021,-0.99589539,0.000000,0.366211,-0.183105
7994006666,0.01347351,0.00296021,-0.99589539,0.000000,0.183105,-0.122070
7999064458,0.01422119,0.00384521,-0.99533081,0.000000,0.183105,-0.122070
8004124125,0.01422119,0.00384521,-0.99533081,0.000000,0.244141,-0.061035
8009180875,0.01504517,0.00384521,-0.99583435,0.000000,0.244141,-0.061035
8014254833,0.01504517,0.00384521,-0.99583435,0.122070,0.183105,-0.122070
8019316916,0.01359558,0.00457764,-0.99574280,0.122070,0.183105,-0.122070
8024379083,0.01359558,0.00457764,-0.99574280,0.000000,0.061035,-0.122070
8029483875,0.01402283,0.00463867,-0.99464417,0.000000,0.061035,-0.122070
8034569708,0.01402283,0.00463867,-0.99464417,-0.061035,0.244141,-0.244141
8039640833,0.01353455,0.00425720,-0.99488831,-0.061035,0.244141,-0.244141
8044701125,0.01353455,0.00425720,-0.99488831,-0.061035,0.244141,-0.061035
8049784875,0.01316833,0.00469971,-0.99487305,-0.061035,0.244141,-0.061035
8054847166,0.01316833,0.00469971,-0.99487305,0.183105,0.061035,-0.183105
8059921333,0.01287842,0.00527954,-0.99546814,0.183105,0.061035,-0.183105
8065157083,0.01287842,0.00527954,-0.99546814,0.000000,0.183105,0.000000
8070231125,0.01319885,0.00469971,-0.99432373,0.000000,0.183105,0.000000
8075291958,0.01319885,0.00469971,-0.99432373,0.122070,0.244141,0.061035
8080371541,0.01293945,0.00297546,-0.99494934,0.122070,0.244141,0.061035
8085463583,0.01293945,0.00297546,-0.99494934,-0.061035,0.183105,-0.122070
8090576375,0.01315308,0.00231934,-0.99496460,-0.061035,0.183105,-0.122070
8095635625,0.01315308,0.00231934,-0.99496460,0.061035,0.244141,-0.122070
8100704916,0.01316833,0.00279236,-0.99501038,0.061035,0.244141,-0.122070
8105764916,0.01316833,0.00279236,-0.99501038,0.061035,0.183105,-0.061035
8110823291,0.01316833,0.00238037,-0.99566650,0.061035,0.183105,-0.061035
8115881541,0.01316833,0.00238037,-0.99566650,0.000000,0.061035,-0.061035
8120950083,0.01342773,0.00296021,-0.99536133,0.000000,0.061035,-0.061035
8126019333,0.01342773,0.00296021,-0.99536133,0.061035,0.183105,-0.122070
8131082875,0.01335144,0.00346375,-0.99505615,0.061035,0.183105,-0.122070
8136142083,0.01335144,0.00346375,-0.99505615,0.122070,0.183105,-0.122070
8141198916,0.01312256,0.00306702,-0.99618530,0.122070,0.183105,-0.122070
8146267541,0.01312256,0.00306702,-0.99618530,0.000000,0.122070,-0.122070
8151343083,0.01361084,0.00378418,-0.99499512,0.000000,0.122070,-0.122070
8156412458,0.01361084,0.00378418,-0.99499512,-0.061035,0.122070,-0.122070
8161467500,0.01345825,0.00459290,-0.99551392,-0.061035,0.122070,-0.122070
8166530500,0.01345825,0.00459290,-0.99551392,0.122070,0.122070,-0.183105
8171605625,0.01341248,0.00468445,-0.99447632,0.122070,0.122070,-0.183105
8176662416,0.01341248,0.00468445,-0.99447632,0.122070,0.244141,-0.061035
8181743791,0.01396179,0.00494385,-0.99385071,0.122070,0.244141,-0.061035
8186814083,0.01396179,0.00494385,-0.99385071,-0.061035,0.183105,-0.061035
8191901416,0.01313782,0.00509644,-0.99494934,-0.061035,0.183105,-0.061035
8194448833,0.01313782,0.00509644,-0.99494934,0.122070,0.183105,-0.061035
8199521416,0.01257324,0.00375366,-0.99467468,0.122070,0.183105,-0.061035
8204588125,0.01257324,0.00375366,-0.99467468,0.305176,0.122070,-0.183105
8209644958,0.01414490,0.00410461,-0.99259949,0.305176,0.122070,-0.183105
8214716916,0.01414490,0.00410461,-0.99259949,-0.061035,-0.183105,-0.122070
8219783833,0.01394653,0.00427246,-0.99403381,-0.061035,-0.183105,-0.122070
