timestamp_ns,accel_x,accel_y,accel_z,gyro_x,gyro_y,gyro_z
90261625,0.01422119,0.00869751,-0.99064636,0.000000,0.000000,0.000000
99062625,0.01422119,0.00869751,-0.99064636,0.305176,0.244141,-0.061035
105180458,0.01327515,0.00720215,-0.99710083,0.305176,0.244141,-0.061035
108614166,0.01327515,0.00720215,-0.99710083,0.183105,0.061035,-0.183105
111406583,0.01350403,0.00613403,-0.99061584,0.183105,0.061035,-0.183105
114104541,0.01350403,0.00613403,-0.99061584,0.183105,0.122070,-0.061035
119744541,0.01441956,0.00427246,-0.99661255,0.183105,0.122070,-0.061035
125222041,0.01441956,0.00427246,-0.99661255,0.305176,0.183105,-0.244141
128232583,0.01483154,0.00205994,-0.99157715,0.305176,0.183105,-0.244141
138643458,0.01373291,0.00193787,-0.99320984,0.244141,0.305176,-0.183105
143666791,0.01373291,0.00193787,-0.99320984,0.122070,0.061035,-0.183105
148687000,0.01466370,0.00112915,-0.99568176,0.122070,0.061035,-0.183105
153705041,0.01466370,0.00112915,-0.99568176,0.061035,0.000000,-0.122070
158724000,0.01452637,0.00141907,-0.99166870,0.061035,0.000000,-0.122070
163746625,0.01452637,0.00141907,-0.99166870,0.244141,0.061035,-0.122070
168764666,0.01394653,0.00157166,-0.99382019,0.244141,0.061035,-0.122070
173788750,0.01394653,0.00157166,-0.99382019,0.061035,0.244141,-0.122070
178814916,0.01269531,0.00456238,-0.99356079,0.061035,0.244141,-0.122070
183836583,0.01269531,0.00456238,-0.99356079,0.122070,0.183105,-0.061035
188898208,0.01251221,0.00630188,-0.99566650,0.122070,0.183105,-0.061035
193964833,0.01251221,0.00630188,-0.99566650,0.305176,0.122070,-0.122070
199029166,0.01272583,0.00746155,-0.99186707,0.305176,0.122070,-0.122070
204072375,0.01272583,0.00746155,-0.99186707,0.061035,0.122070,-0.061035
209161708,0.01249695,0.00793457,-0.99357605,0.061035,0.122070,-0.061035
214212291,0.01249695,0.00793457,-0.99357605,0.122070,0.244141,-0.061035
219286333,0.01354980,0.00859070,-0.99372864,0.122070,0.244141,-0.061035
224362791,0.01354980,0.00859070,-0.99372864,0.183105,0.183105,-0.122070
229418000,0.01342773,0.00843811,-0.99328613,0.183105,0.183105,-0.122070
234484791,0.01342773,0.00843811,-0.99328613,0.183105,0.122070,-0.061035
239548750,0.01351929,0.00561523,-0.99397278,0.183105,0.122070,-0.061035
244592166,0.01351929,0.00561523,-0.99397278,0.122070,0.305176,-0.122070
249633125,0.01373291,0.00390625,-0.99438477,0.122070,0.305176,-0.122070
254699250,0.01373291,0.00390625,-0.99438477,0.244141,0.183105,0.000000
259749958,0.01522827,0.00300598,-0.99467468,0.244141,0.183105,0.000000
264773291,0.01522827,0.00300598,-0.99467468,0.122070,0.244141,0.000000
269815208,0.01460266,0.00181580,-0.99279785,0.122070,0.244141,0.000000
274861791,0.01460266,0.00181580,-0.99279785,0.183105,0.305176,-0.061035
277376250,0.01275635,0.00086975,-0.99320984,0.183105,0.305176,-0.061035
284911250,0.01275635,0.00086975,-0.99320984,0.183105,0.244141,-0.183105
287426166,0.01306152,0.00199890,-0.99378967,0.183105,0.244141,-0.183105
294962916,0.01306152,0.00199890,-0.99378967,0.244141,0.305176,-0.183105
297478458,0.01348877,0.00251770,-0.99433899,0.244141,0.305176,-0.183105
305015083,0.01348877,0.00251770,-0.99433899,0.183105,0.183105,-0.122070
307529958,0.01293945,0.00253296,-0.99275208,0.183105,0.183105,-0.122070
315067708,0.01293945,0.00253296,-0.99275208,0.244141,0.122070,-0.122070
317584500,0.01161194,0.00390625,-0.99397278,0.244141,0.122070,-0.122070
325123541,0.01161194,0.00390625,-0.99397278,0.183105,0.305176,-0.244141
327640208,0.01243591,0.00486755,-0.99462891,0.183105,0.305176,-0.244141
335178791,0.01243591,0.00486755,-0.99462891,0.061035,0.305176,-0.061035
337696750,0.01325989,0.00552368,-0.99339294,0.061035,0.305176,-0.061035
345267000,0.01325989,0.00552368,-0.99339294,0.244141,0.122070,-0.122070
347785666,0.01319885,0.00636292,-0.99426270,0.244141,0.122070,-0.122070
355392500,0.01319885,0.00636292,-0.99426270,0.183105,0.122070,0.000000
357915375,0.01493835,0.00590515,-0.99322510,0.183105,0.122070,0.000000
365471500,0.01493835,0.00590515,-0.99322510,0.122070,0.244141,-0.122070
368003208,0.01530457,0.00547791,-0.99426270,0.122070,0.244141,-0.122070
375726416,0.01530457,0.00547791,-0.99426270,0.183105,0.183105,-0.183105
378287625,0.01412964,0.00459290,-0.99270630,0.183105,0.183105,-0.183105
385860750,0.01412964,0.00459290,-0.99270630,0.244141,0.244141,-0.061035
388397833,0.01493835,0.00314331,-0.99433899,0.244141,0.244141,-0.061035
396003166,0.01493835,0.00314331,-0.99433899,0.244141,0.244141,-0.122070
398551875,0.01412964,0.00184631,-0.99426270,0.244141,0.244141,-0.122070
406127625,0.01412964,0.00184631,-0.99426270,0.244141,0.183105,-0.122070
408707166,0.01425171,0.00178528,-0.99432373,0.244141,0.183105,-0.122070
413873875,0.01425171,0.00178528,-0.99432373,0.305176,0.305176,-0.061035
426595875,0.01300049,0.00157166,-0.99311829,0.305176,0.305176,-0.061035
429826000,0.01170349,0.00370789,-0.99491882,0.244141,0.244141,-0.061035
434973583,0.01170349,0.00370789,-0.99491882,0.183105,0.183105,-0.122070
440278583,0.01223755,0.00543213,-0.99261475,0.183105,0.183105,-0.122070
445496375,0.01223755,0.00543213,-0.99261475,0.183105,0.061035,-0.061035
448045041,0.01188660,0.00630188,-0.99362183,0.183105,0.061035,-0.061035
455697541,0.01188660,0.00630188,-0.99362183,0.183105,0.183105,-0.122070
458245000,0.01063538,0.00888062,-0.99546814,0.183105,0.183105,-0.122070
465606208,0.01063538,0.00888062,-0.99546814,0.305176,0.183105,-0.122070
468214708,0.01066589,0.00837708,-0.99382019,0.305176,0.183105,-0.122070
475767125,0.01066589,0.00837708,-0.99382019,0.244141,0.061035,-0.183105
478329208,0.01158142,0.00897217,-0.99310303,0.244141,0.061035,-0.183105
485911833,0.01158142,0.00897217,-0.99310303,0.305176,0.305176,0.000000
488451250,0.01231384,0.00891113,-0.99371338,0.305176,0.305176,0.000000
496044791,0.01231384,0.00891113,-0.99371338,0.427246,0.305176,-0.061035
498593041,0.01403809,0.00675964,-0.99491882,0.427246,0.305176,-0.061035
505844333,0.01403809,0.00675964,-0.99491882,0.305176,0.305176,-0.061035
508390458,0.01440430,0.00424194,-0.99418640,0.305176,0.305176,-0.061035
515999791,0.01440430,0.00424194,-0.99418640,0.122070,0.244141,0.000000
518417125,0.01545715,0.00184631,-0.99549866,0.122070,0.244141,0.000000
525996625,0.01545715,0.00184631,-0.99549866,0.061035,0.305176,-0.122070
528545250,0.01579285,-0.00018311,-0.99440002,0.061035,0.305176,-0.122070
536100125,0.01579285,-0.00018311,-0.99440002,0.122070,0.183105,0.000000
538646166,0.01557922,-0.00251770,-0.99493408,0.122070,0.183105,0.000000
546325500,0.01557922,-0.00251770,-0.99493408,0.122070,0.183105,-0.122070
548869291,0.01557922,-0.00363159,-0.99320984,0.122070,0.183105,-0.122070
556486166,0.01557922,-0.00363159,-0.99320984,0.122070,0.122070,-0.244141
559307583,0.01583862,-0.00424194,-0.99328613,0.122070,0.122070,-0.244141
566914833,0.01583862,-0.00424194,-0.99328613,0.183105,0.305176,-0.183105
569452875,0.01536560,-0.00318909,-0.99302673,0.183105,0.305176,-0.183105
574529875,0.01536560,-0.00318909,-0.99302673,0.244141,0.244141,-0.061035
579590625,0.01240540,0.00021362,-0.99368286,0.244141,0.244141,-0.061035
584655291,0.01240540,0.00021362,-0.99368286,0.122070,0.183105,-0.244141
589714375,0.01181030,0.00309753,-0.99478149,0.122070,0.183105,-0.244141
594775000,0.01181030,0.00309753,-0.99478149,0.305176,0.183105,-0.183105
599431458,0.01138306,0.00608826,-0.99468994,0.305176,0.183105,-0.183105
604504500,0.01138306,0.00608826,-0.99468994,0.183105,0.061035,0.061035
609591750,0.01164246,0.00805664,-0.99351501,0.183105,0.061035,0.061035
614650083,0.01164246,0.00805664,-0.99351501,0.122070,0.122070,0.000000
619709041,0.01167297,0.00901794,-0.99465942,0.122070,0.122070,0.000000
624770541,0.01167297,0.00901794,-0.99465942,0.061035,0.183105,-0.122070
629870458,0.01309204,0.00837708,-0.99551392,0.061035,0.183105,-0.122070
634967708,0.01309204,0.00837708,-0.99551392,0.000000,0.305176,-0.061035
640033625,0.01354980,0.00706482,-0.99594116,0.000000,0.305176,-0.061035
645090541,0.01354980,0.00706482,-0.99594116,0.122070,0.183105,-0.183105
650167500,0.01416016,0.00749207,-0.99366760,0.122070,0.183105,-0.183105
655247958,0.01416016,0.00749207,-0.99366760,0.183105,0.244141,-0.061035
660308958,0.01376343,0.00573730,-0.99360657,0.183105,0.244141,-0.061035
665374125,0.01376343,0.00573730,-0.99360657,0.122070,0.183105,-0.122070
670435250,0.01356506,0.00376892,-0.99461365,0.122070,0.183105,-0.122070
675532750,0.01356506,0.00376892,-0.99461365,0.122070,0.061035,-0.122070
680605375,0.01327515,0.00344849,-0.99504089,0.122070,0.061035,-0.122070
685674916,0.01327515,0.00344849,-0.99504089,0.122070,0.366211,-0.061035
690756500,0.01341248,0.00148010,-0.99484253,0.122070,0.366211,-0.061035
695837208,0.01341248,0.00148010,-0.99484253,-0.061035,0.122070,-0.122070
700930791,0.01348877,0.00161743,-0.99372864,-0.061035,0.122070,-0.122070
705994708,0.01348877,0.00161743,-0.99372864,0.000000,0.244141,-0.183105
708554041,0.01313782,0.00187683,-0.99391174,0.000000,0.244141,-0.183105
716142708,0.01313782,0.00187683,-0.99391174,0.061035,0.305176,-0.122070
718682916,0.01338196,0.00180054,-0.99337769,0.061035,0.305176,-0.122070
726268583,0.01338196,0.00180054,-0.99337769,0.061035,0.122070,-0.183105
728822416,0.01405334,0.00172424,-0.99479675,0.061035,0.122070,-0.183105
736416083,0.01405334,0.00172424,-0.99479675,0.244141,0.183105,-0.122070
738952916,0.01376343,0.00186157,-0.99385071,0.244141,0.183105,-0.122070
746553541,0.01376343,0.00186157,-0.99385071,0.061035,0.183105,-0.061035
749093666,0.01370239,0.00201416,-0.99496460,0.061035,0.183105,-0.061035
756679375,0.01370239,0.00201416,-0.99496460,0.000000,0.183105,-0.183105
759223083,0.01416016,0.00363159,-0.99388123,0.000000,0.183105,-0.183105
766818666,0.01416016,0.00363159,-0.99388123,0.183105,0.183105,-0.183105
769366666,0.01419067,0.00401306,-0.99398804,0.183105,0.183105,-0.183105
777001625,0.01419067,0.00401306,-0.99398804,0.061035,0.366211,-0.061035
779560875,0.01390076,0.00332642,-0.99317932,0.061035,0.366211,-0.061035
784692125,0.01390076,0.00332642,-0.99317932,0.061035,0.183105,-0.244141
789752083,0.01409912,0.00270081,-0.99479675,0.061035,0.183105,-0.244141
794834875,0.01409912,0.00270081,-0.99479675,0.061035,0.122070,-0.183105
799907291,0.01354980,0.00341797,-0.99496460,0.061035,0.122070,-0.183105
804998208,0.01354980,0.00341797,-0.99496460,0.061035,0.183105,-0.122070
810071500,0.01307678,0.00430298,-0.99299622,0.061035,0.183105,-0.122070
815137583,0.01307678,0.00430298,-0.99299622,0.183105,0.122070,-0.122070
820200000,0.01387024,0.00447083,-0.99334717,0.183105,0.122070,-0.122070
825270958,0.01387024,0.00447083,-0.99334717,0.183105,0.183105,-0.061035
830329333,0.01353455,0.00456238,-0.99325562,0.183105,0.183105,-0.061035
835384458,0.01353455,0.00456238,-0.99325562,0.061035,0.122070,-0.061035
840450166,0.01359558,0.00363159,-0.99354553,0.061035,0.122070,-0.061035
845511208,0.01359558,0.00363159,-0.99354553,0.122070,0.183105,-0.122070
850301583,0.01342773,0.00271606,-0.99494934,0.122070,0.183105,-0.122070
855368625,0.01342773,0.00271606,-0.99494934,0.000000,0.122070,-0.122070
860435625,0.01443481,0.00247192,-0.99427795,0.000000,0.122070,-0.122070
865502208,0.01443481,0.00247192,-0.99427795,0.000000,0.305176,-0.244141
870565250,0.01387024,0.00212097,-0.99403381,0.000000,0.305176,-0.244141
875630666,0.01387024,0.00212097,-0.99403381,0.000000,0.244141,-0.122070
880699708,0.01422119,0.00260925,-0.99285889,0.000000,0.244141,-0.122070
885761416,0.01422119,0.00260925,-0.99285889,0.122070,0.183105,-0.244141
890828416,0.01414490,0.00329590,-0.99478149,0.122070,0.183105,-0.244141
895904875,0.01414490,0.00329590,-0.99478149,0.061035,0.244141,-0.061035
900969666,0.01432800,0.00413513,-0.99456787,0.061035,0.244141,-0.061035
906037333,0.01432800,0.00413513,-0.99456787,0.122070,0.183105,-0.122070
911098250,0.01498413,0.00515747,-0.99330139,0.122070,0.183105,-0.122070
916168041,0.01498413,0.00515747,-0.99330139,0.000000,0.183105,-0.122070
921298750,0.01443481,0.00462341,-0.99488831,0.000000,0.183105,-0.122070
926384708,0.01443481,0.00462341,-0.99488831,0.122070,0.183105,0.000000
928931083,0.01327515,0.00421143,-0.99234009,0.122070,0.183105,0.000000
936531833,0.01327515,0.00421143,-0.99234009,0.061035,0.122070,-0.122070
939082208,0.01339722,0.00366211,-0.99351501,0.061035,0.122070,-0.122070
946668708,0.01339722,0.00366211,-0.99351501,0.000000,0.244141,-0.122070
949210333,0.01248169,0.00268555,-0.99270630,0.000000,0.244141,-0.122070
956802791,0.01248169,0.00268555,-0.99270630,-0.122070,0.183105,-0.183105
959343833,0.01411438,0.00321960,-0.99539185,-0.122070,0.183105,-0.183105
966938916,0.01411438,0.00321960,-0.99539185,0.000000,0.183105,-0.061035
969479666,0.01315308,0.00370789,-0.99432373,0.000000,0.183105,-0.061035
977086750,0.01315308,0.00370789,-0.99432373,-0.061035,0.122070,-0.122070
979626833,0.01263428,0.00337219,-0.99418640,-0.061035,0.122070,-0.122070
987226791,0.01263428,0.00337219,-0.99418640,0.000000,0.244141,-0.122070
989761708,0.01231384,0.00334167,-0.99420166,0.000000,0.244141,-0.122070
997345958,0.01231384,0.00334167,-0.99420166,0.061035,0.122070,-0.244141
999902333,0.01257324,0.00360107,-0.99409485,0.061035,0.122070,-0.244141
1007495958,0.01257324,0.00360107,-0.99409485,0.000000,0.122070,-0.061035
1010039333,0.01371765,0.00259399,-0.99154663,0.000000,0.122070,-0.061035
1017640666,0.01371765,0.00259399,-0.99154663,0.122070,0.244141,-0.061035
1020184500,0.01388550,0.00280762,-0.99447632,0.122070,0.244141,-0.061035
1027815208,0.01388550,0.00280762,-0.99447632,0.122070,0.122070,-0.122070
1030371500,0.01301575,0.00302124,-0.99348450,0.122070,0.122070,-0.122070
1037707833,0.01301575,0.00302124,-0.99348450,0.122070,0.244141,-0.122070
1040262500,0.01261902,0.00340271,-0.99328613,0.122070,0.244141,-0.122070
1047860333,0.01261902,0.00340271,-0.99328613,0.244141,0.305176,0.000000
1050221750,0.01353455,0.00369263,-0.99148560,0.244141,0.305176,0.000000
1057846666,0.01353455,0.00369263,-0.99148560,-0.061035,0.122070,-0.183105
1060390666,0.01318359,0.00321960,-0.99893188,-0.061035,0.122070,-0.183105
1067597291,0.01318359,0.00321960,-0.99893188,-0.061035,0.122070,-0.122070
1070131833,0.01478577,0.00476074,-0.99780273,-0.061035,0.122070,-0.122070
1077810375,0.01478577,0.00476074,-0.99780273,0.061035,0.122070,-0.183105
1080365125,0.01458740,0.00532532,-0.99267578,0.061035,0.122070,-0.183105
1085438333,0.01458740,0.00532532,-0.99267578,0.183105,0.244141,-0.061035
1090497458,0.01443481,0.00558472,-0.99331665,0.183105,0.244141,-0.061035
1095563333,0.01443481,0.00558472,-0.99331665,0.061035,0.122070,0.000000
1100637416,0.01438904,0.00573730,-0.99389648,0.061035,0.122070,0.000000
1105705583,0.01438904,0.00573730,-0.99389648,0.061035,0.183105,0.000000
1110770125,0.01402283,0.00602722,-0.99343872,0.061035,0.183105,0.000000
1115836958,0.01402283,0.00602722,-0.99343872,0.122070,0.122070,-0.183105
1120901208,0.01412964,0.00491333,-0.99235535,0.122070,0.122070,-0.183105
1125990125,0.01412964,0.00491333,-0.99235535,0.183105,0.183105,-0.061035
1131050958,0.01338196,0.00405884,-0.99279785,0.183105,0.183105,-0.061035
1136112750,0.01338196,0.00405884,-0.99279785,0.061035,0.305176,-0.061035
1141173250,0.01377869,0.00384521,-0.99320984,0.061035,0.305176,-0.061035
1146243791,0.01377869,0.00384521,-0.99320984,0.061035,0.244141,-0.061035
1151300875,0.01342773,0.00195312,-0.99531555,0.061035,0.244141,-0.061035
1156383708,0.01342773,0.00195312,-0.99531555,0.061035,0.183105,-0.122070
1161458458,0.01298523,0.00068665,-0.99345398,0.061035,0.183105,-0.122070
1166459958,0.01298523,0.00068665,-0.99345398,0.061035,0.427246,-0.122070
1171534541,0.01338196,0.00027466,-0.99345398,0.061035,0.427246,-0.122070
1176596916,0.01338196,0.00027466,-0.99345398,0.061035,0.183105,-0.244141
1181666500,0.01377869,0.00000000,-0.99363708,0.061035,0.183105,-0.244141
1186796875,0.01377869,0.00000000,-0.99363708,0.000000,0.122070,-0.122070
1189358958,0.01408386,0.00054932,-0.99427795,0.000000,0.122070,-0.122070
1196947125,0.01408386,0.00054932,-0.99427795,0.061035,0.122070,-0.122070
1199482333,0.01460266,0.00201416,-0.99365234,0.061035,0.122070,-0.122070
1207056500,0.01460266,0.00201416,-0.99365234,0.122070,0.244141,-0.183105
1209586708,0.01309204,0.00259399,-0.99539185,0.122070,0.244141,-0.183105
1217158291,0.01309204,0.00259399,-0.99539185,0.061035,0.305176,-0.244141
1219719750,0.01354980,0.00447083,-0.99417114,0.061035,0.305176,-0.244141
1227311791,0.01354980,0.00447083,-0.99417114,0.061035,0.122070,0.000000
1229850458,0.01391602,0.00561523,-0.99414062,0.061035,0.122070,0.000000
1237453875,0.01391602,0.00561523,-0.99414062,-0.061035,0.122070,-0.183105
1240001708,0.01316833,0.00511169,-0.99382019,-0.061035,0.122070,-0.183105
1247454291,0.01316833,0.00511169,-0.99382019,0.122070,0.244141,-0.061035
1249999708,0.01382446,0.00544739,-0.99349976,0.122070,0.244141,-0.061035
1257325583,0.01382446,0.00544739,-0.99349976,0.000000,0.183105,0.000000
1259867833,0.01428223,0.00511169,-0.99337769,0.000000,0.183105,0.000000
1267494333,0.01428223,0.00511169,-0.99337769,0.061035,0.122070,-0.244141
1270060041,0.01429749,0.00498962,-0.99407959,0.061035,0.122070,-0.244141
1277668666,0.01429749,0.00498962,-0.99407959,0.122070,0.122070,-0.122070
1280233291,0.01405334,0.00526428,-0.99464417,0.122070,0.122070,-0.122070
1287820250,0.01405334,0.00526428,-0.99464417,0.122070,0.183105,0.122070
1290376458,0.01365662,0.00445557,-0.99386597,0.122070,0.183105,0.122070
1297984583,0.01365662,0.00445557,-0.99386597,0.122070,0.244141,-0.122070
1300540625,0.01324463,0.00358582,-0.99346924,0.122070,0.244141,-0.122070
1308241958,0.01324463,0.00358582,-0.99346924,0.122070,0.122070,-0.061035
1310857958,0.01292419,0.00337219,-0.99418640,0.122070,0.122070,-0.061035
1315993666,0.01292419,0.00337219,-0.99418640,0.061035,0.183105,-0.183105
1321115375,0.01332092,0.00308228,-0.99461365,0.061035,0.183105,-0.183105
1326187458,0.01332092,0.00308228,-0.99461365,0.061035,0.305176,0.000000
1331247833,0.01284790,0.00253296,-0.99511719,0.061035,0.305176,0.000000
1336315250,0.01284790,0.00253296,-0.99511719,0.061035,0.244141,-0.122070
1341969708,0.01394653,0.00193787,-0.99275208,0.061035,0.244141,-0.122070
1347210750,0.01394653,0.00193787,-0.99275208,0.000000,0.244141,-0.122070
1349779916,0.01358032,0.00299072,-0.99398804,0.000000,0.244141,-0.122070
1357369625,0.01358032,0.00299072,-0.99398804,0.000000,0.244141,-0.061035
1359900375,0.01431274,0.00248718,-0.99436951,0.000000,0.244141,-0.061035
1367191500,0.01431274,0.00248718,-0.99436951,0.122070,0.183105,-0.183105
1369731958,0.01409912,0.00405884,-0.99411011,0.122070,0.183105,-0.183105
1377292791,0.01409912,0.00405884,-0.99411011,0.000000,0.183105,-0.122070
1379822166,0.01344299,0.00433350,-0.99346924,0.000000,0.183105,-0.122070
1387382416,0.01344299,0.00433350,-0.99346924,-0.061035,0.183105,-0.183105
1389909708,0.01445007,0.00387573,-0.99403381,-0.061035,0.183105,-0.183105
1397493375,0.01445007,0.00387573,-0.99403381,0.122070,0.183105,-0.122070
1400028125,0.01440430,0.00463867,-0.99443054,0.122070,0.183105,-0.122070
1407596958,0.01440430,0.00463867,-0.99443054,-0.061035,0.183105,-0.183105
1409805500,0.01402283,0.00422668,-0.99487305,-0.061035,0.183105,-0.183105
1417113291,0.01402283,0.00422668,-0.99487305,0.000000,0.122070,-0.122070
1422188416,0.01402283,0.00328064,-0.99443054,0.000000,0.122070,-0.122070
1427242541,0.01402283,0.00328064,-0.99443054,0.000000,0.183105,-0.061035
1432350375,0.01258850,0.00440979,-0.99395752,0.000000,0.183105,-0.061035
1437443916,0.01258850,0.00440979,-0.99395752,0.000000,0.183105,0.061035
1439983041,0.01216125,0.00280762,-0.99325562,0.000000,0.183105,0.061035
1447572291,0.01216125,0.00280762,-0.99325562,0.122070,0.305176,-0.183105
1450127916,0.01361084,0.00198364,-0.99313354,0.122070,0.305176,-0.183105
1457866333,0.01361084,0.00198364,-0.99313354,0.061035,0.244141,-0.244141
1462891375,0.01327515,0.00190735,-0.99394226,0.061035,0.244141,-0.244141
1467984291,0.01327515,0.00190735,-0.99394226,0.061035,0.183105,-0.061035
1470525791,0.01329041,0.00289917,-0.99386597,0.061035,0.183105,-0.061035
1478150541,0.01329041,0.00289917,-0.99386597,0.061035,0.244141,-0.122070
1480722583,0.01330566,0.00312805,-0.99433899,0.061035,0.244141,-0.122070
1488344000,0.01330566,0.00312805,-0.99433899,0.061035,0.244141,-0.122070
1490891333,0.01393127,0.00297546,-0.99339294,0.061035,0.244141,-0.122070
1498543791,0.01393127,0.00297546,-0.99339294,0.122070,0.183105,0.000000
1501104208,0.01359558,0.00326538,-0.99400330,0.122070,0.183105,0.000000
1508706166,0.01359558,0.00326538,-0.99400330,0.122070,0.305176,0.000000
1511261833,0.01480103,0.00381470,-0.99453735,0.122070,0.305176,0.000000
1516352500,0.01480103,0.00381470,-0.99453735,0.061035,0.183105,-0.183105
1521430416,0.01309204,0.00436401,-0.99305725,0.061035,0.183105,-0.183105
1526517541,0.01309204,0.00436401,-0.99305725,0.061035,0.244141,-0.122070
1531600625,0.01182556,0.00402832,-0.99293518,0.061035,0.244141,-0.122070
1536676583,0.01182556,0.00402832,-0.99293518,0.061035,0.244141,-0.122070
1541754083,0.01281738,0.00395203,-0.99371338,0.061035,0.244141,-0.122070
1546815458,0.01281738,0.00395203,-0.99371338,0.000000,0.122070,-0.183105
1551877083,0.01339722,0.00369263,-0.99359131,0.000000,0.122070,-0.183105
1556941500,0.01339722,0.00369263,-0.99359131,0.122070,0.183105,0.000000
1561995375,0.01321411,0.00405884,-0.99351501,0.122070,0.183105,0.000000
1567076875,0.01321411,0.00405884,-0.99351501,0.122070,0.183105,-0.183105
1571773750,0.01393127,0.00328064,-0.99362183,0.122070,0.183105,-0.183105
1576847541,0.01393127,0.00328064,-0.99362183,0.000000,0.183105,-0.244141
1581944375,0.01388550,0.00250244,-0.99494934,0.000000,0.183105,-0.244141
1587010916,0.01388550,0.00250244,-0.99494934,-0.061035,0.183105,-0.122070
1592078166,0.01332092,0.00285339,-0.99398804,-0.061035,0.183105,-0.122070
1597208875,0.01332092,0.00285339,-0.99398804,0.122070,0.183105,-0.244141
1602276375,0.01437378,0.00213623,-0.99365234,0.122070,0.183105,-0.244141
1607343875,0.01437378,0.00213623,-0.99365234,0.061035,0.061035,-0.122070
1612414041,0.01432800,0.00115967,-0.99311829,0.061035,0.061035,-0.122070
1617476791,0.01432800,0.00115967,-0.99311829,0.122070,0.122070,-0.122070
1622534291,0.01347351,0.00167847,-0.99374390,0.122070,0.122070,-0.122070
1627591833,0.01347351,0.00167847,-0.99374390,-0.061035,0.183105,0.000000
1632641083,0.01293945,0.00277710,-0.99310303,-0.061035,0.183105,0.000000
1637712125,0.01293945,0.00277710,-0.99310303,0.000000,0.244141,-0.122070
1642803958,0.01377869,0.00382996,-0.99288940,0.000000,0.244141,-0.122070
1647915958,0.01377869,0.00382996,-0.99288940,0.183105,0.061035,-0.183105
1650453208,0.01303101,0.00477600,-0.99443054,0.183105,0.061035,-0.183105
1658045708,0.01303101,0.00477600,-0.99443054,0.061035,0.183105,0.000000
1660593583,0.01354980,0.00433350,-0.99540710,0.061035,0.183105,0.000000
1668190375,0.01354980,0.00433350,-0.99540710,0.183105,0.244141,-0.122070
1670747000,0.01425171,0.00555420,-0.99363708,0.183105,0.244141,-0.122070
1678327500,0.01425171,0.00555420,-0.99363708,0.122070,0.305176,0.000000
1680865500,0.01344299,0.00602722,-0.99311829,0.122070,0.305176,0.000000
1688493750,0.01344299,0.00602722,-0.99311829,0.061035,0.183105,-0.244141
1691035833,0.01385498,0.00541687,-0.99433899,0.061035,0.183105,-0.244141
1698629250,0.01385498,0.00541687,-0.99433899,0.122070,0.244141,0.000000
1701166000,0.01420593,0.00471497,-0.99319458,0.122070,0.244141,0.000000
1708749833,0.01420593,0.00471497,-0.99319458,0.122070,0.244141,-0.061035
1711286458,0.01359558,0.00260925,-0.99461365,0.122070,0.244141,-0.061035
1718880916,0.01359558,0.00260925,-0.99461365,0.061035,0.244141,-0.061035
1721422041,0.01336670,0.00149536,-0.99354553,0.061035,0.244141,-0.061035
1729015375,0.01336670,0.00149536,-0.99354553,0.122070,0.244141,-0.122070
1731572666,0.01351929,0.00163269,-0.99418640,0.122070,0.244141,-0.122070
1739158708,0.01351929,0.00163269,-0.99418640,0.000000,0.244141,-0.183105
1741695041,0.01441956,0.00119019,-0.99398804,0.000000,0.244141,-0.183105
1749313625,0.01441956,0.00119019,-0.99398804,0.061035,0.183105,-0.122070
1751857208,0.01322937,0.00109863,-0.99449158,0.061035,0.183105,-0.122070
1756931666,0.01322937,0.00109863,-0.99449158,0.122070,0.000000,-0.244141
1762000166,0.01252747,0.00189209,-0.99435425,0.122070,0.000000,-0.244141
1767072791,0.01252747,0.00189209,-0.99435425,0.122070,0.244141,-0.244141
1772158583,0.01367188,0.00228882,-0.99404907,0.122070,0.244141,-0.244141
1777235625,0.01367188,0.00228882,-0.99404907,0.061035,0.366211,-0.183105
1782306125,0.01374817,0.00343323,-0.99395752,0.061035,0.366211,-0.183105
1787373333,0.01374817,0.00343323,-0.99395752,0.000000,0.244141,-0.122070
1792448750,0.01278687,0.00436401,-0.99374390,0.000000,0.244141,-0.122070
1797517333,0.01278687,0.00436401,-0.99374390,0.122070,0.183105,-0.061035
1802584208,0.01266479,0.00460815,-0.99339294,0.122070,0.183105,-0.061035
1809719333,0.01266479,0.00460815,-0.99339294,0.061035,0.244141,-0.061035
1812275375,0.01358032,0.00500488,-0.99423218,0.061035,0.244141,-0.061035
1819877333,0.01358032,0.00500488,-0.99423218,0.183105,0.244141,-0.061035
1822420625,0.01232910,0.00558472,-0.99324036,0.183105,0.244141,-0.061035
1827479583,0.01232910,0.00558472,-0.99324036,0.061035,0.244141,-0.122070
1832541333,0.01225281,0.00489807,-0.99417114,0.061035,0.244141,-0.122070
1837602541,0.01225281,0.00489807,-0.99417114,0.061035,0.122070,-0.061035
1842660666,0.01329041,0.00344849,-0.99375916,0.061035,0.122070,-0.061035
1847726916,0.01329041,0.00344849,-0.99375916,0.122070,0.061035,-0.061035
1852847833,0.01416016,0.00326538,-0.99377441,0.122070,0.061035,-0.061035
1857905791,0.01416016,0.00326538,-0.99377441,0.061035,0.122070,-0.183105
1862967750,0.01457214,0.00267029,-0.99314880,0.061035,0.122070,-0.183105
1868044333,0.01457214,0.00267029,-0.99314880,0.183105,0.183105,-0.183105
1873110500,0.01367188,0.00190735,-0.99412537,0.183105,0.183105,-0.183105
1878234916,0.01367188,0.00190735,-0.99412537,0.122070,0.183105,-0.061035
1883332541,0.01498413,0.00112915,-0.99359131,0.122070,0.183105,-0.061035
1888411708,0.01498413,0.00112915,-0.99359131,0.122070,0.366211,-0.061035
1890950375,0.01336670,0.00119019,-0.99452209,0.122070,0.366211,-0.061035
1898535875,0.01336670,0.00119019,-0.99452209,0.122070,0.305176,0.000000
1903595041,0.01258850,0.00213623,-0.99513245,0.122070,0.305176,0.000000
1908651250,0.01258850,0.00213623,-0.99513245,0.061035,0.244141,0.000000
1913715500,0.01281738,0.00225830,-0.99385071,0.061035,0.244141,0.000000
1918775541,0.01281738,0.00225830,-0.99385071,0.000000,0.122070,-0.061035
1923845833,0.01263428,0.00294495,-0.99386597,0.000000,0.122070,-0.061035
1928940708,0.01263428,0.00294495,-0.99386597,0.122070,0.244141,-0.183105
1931487916,0.01336670,0.00419617,-0.99443054,0.122070,0.244141,-0.183105
1939082791,0.01336670,0.00419617,-0.99443054,0.061035,0.183105,-0.061035
1941625583,0.01458740,0.00421143,-0.99269104,0.061035,0.183105,-0.061035
1949221500,0.01458740,0.00421143,-0.99269104,0.061035,0.183105,-0.061035
1951768375,0.01495361,0.00437927,-0.99403381,0.061035,0.183105,-0.061035
1959370833,0.01495361,0.00437927,-0.99403381,0.061035,0.061035,-0.244141
1961931250,0.01460266,0.00466919,-0.99400330,0.061035,0.061035,-0.244141
1969538458,0.01460266,0.00466919,-0.99400330,0.183105,0.305176,-0.122070
1972090208,0.01417542,0.00474548,-0.99372864,0.183105,0.305176,-0.122070
1979689208,0.01417542,0.00474548,-0.99372864,-0.061035,0.183105,-0.122070
1982248333,0.01440430,0.00431824,-0.99392700,-0.061035,0.183105,-0.122070
1989877875,0.01440430,0.00431824,-0.99392700,0.000000,0.122070,-0.122070
1992427333,0.01339722,0.00367737,-0.99400330,0.000000,0.122070,-0.122070
1997495458,0.01339722,0.00367737,-0.99400330,0.000000,0.061035,-0.183105
2002574291,0.01408386,0.00296021,-0.99475098,0.000000,0.061035,-0.183105
2007648625,0.01408386,0.00296021,-0.99475098,0.061035,0.122070,-0.183105
2012747208,0.01390076,0.00291443,-0.99388123,0.061035,0.122070,-0.183105
2017823041,0.01390076,0.00291443,-0.99388123,0.183105,0.183105,-0.061035
2022908500,0.01406860,0.00331116,-0.99491882,0.183105,0.183105,-0.061035
2027955583,0.01406860,0.00331116,-0.99491882,0.000000,0.244141,-0.061035
2033009750,0.01300049,0.00297546,-0.99363708,0.000000,0.244141,-0.061035
2038074833,0.01300049,0.00297546,-0.99363708,0.000000,0.122070,-0.061035
2043113583,0.01330566,0.00260925,-0.99417114,0.000000,0.122070,-0.061035
2048162208,0.01330566,0.00260925,-0.99417114,0.061035,0.244141,-0.183105
2053210458,0.01371765,0.00231934,-0.99324036,0.061035,0.244141,-0.183105
2058300791,0.01371765,0.00231934,-0.99324036,0.000000,0.122070,-0.122070
2063384416,0.01325989,0.00315857,-0.99334717,0.000000,0.122070,-0.122070
2068452875,0.01325989,0.00315857,-0.99334717,0.061035,0.122070,-0.061035
2073533375,0.01287842,0.00480652,-0.99337769,0.061035,0.122070,-0.061035
2078336916,0.01287842,0.00480652,-0.99337769,0.183105,0.244141,-0.122070
2083414625,0.01316833,0.00425720,-0.99310303,0.183105,0.244141,-0.122070
2088211000,0.01316833,0.00425720,-0.99310303,0.122070,0.244141,-0.183105
2093320875,0.01373291,0.00433350,-0.99401855,0.122070,0.244141,-0.183105
2098438333,0.01373291,0.00433350,-0.99401855,0.122070,0.244141,-0.061035
2103519750,0.01408386,0.00422668,-0.99433899,0.122070,0.244141,-0.061035
2108661041,0.01408386,0.00422668,-0.99433899,0.061035,0.366211,-0.061035
2113730791,0.01461792,0.00454712,-0.99400330,0.061035,0.366211,-0.061035
2118817458,0.01461792,0.00454712,-0.99400330,-0.061035,0.183105,-0.122070
2123918166,0.01449585,0.00479126,-0.99516296,-0.061035,0.183105,-0.122070
2128983791,0.01449585,0.00479126,-0.99516296,0.061035,0.183105,0.000000
2131525208,0.01473999,0.00460815,-0.99446106,0.061035,0.183105,0.000000
2139120125,0.01473999,0.00460815,-0.99446106,0.122070,0.244141,-0.122070
2141658416,0.01481628,0.00408936,-0.99319458,0.122070,0.244141,-0.122070
2149281291,0.01481628,0.00408936,-0.99319458,0.000000,0.122070,-0.061035
2151840541,0.01535034,0.00456238,-0.99328613,0.000000,0.122070,-0.061035
2159451625,0.01535034,0.00456238,-0.99328613,0.061035,0.244141,-0.061035
2161977083,0.01423645,0.00343323,-0.99433899,0.061035,0.244141,-0.061035
2169595458,0.01423645,0.00343323,-0.99433899,0.000000,0.305176,-0.122070
2171706083,0.01380920,0.00227356,-0.99287415,0.000000,0.305176,-0.122070
2179337291,0.01380920,0.00227356,-0.99287415,0.061035,0.244141,-0.122070
2181918541,0.01332092,0.00259399,-0.99296570,0.061035,0.244141,-0.122070
2189519125,0.01332092,0.00259399,-0.99296570,0.000000,0.122070,-0.183105
2192063625,0.01351929,0.00332642,-0.99366760,0.000000,0.122070,-0.183105
2199661291,0.01351929,0.00332642,-0.99366760,0.061035,0.244141,-0.061035
2202203208,0.01348877,0.00321960,-0.99417114,0.061035,0.244141,-0.061035
2209788666,0.01348877,0.00321960,-0.99417114,0.061035,0.305176,-0.183105
2212331666,0.01281738,0.00271606,-0.99377441,0.061035,0.305176,-0.183105
2219926583,0.01281738,0.00271606,-0.99377441,0.122070,0.244141,-0.183105
2222476625,0.01333618,0.00418091,-0.99400330,0.122070,0.244141,-0.183105
2230082625,0.01333618,0.00418091,-0.99400330,0.061035,0.244141,0.000000
2232668166,0.01448059,0.00349426,-0.99485779,0.061035,0.244141,0.000000
2240253458,0.01448059,0.00349426,-0.99485779,-0.061035,0.244141,-0.122070
2242813625,0.01332092,0.00366211,-0.99453735,-0.061035,0.244141,-0.122070
2250477541,0.01332092,0.00366211,-0.99453735,0.122070,0.244141,-0.122070
2253029875,0.01449585,0.00405884,-0.99456787,0.122070,0.244141,-0.122070
2260628125,0.01449585,0.00405884,-0.99456787,0.061035,0.183105,-0.183105
2263174333,0.01405334,0.00361633,-0.99371338,0.061035,0.183105,-0.183105
2270762958,0.01405334,0.00361633,-0.99371338,0.061035,0.244141,-0.183105
2273299833,0.01382446,0.00328064,-0.99311829,0.061035,0.244141,-0.183105
2280934708,0.01382446,0.00328064,-0.99311829,0.000000,0.061035,-0.122070
2283475458,0.01445007,0.00401306,-0.99427795,0.000000,0.061035,-0.122070
2288544500,0.01445007,0.00401306,-0.99427795,0.000000,0.122070,-0.183105
2293624375,0.01382446,0.00372314,-0.99365234,0.000000,0.122070,-0.183105
2298690583,0.01382446,0.00372314,-0.99365234,0.061035,0.183105,-0.061035
2303748916,0.01397705,0.00424194,-0.99446106,0.061035,0.183105,-0.061035
2308816250,0.01397705,0.00424194,-0.99446106,0.061035,0.244141,0.000000
2313873375,0.01461792,0.00366211,-0.99386597,0.061035,0.244141,0.000000
2318943166,0.01461792,0.00366211,-0.99386597,0.183105,0.183105,-0.061035
2324006791,0.01365662,0.00286865,-0.99435425,0.183105,0.183105,-0.061035
2329078125,0.01365662,0.00286865,-0.99435425,0.122070,0.244141,-0.244141
2334155041,0.01315308,0.00268555,-0.99353027,0.122070,0.244141,-0.244141
2339223125,0.01315308,0.00268555,-0.99353027,0.000000,0.183105,-0.061035
2344285083,0.01344299,0.00238037,-0.99504089,0.000000,0.183105,-0.061035
2349348541,0.01344299,0.00238037,-0.99504089,0.061035,0.183105,-0.061035
2354423083,0.01405334,0.00299072,-0.99316406,0.061035,0.183105,-0.061035
2359517916,0.01405334,0.00299072,-0.99316406,0.244141,0.122070,-0.122070
2364599750,0.01330566,0.00238037,-0.99337769,0.244141,0.122070,-0.122070
2369660083,0.01330566,0.00238037,-0.99337769,0.061035,0.183105,-0.061035
2374726875,0.01278687,0.00274658,-0.99363708,0.061035,0.183105,-0.061035
2379785791,0.01278687,0.00274658,-0.99363708,0.061035,0.244141,-0.305176
2384863041,0.01306152,0.00427246,-0.99497986,0.061035,0.244141,-0.305176
2389951375,0.01306152,0.00427246,-0.99497986,-0.061035,0.183105,0.000000
2392500416,0.01373291,0.00433350,-0.99343872,-0.061035,0.183105,0.000000
2400097083,0.01373291,0.00433350,-0.99343872,0.122070,0.305176,0.000000
2402632791,0.01339722,0.00457764,-0.99366760,0.122070,0.305176,0.000000
2410211500,0.01339722,0.00457764,-0.99366760,0.061035,0.244141,-0.061035
2412758416,0.01434326,0.00450134,-0.99444580,0.061035,0.244141,-0.061035
2420349875,0.01434326,0.00450134,-0.99444580,-0.061035,0.122070,0.000000
2422885333,0.01492310,0.00440979,-0.99479675,-0.061035,0.122070,0.000000
2430474875,0.01492310,0.00440979,-0.99479675,-0.061035,0.122070,-0.122070
2433012666,0.01399231,0.00379944,-0.99279785,-0.061035,0.122070,-0.122070
2440618250,0.01399231,0.00379944,-0.99279785,0.061035,0.244141,-0.122070
2443174083,0.01385498,0.00370789,-0.99394226,0.061035,0.244141,-0.122070
2450839541,0.01385498,0.00370789,-0.99394226,0.061035,0.122070,-0.183105
2453409250,0.01383972,0.00321960,-0.99389648,0.061035,0.122070,-0.183105
2458503041,0.01383972,0.00321960,-0.99389648,-0.061035,0.183105,0.000000
2463565416,0.01301575,0.00271606,-0.99322510,-0.061035,0.183105,0.000000
2468624750,0.01301575,0.00271606,-0.99322510,0.061035,0.183105,-0.122070
2473682625,0.01347351,0.00244141,-0.99389648,0.061035,0.183105,-0.122070
2478746250,0.01347351,0.00244141,-0.99389648,0.122070,0.305176,-0.122070
2483813041,0.01356506,0.00148010,-0.99432373,0.122070,0.305176,-0.122070
2488876416,0.01356506,0.00148010,-0.99432373,-0.061035,0.244141,-0.061035
2493945000,0.01406860,0.00109863,-0.99479675,-0.061035,0.244141,-0.061035
2499021166,0.01406860,0.00109863,-0.99479675,0.061035,0.183105,0.000000
2504083041,0.01365662,0.00149536,-0.99453735,0.061035,0.183105,0.000000
2509140875,0.01365662,0.00149536,-0.99453735,0.183105,0.305176,-0.122070
2514209750,0.01351929,0.00437927,-0.99354553,0.183105,0.305176,-0.122070
2519266125,0.01351929,0.00437927,-0.99354553,0.061035,0.183105,-0.122070
2524322500,0.01258850,0.00422668,-0.99372864,0.061035,0.183105,-0.122070
2529394541,0.01258850,0.00422668,-0.99372864,0.122070,0.183105,-0.061035
2534453916,0.01414490,0.00570679,-0.99360657,0.122070,0.183105,-0.061035
2539515375,0.01414490,0.00570679,-0.99360657,0.061035,0.305176,-0.122070
2544573416,0.01365662,0.00512695,-0.99386597,0.061035,0.305176,-0.122070
2549644291,0.01365662,0.00512695,-0.99386597,0.122070,0.061035,-0.122070
2554701291,0.01397705,0.00428772,-0.99462891,0.122070,0.061035,-0.122070
2559759250,0.01397705,0.00428772,-0.99462891,0.000000,0.244141,0.000000
2564852166,0.01370239,0.00459290,-0.99440002,0.000000,0.244141,0.000000
2569934833,0.01370239,0.00459290,-0.99440002,0.000000,0.122070,-0.061035
2572471916,0.01344299,0.00402832,-0.99391174,0.000000,0.122070,-0.061035
2580051458,0.01344299,0.00402832,-0.99391174,0.000000,0.122070,-0.183105
2582588208,0.01374817,0.00375366,-0.99464417,0.000000,0.122070,-0.183105
2590176416,0.01374817,0.00375366,-0.99464417,0.061035,0.427246,-0.061035
2592723041,0.01428223,0.00363159,-0.99465942,0.061035,0.427246,-0.061035
2600315083,0.01428223,0.00363159,-0.99465942,0.122070,0.244141,0.000000
2602851375,0.01327515,0.00297546,-0.99409485,0.122070,0.244141,0.000000
2610465375,0.01327515,0.00297546,-0.99409485,0.183105,0.305176,-0.183105
2613047791,0.01289368,0.00312805,-0.99473572,0.183105,0.305176,-0.183105
2620638750,0.01289368,0.00312805,-0.99473572,0.061035,0.183105,-0.122070
2623175833,0.01435852,0.00268555,-0.99484253,0.061035,0.183105,-0.122070
2630770541,0.01435852,0.00268555,-0.99484253,0.000000,0.305176,-0.122070
2633313583,0.01350403,0.00300598,-0.99511719,0.000000,0.305176,-0.122070
2640893541,0.01350403,0.00300598,-0.99511719,0.122070,0.244141,-0.183105
2643429750,0.01458740,0.00270081,-0.99412537,0.122070,0.244141,-0.183105
2651026666,0.01458740,0.00270081,-0.99412537,0.000000,0.183105,-0.183105
2653560625,0.01280212,0.00244141,-0.99382019,0.000000,0.183105,-0.183105
2661138458,0.01280212,0.00244141,-0.99382019,0.061035,0.122070,-0.183105
2663672625,0.01312256,0.00300598,-0.99333191,0.061035,0.122070,-0.183105
2671253000,0.01312256,0.00300598,-0.99333191,0.061035,0.244141,-0.244141
2673790916,0.01376343,0.00198364,-0.99415588,0.061035,0.244141,-0.244141
2678874041,0.01376343,0.00198364,-0.99415588,0.183105,0.183105,-0.061035
2683952916,0.01416016,0.00251770,-0.99420166,0.183105,0.183105,-0.061035
2691546541,0.01416016,0.00251770,-0.99420166,0.000000,0.183105,-0.183105
2694095166,0.01461792,0.00344849,-0.99345398,0.000000,0.183105,-0.183105
2701691250,0.01461792,0.00344849,-0.99345398,0.122070,0.183105,-0.122070
2704241000,0.01445007,0.00271606,-0.99324036,0.122070,0.183105,-0.122070
2711842500,0.01445007,0.00271606,-0.99324036,0.061035,0.183105,-0.183105
2714409916,0.01423645,0.00411987,-0.99446106,0.061035,0.183105,-0.183105
2719477208,0.01423645,0.00411987,-0.99446106,0.061035,0.183105,-0.122070
2724554916,0.01329041,0.00460815,-0.99461365,0.061035,0.183105,-0.122070
2729618083,0.01329041,0.00460815,-0.99461365,0.183105,0.183105,-0.122070
2734682666,0.01387024,0.00453186,-0.99543762,0.183105,0.183105,-0.122070
2739743750,0.01387024,0.00453186,-0.99543762,0.061035,0.305176,-0.122070
2744805166,0.01332092,0.00457764,-0.99388123,0.061035,0.305176,-0.122070
2749878583,0.01332092,0.00457764,-0.99388123,0.000000,0.183105,-0.183105
2754939708,0.01336670,0.00442505,-0.99475098,0.000000,0.183105,-0.183105
2760005416,0.01336670,0.00442505,-0.99475098,0.061035,0.122070,-0.061035
2765068166,0.01394653,0.00318909,-0.99525452,0.061035,0.122070,-0.061035
2770124958,0.01394653,0.00318909,-0.99525452,0.122070,0.122070,-0.122070
2774732500,0.01455688,0.00292969,-0.99475098,0.122070,0.122070,-0.122070
2779810041,0.01455688,0.00292969,-0.99475098,0.061035,0.244141,-0.061035
2784872666,0.01358032,0.00433350,-0.99354553,0.061035,0.244141,-0.061035
2789942750,0.01358032,0.00433350,-0.99354553,0.061035,0.122070,-0.183105
2795005041,0.01364136,0.00361633,-0.99491882,0.061035,0.122070,-0.183105
2800069541,0.01364136,0.00361633,-0.99491882,0.000000,0.183105,0.000000
2805133166,0.01391602,0.00309753,-0.99351501,0.000000,0.183105,0.000000
2810189041,0.01391602,0.00309753,-0.99351501,0.000000,0.122070,-0.061035
2815076083,0.01403809,0.00312805,-0.99363708,0.000000,0.122070,-0.061035
2820131666,0.01403809,0.00312805,-0.99363708,0.183105,0.183105,0.000000
2825188541,0.01371765,0.00326538,-0.99467468,0.183105,0.183105,0.000000
2830261291,0.01371765,0.00326538,-0.99467468,0.000000,0.244141,-0.244141
2835319375,0.01368713,0.00256348,-0.99479675,0.000000,0.244141,-0.244141
2840398458,0.01368713,0.00256348,-0.99479675,0.122070,0.244141,-0.122070
2845478625,0.01402283,0.00314331,-0.99424744,0.122070,0.244141,-0.122070
2850601291,0.01402283,0.00314331,-0.99424744,-0.061035,0.244141,-0.122070
2855667083,0.01260376,0.00378418,-0.99395752,-0.061035,0.244141,-0.122070
2860724291,0.01260376,0.00378418,-0.99395752,0.122070,0.244141,-0.061035
2865796250,0.01338196,0.00302124,-0.99407959,0.122070,0.244141,-0.061035
2870866250,0.01338196,0.00302124,-0.99407959,0.061035,0.305176,-0.183105
2875955500,0.01310730,0.00369263,-0.99418640,0.061035,0.305176,-0.183105
2881020666,0.01310730,0.00369263,-0.99418640,0.183105,0.183105,-0.122070
2883560583,0.01336670,0.00366211,-0.99417114,0.183105,0.183105,-0.122070
2891152291,0.01336670,0.00366211,-0.99417114,0.061035,0.122070,0.000000
2893688833,0.01380920,0.00451660,-0.99415588,0.061035,0.122070,0.000000
2901272750,0.01380920,0.00451660,-0.99415588,0.122070,0.061035,-0.183105
2903807541,0.01336670,0.00291443,-0.99380493,0.122070,0.061035,-0.183105
2911386041,0.01336670,0.00291443,-0.99380493,0.061035,0.305176,-0.061035
2913920583,0.01338196,0.00335693,-0.99394226,0.061035,0.305176,-0.061035
2921511000,0.01338196,0.00335693,-0.99394226,0.000000,0.244141,-0.122070
2924053041,0.01321411,0.00360107,-0.99295044,0.000000,0.244141,-0.122070
2931643291,0.01321411,0.00360107,-0.99295044,-0.061035,0.305176,-0.122070
2934180208,0.01272583,0.00381470,-0.99383545,-0.061035,0.305176,-0.122070
2941770333,0.01272583,0.00381470,-0.99383545,0.061035,0.183105,-0.122070
2944315125,0.01354980,0.00382996,-0.99404907,0.061035,0.183105,-0.122070
2951931458,0.01354980,0.00382996,-0.99404907,0.183105,0.244141,-0.061035
2954474708,0.01359558,0.00337219,-0.99345398,0.183105,0.244141,-0.061035
2959566500,0.01359558,0.00337219,-0.99345398,0.305176,0.122070,0.061035
2964630000,0.01295471,0.00245667,-0.99395752,0.305176,0.122070,0.061035
2969689333,0.01295471,0.00245667,-0.99395752,0.000000,0.244141,-0.122070
2974752583,0.01545715,0.00270081,-0.99369812,0.000000,0.244141,-0.122070
2979810083,0.01545715,0.00270081,-0.99369812,0.122070,0.122070,-0.122070
2984891583,0.01274109,0.00358582,-0.99336243,0.122070,0.122070,-0.122070
2989973208,0.01274109,0.00358582,-0.99336243,0.122070,0.183105,-0.061035
2995042041,0.01303101,0.00398254,-0.99513245,0.122070,0.183105,-0.061035
3000166791,0.01303101,0.00398254,-0.99513245,0.000000,0.305176,-0.122070
3005223916,0.01316833,0.00413513,-0.99440002,0.000000,0.305176,-0.122070
3010293416,0.01316833,0.00413513,-0.99440002,0.000000,0.183105,-0.122070
3015350333,0.01289368,0.00410461,-0.99429321,0.000000,0.183105,-0.122070
3020407208,0.01289368,0.00410461,-0.99429321,0.000000,0.183105,-0.122070
3025518125,0.01380920,0.00410461,-0.99340820,0.000000,0.183105,-0.122070
3030580750,0.01380920,0.00410461,-0.99340820,-0.061035,0.244141,-0.061035
3035640541,0.01361084,0.00410461,-0.99372864,-0.061035,0.244141,-0.061035
3040699625,0.01361084,0.00410461,-0.99372864,0.061035,0.183105,-0.122070
3045763875,0.01313782,0.00372314,-0.99365234,0.061035,0.183105,-0.122070
3050820416,0.01313782,0.00372314,-0.99365234,0.122070,0.061035,-0.122070
3055897791,0.01368713,0.00270081,-0.99375916,0.122070,0.061035,-0.122070
3060978250,0.01368713,0.00270081,-0.99375916,0.122070,0.244141,-0.122070
3063540750,0.01341248,0.00256348,-0.99343872,0.122070,0.244141,-0.122070
3071128666,0.01341248,0.00256348,-0.99343872,0.122070,0.122070,-0.061035
3073672583,0.01414490,0.00218201,-0.99316406,0.122070,0.122070,-0.061035
3081303875,0.01414490,0.00218201,-0.99316406,0.122070,0.122070,-0.122070
3083841833,0.01437378,0.00236511,-0.99360657,0.122070,0.122070,-0.122070
3091484500,0.01437378,0.00236511,-0.99360657,-0.061035,0.183105,-0.122070
3094030125,0.01438904,0.00338745,-0.99423218,-0.061035,0.183105,-0.122070
3101630291,0.01438904,0.00338745,-0.99423218,0.122070,0.244141,-0.061035
3104186083,0.01394653,0.00329590,-0.99371338,0.122070,0.244141,-0.061035
3111775416,0.01394653,0.00329590,-0.99371338,0.061035,0.244141,-0.061035
3114312208,0.01414490,0.00276184,-0.99435425,0.061035,0.244141,-0.061035
3121892625,0.01414490,0.00276184,-0.99435425,0.000000,0.122070,-0.122070
3124426791,0.01484680,0.00334167,-0.99427795,0.000000,0.122070,-0.122070
3132033333,0.01484680,0.00334167,-0.99427795,0.183105,0.122070,-0.061035
3134570125,0.01376343,0.00323486,-0.99595642,0.183105,0.122070,-0.061035
3142209291,0.01376343,0.00323486,-0.99595642,0.061035,0.183105,-0.183105
3144745458,0.01335144,0.00384521,-0.99354553,0.061035,0.183105,-0.183105
3152597291,0.01335144,0.00384521,-0.99354553,0.000000,0.122070,-0.061035
3155134916,0.01344299,0.00509644,-0.99464417,0.000000,0.122070,-0.061035
3162719166,0.01344299,0.00509644,-0.99464417,0.122070,0.183105,-0.183105
3165254708,0.01350403,0.00459290,-0.99346924,0.122070,0.183105,-0.183105
3172882541,0.01350403,0.00459290,-0.99346924,0.122070,0.122070,-0.061035
3175422375,0.01290894,0.00474548,-0.99397278,0.122070,0.122070,-0.061035
3180484416,0.01290894,0.00474548,-0.99397278,-0.061035,0.183105,-0.122070
3185532833,0.01411438,0.00395203,-0.99273682,-0.061035,0.183105,-0.122070
3190582833,0.01411438,0.00395203,-0.99273682,0.122070,0.183105,0.000000
3195629125,0.01451111,0.00387573,-0.99441528,0.122070,0.183105,0.000000
3200667375,0.01451111,0.00387573,-0.99441528,0.061035,0.183105,-0.122070
3205705500,0.01451111,0.00282288,-0.99545288,0.061035,0.183105,-0.122070
3210747791,0.01451111,0.00282288,-0.99545288,0.122070,0.183105,-0.061035
3215781958,0.01374817,0.00160217,-0.99461365,0.122070,0.183105,-0.061035
3220814750,0.01374817,0.00160217,-0.99461365,0.244141,0.183105,-0.061035
3225855083,0.01333618,0.00201416,-0.99394226,0.244141,0.183105,-0.061035
3230912375,0.01333618,0.00201416,-0.99394226,-0.122070,0.122070,-0.122070
3235868958,0.01480103,0.00276184,-0.99461365,-0.122070,0.122070,-0.122070
3240928333,0.01480103,0.00276184,-0.99461365,0.061035,0.122070,-0.183105
3245985833,0.01446533,0.00219727,-0.99299622,0.061035,0.122070,-0.183105
3251054625,0.01446533,0.00219727,-0.99299622,0.000000,0.183105,-0.183105
3256124041,0.01446533,0.00280762,-0.99371338,0.000000,0.183105,-0.183105
3261185250,0.01446533,0.00280762,-0.99371338,0.122070,0.244141,-0.061035
3266246125,0.01290894,0.00219727,-0.99371338,0.122070,0.244141,-0.061035
3271304458,0.01290894,0.00219727,-0.99371338,0.061035,0.122070,-0.061035
3276370833,0.01170349,0.00346375,-0.99601746,0.061035,0.122070,-0.061035
3281460625,0.01170349,0.00346375,-0.99601746,0.122070,0.305176,-0.122070
3286544958,0.01298523,0.00430298,-0.99314880,0.122070,0.305176,-0.122070
3291610583,0.01298523,0.00430298,-0.99314880,0.061035,0.122070,-0.122070
3296673250,0.01377869,0.00375366,-0.99429321,0.061035,0.122070,-0.122070
3301730125,0.01377869,0.00375366,-0.99429321,0.183105,0.183105,-0.061035
3306802708,0.01313782,0.00428772,-0.99401855,0.183105,0.183105,-0.061035
3311886208,0.01313782,0.00428772,-0.99401855,0.061035,0.122070,-0.061035
3316952583,0.01353455,0.00402832,-0.99417114,0.061035,0.122070,-0.061035
3322027541,0.01353455,0.00402832,-0.99417114,0.122070,0.183105,-0.122070
3324566666,0.01338196,0.00329590,-0.99331665,0.122070,0.183105,-0.122070
3332151500,0.01338196,0.00329590,-0.99331665,0.061035,0.244141,-0.183105
3334690958,0.01370239,0.00360107,-0.99400330,0.061035,0.244141,-0.183105
3342278291,0.01370239,0.00360107,-0.99400330,0.122070,0.122070,-0.061035
3344821958,0.01393127,0.00340271,-0.99359131,0.122070,0.122070,-0.061035
3352399416,0.01393127,0.00340271,-0.99359131,0.000000,0.122070,-0.183105
3354934541,0.01368713,0.00352478,-0.99447632,0.000000,0.122070,-0.183105
3362530833,0.01368713,0.00352478,-0.99447632,0.061035,0.122070,0.000000
3365066208,0.01412964,0.00332642,-0.99377441,0.061035,0.122070,0.000000
3372643291,0.01412964,0.00332642,-0.99377441,0.061035,0.122070,-0.183105
3375178916,0.01361084,0.00314331,-0.99452209,0.061035,0.122070,-0.183105
3382756791,0.01361084,0.00314331,-0.99452209,-0.061035,0.183105,-0.122070
3385308041,0.01255798,0.00292969,-0.99385071,-0.061035,0.183105,-0.122070
3392907750,0.01255798,0.00292969,-0.99385071,0.183105,0.244141,-0.061035
3395461083,0.01374817,0.00315857,-0.99372864,0.183105,0.244141,-0.061035
3400529375,0.01374817,0.00315857,-0.99372864,0.061035,0.183105,-0.183105
3405587000,0.01432800,0.00373840,-0.99305725,0.061035,0.183105,-0.183105
3410645833,0.01432800,0.00373840,-0.99305725,0.061035,0.183105,-0.061035
3415704833,0.01325989,0.00312805,-0.99371338,0.061035,0.183105,-0.061035
3420761708,0.01325989,0.00312805,-0.99371338,0.122070,0.183105,-0.305176
3425821208,0.01341248,0.00209045,-0.99252319,0.122070,0.183105,-0.305176
3430919625,0.01341248,0.00209045,-0.99252319,0.000000,0.183105,-0.061035
3435999458,0.01463318,0.00236511,-0.99337769,0.000000,0.183105,-0.061035
3441070250,0.01463318,0.00236511,-0.99337769,0.000000,0.183105,-0.183105
3446126583,0.01290894,0.00277710,-0.99290466,0.000000,0.183105,-0.183105
3451184125,0.01290894,0.00277710,-0.99290466,0.183105,0.183105,-0.061035
3456265000,0.01289368,0.00433350,-0.99394226,0.183105,0.183105,-0.061035
3461341625,0.01289368,0.00433350,-0.99394226,0.122070,0.122070,0.000000
3466416541,0.01441956,0.00279236,-0.99305725,0.122070,0.122070,0.000000
3471513875,0.01441956,0.00279236,-0.99305725,0.061035,0.244141,-0.122070
3476582791,0.01493835,0.00372314,-0.99360657,0.061035,0.244141,-0.122070
3481644791,0.01493835,0.00372314,-0.99360657,0.122070,0.305176,-0.122070
3486711708,0.01414490,0.00376892,-0.99330139,0.122070,0.305176,-0.122070
3491779791,0.01414490,0.00376892,-0.99330139,0.000000,0.244141,-0.122070
3496846625,0.01350403,0.00331116,-0.99339294,0.000000,0.244141,-0.122070
3501970666,0.01350403,0.00331116,-0.99339294,0.000000,0.183105,-0.122070
3504516125,0.01348877,0.00332642,-0.99398804,0.000000,0.183105,-0.122070
3512098208,0.01348877,0.00332642,-0.99398804,0.000000,0.183105,-0.061035
3514632250,0.01420593,0.00364685,-0.99452209,0.000000,0.183105,-0.061035
3522213666,0.01420593,0.00364685,-0.99452209,0.122070,0.122070,-0.061035
3524748583,0.01353455,0.00456238,-0.99459839,0.122070,0.122070,-0.061035
3532340625,0.01353455,0.00456238,-0.99459839,0.000000,0.122070,-0.061035
3534888166,0.01428223,0.00361633,-0.99447632,0.000000,0.122070,-0.061035
3542476625,0.01428223,0.00361633,-0.99447632,0.061035,0.244141,-0.061035
3545019041,0.01531982,0.00384521,-0.99365234,0.061035,0.244141,-0.061035
3552599083,0.01531982,0.00384521,-0.99365234,-0.061035,0.244141,-0.061035
3555139916,0.01333618,0.00360107,-0.99438477,-0.061035,0.244141,-0.061035
3562321500,0.01333618,0.00360107,-0.99438477,0.061035,0.122070,-0.244141
3564862583,0.01377869,0.00413513,-0.99551392,0.061035,0.122070,-0.244141
3572455708,0.01377869,0.00413513,-0.99551392,0.000000,0.061035,-0.183105
3574993333,0.01361084,0.00312805,-0.99426270,0.000000,0.061035,-0.183105
3582582666,0.01361084,0.00312805,-0.99426270,0.244141,0.183105,-0.061035
3585118333,0.01263428,0.00297546,-0.99378967,0.244141,0.183105,-0.061035
3592704458,0.01263428,0.00297546,-0.99378967,0.061035,0.183105,-0.061035
3595240125,0.01362610,0.00382996,-0.99349976,0.061035,0.183105,-0.061035
3602820333,0.01362610,0.00382996,-0.99349976,0.122070,0.183105,0.000000
3605354583,0.01440430,0.00344849,-0.99392700,0.122070,0.183105,0.000000
3612936541,0.01440430,0.00344849,-0.99392700,-0.061035,0.122070,-0.122070
3615490416,0.01339722,0.00338745,-0.99507141,-0.061035,0.122070,-0.122070
3623082916,0.01339722,0.00338745,-0.99507141,0.061035,0.183105,-0.122070
3625620291,0.01335144,0.00302124,-0.99465942,0.061035,0.183105,-0.122070
3633196125,0.01335144,0.00302124,-0.99465942,-0.061035,0.061035,-0.183105
3635729875,0.01385498,0.00334167,-0.99418640,-0.061035,0.061035,-0.183105
3643305333,0.01385498,0.00334167,-0.99418640,0.122070,0.244141,0.000000
3645838833,0.01387024,0.00376892,-0.99404907,0.122070,0.244141,0.000000
3653456083,0.01387024,0.00376892,-0.99404907,0.061035,0.305176,-0.061035
3656014375,0.01338196,0.00234985,-0.99421692,0.061035,0.305176,-0.061035
3663669958,0.01338196,0.00234985,-0.99421692,0.000000,0.244141,-0.183105
3666221791,0.01289368,0.00306702,-0.99462891,0.000000,0.244141,-0.183105
3673839333,0.01289368,0.00306702,-0.99462891,0.122070,0.305176,-0.061035
3676393958,0.01319885,0.00350952,-0.99346924,0.122070,0.305176,-0.061035
3681468291,0.01319885,0.00350952,-0.99346924,0.183105,0.122070,-0.183105
3686560958,0.01420593,0.00341797,-0.99327087,0.183105,0.122070,-0.183105
3691634250,0.01420593,0.00341797,-0.99327087,0.000000,0.244141,0.000000
3696719208,0.01403809,0.00431824,-0.99308777,0.000000,0.244141,0.000000
3701837250,0.01403809,0.00431824,-0.99308777,-0.122070,0.244141,-0.122070
3706924333,0.01307678,0.00450134,-0.99403381,-0.122070,0.244141,-0.122070
3712007500,0.01307678,0.00450134,-0.99403381,0.122070,0.122070,-0.061035
3717085458,0.01310730,0.00308228,-0.99424744,0.122070,0.122070,-0.061035
3722150500,0.01310730,0.00308228,-0.99424744,0.061035,0.305176,-0.122070
3727214791,0.01371765,0.00325012,-0.99363708,0.061035,0.305176,-0.122070
3732287666,0.01371765,0.00325012,-0.99363708,0.122070,0.183105,0.000000
3737349791,0.01353455,0.00360107,-0.99327087,0.122070,0.183105,0.000000
3742410500,0.01353455,0.00360107,-0.99327087,0.000000,0.244141,-0.122070
3747488708,0.01367188,0.00256348,-0.99578857,0.000000,0.244141,-0.122070
3752580125,0.01367188,0.00256348,-0.99578857,-0.061035,0.183105,-0.061035
3757652208,0.01486206,0.00315857,-0.99430847,-0.061035,0.183105,-0.061035
3762714083,0.01486206,0.00315857,-0.99430847,0.061035,0.244141,-0.183105
3767796625,0.01300049,0.00375366,-0.99336243,0.061035,0.244141,-0.183105
3772877833,0.01300049,0.00375366,-0.99336243,0.061035,0.244141,-0.122070
3775417291,0.01364136,0.00363159,-0.99270630,0.061035,0.244141,-0.122070
3783022416,0.01364136,0.00363159,-0.99270630,0.000000,0.183105,-0.183105
3785563083,0.01367188,0.00314331,-0.99371338,0.000000,0.183105,-0.183105
3793160500,0.01367188,0.00314331,-0.99371338,-0.061035,0.122070,-0.122070
3795698625,0.01377869,0.00360107,-0.99363708,-0.061035,0.122070,-0.122070
3803283833,0.01377869,0.00360107,-0.99363708,0.000000,0.061035,-0.122070
3805827125,0.01408386,0.00413513,-0.99362183,0.000000,0.061035,-0.122070
3813420625,0.01408386,0.00413513,-0.99362183,0.061035,0.305176,-0.122070
3815979083,0.01412964,0.00340271,-0.99346924,0.061035,0.305176,-0.122070
3823636750,0.01412964,0.00340271,-0.99346924,0.183105,0.183105,-0.122070
3826179208,0.01414490,0.00265503,-0.99423218,0.183105,0.183105,-0.122070
3833767208,0.01414490,0.00265503,-0.99423218,0.244141,0.183105,-0.122070
3836303333,0.01408386,0.00285339,-0.99324036,0.244141,0.183105,-0.122070
3843896541,0.01408386,0.00285339,-0.99324036,0.305176,0.061035,-0.183105
3846440041,0.01330566,0.00375366,-0.99165344,0.305176,0.061035,-0.183105
3854066291,0.01330566,0.00375366,-0.99165344,-0.122070,0.244141,-0.244141
3856614250,0.01371765,0.00354004,-0.99610901,-0.122070,0.244141,-0.244141
3861672791,0.01371765,0.00354004,-0.99610901,0.976562,0.183105,-0.061035
3866745333,0.01315308,0.00424194,-1.00195312,0.976562,0.183105,-0.061035
3871808375,0.01315308,0.00424194,-1.00195312,-0.305176,0.061035,-0.122070
3876859958,0.01338196,0.00344849,-0.97850037,-0.305176,0.061035,-0.122070
3881942750,0.01338196,0.00344849,-0.97850037,-0.061035,0.366211,-0.061035
3886984333,0.01399231,0.00291443,-1.01036072,-0.061035,0.366211,-0.061035
3892031125,0.01399231,0.00291443,-1.01036072,-0.061035,0.183105,-0.122070
3897075708,0.01394653,0.00430298,-0.98826599,-0.061035,0.183105,-0.122070
3902206958,0.01394653,0.00430298,-0.98826599,-0.061035,0.183105,-0.183105
3907286166,0.01335144,0.00468445,-0.99786377,-0.061035,0.183105,-0.183105
3912364583,0.01335144,0.00468445,-0.99786377,0.061035,0.122070,-0.061035
3917412125,0.01417542,0.00399780,-0.99270630,0.061035,0.122070,-0.061035
3922454125,0.01417542,0.00399780,-0.99270630,0.000000,0.244141,-0.061035
3927492500,0.01277161,0.00596619,-0.99356079,0.000000,0.244141,-0.061035
3932560000,0.01277161,0.00596619,-0.99356079,0.549316,0.061035,0.000000
3937544250,0.01345825,0.00668335,-0.99462891,0.549316,0.061035,0.000000
3942628833,0.01345825,0.00668335,-0.99462891,-0.488281,0.305176,-0.122070
3947693041,0.01296997,0.00427246,-0.99172974,-0.488281,0.305176,-0.122070
3952764166,0.01296997,0.00427246,-0.99172974,-0.061035,0.183105,0.000000
3957835125,0.01400757,0.00227356,-1.00241089,-0.061035,0.183105,0.000000
3962904541,0.01400757,0.00227356,-1.00241089,0.183105,0.305176,-0.061035
3967999166,0.01495361,0.00205994,-0.98518372,0.183105,0.305176,-0.061035
3973082250,0.01495361,0.00205994,-0.98518372,0.183105,0.183105,-0.061035
3975619583,0.01458740,0.00129700,-0.99392700,0.183105,0.183105,-0.061035
3982736916,0.01458740,0.00129700,-0.99392700,0.122070,0.183105,-0.122070
3987806833,0.01489258,0.00109863,-0.99398804,0.122070,0.183105,-0.122070
3992875333,0.01489258,0.00109863,-0.99398804,0.000000,0.183105,-0.183105
3997936250,0.01435852,0.00158691,-0.99601746,0.000000,0.183105,-0.183105
4002996375,0.01435852,0.00158691,-0.99601746,0.000000,0.122070,-0.122070
4008068500,0.01283264,0.00274658,-0.99240112,0.000000,0.122070,-0.122070
4013141416,0.01283264,0.00274658,-0.99240112,0.000000,0.366211,-0.183105
4015676208,0.01257324,0.00402832,-0.99276733,0.000000,0.366211,-0.183105
4023262166,0.01257324,0.00402832,-0.99276733,0.061035,0.244141,-0.122070
4025814000,0.01348877,0.00453186,-0.99436951,0.061035,0.244141,-0.122070
4033429916,0.01348877,0.00453186,-0.99436951,0.122070,0.244141,-0.061035
4035974208,0.01380920,0.00520325,-0.99328613,0.122070,0.244141,-0.061035
4043585750,0.01380920,0.00520325,-0.99328613,0.183105,0.305176,0.000000
4046121416,0.01318359,0.00434875,-0.99295044,0.183105,0.305176,0.000000
4053717125,0.01318359,0.00434875,-0.99295044,0.122070,0.305176,-0.122070
4056251625,0.01394653,0.00444031,-0.99366760,0.122070,0.305176,-0.122070
4063857666,0.01394653,0.00444031,-0.99366760,-0.061035,0.122070,-0.244141
4066409208,0.01367188,0.00515747,-0.99745178,-0.061035,0.122070,-0.244141
4073995875,0.01367188,0.00515747,-0.99745178,0.061035,0.122070,-0.122070
4076540750,0.01432800,0.00363159,-0.99324036,0.061035,0.122070,-0.122070
4084184041,0.01432800,0.00363159,-0.99324036,0.122070,0.244141,-0.122070
4086720833,0.01429749,0.00334167,-0.99165344,0.122070,0.244141,-0.122070
4094335333,0.01429749,0.00334167,-0.99165344,0.183105,0.305176,0.000000
4096884291,0.01400757,0.00241089,-0.99284363,0.183105,0.305176,0.000000
4104475166,0.01400757,0.00241089,-0.99284363,0.122070,0.183105,-0.061035
4107027291,0.01483154,0.00288391,-0.99548340,0.122070,0.183105,-0.061035
4114670958,0.01483154,0.00288391,-0.99548340,0.000000,0.244141,-0.061035
4117217875,0.01480103,0.00286865,-0.99485779,0.000000,0.244141,-0.061035
4124803041,0.01480103,0.00286865,-0.99485779,0.061035,0.244141,-0.183105
4127344416,0.01348877,0.00300598,-0.99353027,0.061035,0.244141,-0.183105
4134957625,0.01348877,0.00300598,-0.99353027,0.122070,0.061035,-0.122070
4137494750,0.01301575,0.00294495,-0.99433899,0.122070,0.061035,-0.122070
4142569875,0.01301575,0.00294495,-0.99433899,-0.061035,0.122070,-0.061035
4147636458,0.01295471,0.00428772,-0.99420166,-0.061035,0.122070,-0.061035
4152708541,0.01295471,0.00428772,-0.99420166,-0.061035,0.244141,-0.183105
4157768625,0.01325989,0.00367737,-0.99275208,-0.061035,0.244141,-0.183105
4162828750,0.01325989,0.00367737,-0.99275208,0.244141,0.183105,-0.183105
4167888541,0.01316833,0.00309753,-0.99295044,0.244141,0.183105,-0.183105
4172958041,0.01316833,0.00309753,-0.99295044,0.244141,0.183105,-0.122070
4178031791,0.01382446,0.00331116,-0.99446106,0.244141,0.183105,-0.122070
4183096625,0.01382446,0.00331116,-0.99446106,0.122070,0.183105,-0.122070
4188160500,0.01359558,0.00256348,-0.99380493,0.122070,0.183105,-0.122070
4193222291,0.01359558,0.00256348,-0.99380493,0.122070,0.244141,-0.061035
4198290833,0.01268005,0.00337219,-0.99482727,0.122070,0.244141,-0.061035
4203371875,0.01268005,0.00337219,-0.99482727,0.000000,0.244141,-0.183105
4208432708,0.01396179,0.00433350,-0.99473572,0.000000,0.244141,-0.183105
4213513791,0.01396179,0.00433350,-0.99473572,0.122070,0.122070,0.061035
4218593666,0.01356506,0.00384521,-0.99426270,0.122070,0.122070,0.061035
4223669291,0.01356506,0.00384521,-0.99426270,0.061035,0.183105,-0.122070
4228730291,0.01339722,0.00373840,-0.99340820,0.061035,0.183105,-0.122070
4233792875,0.01339722,0.00373840,-0.99340820,0.122070,0.061035,-0.183105
4238850958,0.01414490,0.00329590,-0.99487305,0.122070,0.061035,-0.183105
4243921625,0.01414490,0.00329590,-0.99487305,0.061035,0.244141,-0.061035
4246459041,0.01463318,0.00260925,-0.99348450,0.061035,0.244141,-0.061035
4254041333,0.01463318,0.00260925,-0.99348450,0.000000,0.244141,-0.183105
4256576666,0.01339722,0.00241089,-0.99362183,0.000000,0.244141,-0.183105
4264159916,0.01339722,0.00241089,-0.99362183,0.061035,0.244141,-0.183105
4266707583,0.01307678,0.00338745,-0.99342346,0.061035,0.244141,-0.183105
4274286875,0.01307678,0.00338745,-0.99342346,0.122070,0.244141,0.000000
4276835250,0.01335144,0.00296021,-0.99343872,0.122070,0.244141,0.000000
4284413541,0.01335144,0.00296021,-0.99343872,-0.061035,0.122070,-0.061035
4286973833,0.01420593,0.00311279,-0.99316406,-0.061035,0.122070,-0.061035
4294553333,0.01420593,0.00311279,-0.99316406,0.183105,0.183105,-0.061035
4297274666,0.01379395,0.00260925,-0.99324036,0.183105,0.183105,-0.061035
4304899291,0.01379395,0.00260925,-0.99324036,0.000000,0.122070,-0.122070
4307440833,0.01368713,0.00389099,-0.99351501,0.000000,0.122070,-0.122070
4315052625,0.01368713,0.00389099,-0.99351501,0.122070,0.305176,-0.061035
4317129750,0.01312256,0.00427246,-0.99418640,0.122070,0.305176,-0.061035
4324718125,0.01312256,0.00427246,-0.99418640,0.000000,0.244141,-0.183105
4327260875,0.01408386,0.00427246,-0.99340820,0.000000,0.244141,-0.183105
4334861333,0.01408386,0.00427246,-0.99340820,0.183105,0.244141,-0.061035
4337415125,0.01365662,0.00367737,-0.99301147,0.183105,0.244141,-0.061035
4345025958,0.01365662,0.00367737,-0.99301147,0.061035,0.244141,-0.122070
4347577916,0.01344299,0.00384521,-0.99409485,0.061035,0.244141,-0.122070
4354761958,0.01344299,0.00384521,-0.99409485,0.000000,0.244141,-0.183105
4357306500,0.01380920,0.00349426,-0.99446106,0.000000,0.244141,-0.183105
4364898916,0.01380920,0.00349426,-0.99446106,0.244141,0.244141,-0.122070
4367440583,0.01423645,0.00306702,-0.99385071,0.244141,0.244141,-0.122070
4375049875,0.01423645,0.00306702,-0.99385071,0.061035,0.305176,-0.061035
4377597125,0.01493835,0.00329590,-0.99423218,0.061035,0.305176,-0.061035
4385117166,0.01493835,0.00329590,-0.99423218,-0.061035,0.305176,-0.244141
4387672875,0.01432800,0.00207520,-0.99438477,-0.061035,0.305176,-0.244141
4395290125,0.01432800,0.00207520,-0.99438477,0.000000,0.244141,-0.122070
4397839958,0.01435852,0.00305176,-0.99449158,0.000000,0.244141,-0.122070
4402926291,0.01435852,0.00305176,-0.99449158,0.000000,0.244141,-0.061035
4407991166,0.01309204,0.00373840,-0.99360657,0.000000,0.244141,-0.061035
4413052333,0.01309204,0.00373840,-0.99360657,0.183105,0.244141,-0.122070
4418113500,0.01272583,0.00296021,-0.99423218,0.183105,0.244141,-0.122070
4423232250,0.01272583,0.00296021,-0.99423218,0.183105,0.244141,-0.122070
4428297208,0.01336670,0.00410461,-0.99287415,0.183105,0.244141,-0.122070
4433362291,0.01336670,0.00410461,-0.99287415,0.122070,0.183105,-0.122070
4438431208,0.01364136,0.00306702,-0.99284363,0.122070,0.183105,-0.122070
4443506541,0.01364136,0.00306702,-0.99284363,0.000000,0.061035,-0.122070
4448578583,0.01419067,0.00407410,-0.99221802,0.000000,0.061035,-0.122070
4453642166,0.01419067,0.00407410,-0.99221802,0.366211,-0.122070,0.061035
4458702291,0.01274109,0.00389099,-0.99754333,0.366211,-0.122070,0.061035
4463760583,0.01274109,0.00389099,-0.99754333,-0.488281,0.549316,-0.183105
4468857166,0.01289368,0.00341797,-0.98669434,-0.488281,0.549316,-0.183105
4473933916,0.01289368,0.00341797,-0.98669434,0.366211,0.183105,-0.244141
4479003833,0.01344299,0.00325012,-1.00326538,0.366211,0.183105,-0.244141
4483835291,0.01344299,0.00325012,-1.00326538,-0.061035,0.183105,-0.061035
4488820916,0.01304626,0.00338745,-0.99053955,-0.061035,0.183105,-0.061035
4493673250,0.01304626,0.00338745,-0.99053955,0.061035,0.183105,-0.061035
4498710500,0.01394653,0.00386047,-0.99845886,0.061035,0.183105,-0.061035
4503532750,0.01394653,0.00386047,-0.99845886,0.000000,0.305176,0.000000
4508567166,0.01400757,0.00386047,-0.99082947,0.000000,0.305176,0.000000
4513389083,0.01400757,0.00386047,-0.99082947,0.000000,0.122070,-0.122070
4518425833,0.01376343,0.00332642,-0.99514771,0.000000,0.122070,-0.122070
4525758916,0.01376343,0.00332642,-0.99514771,0.122070,0.244141,-0.061035
4528307291,0.01373291,0.00367737,-0.99354553,0.122070,0.244141,-0.061035
4533362708,0.01373291,0.00367737,-0.99354553,0.061035,0.183105,-0.061035
4538420791,0.01354980,0.00332642,-0.99620056,0.061035,0.183105,-0.061035
4543466125,0.01354980,0.00332642,-0.99620056,0.122070,0.183105,-0.061035
4548518125,0.01333618,0.00224304,-0.99362183,0.122070,0.183105,-0.061035
4553578458,0.01333618,0.00224304,-0.99362183,0.061035,0.183105,-0.183105
4558636125,0.01373291,0.00115967,-0.98968506,0.061035,0.183105,-0.183105
4563707583,0.01373291,0.00115967,-0.98968506,0.061035,0.244141,-0.122070
4568770458,0.01443481,0.00086975,-0.99310303,0.061035,0.244141,-0.122070
4573841625,0.01443481,0.00086975,-0.99310303,0.061035,0.305176,-0.183105
4578912333,0.01475525,0.00088501,-0.99676514,0.061035,0.305176,-0.183105
4583937000,0.01475525,0.00088501,-0.99676514,0.061035,0.183105,-0.183105
4588999958,0.01298523,0.00187683,-0.99368286,0.061035,0.183105,-0.183105
4594064458,0.01298523,0.00187683,-0.99368286,0.122070,0.061035,-0.122070
4599138291,0.01295471,0.00283813,-0.99377441,0.122070,0.061035,-0.122070
4604224583,0.01295471,0.00283813,-0.99377441,0.122070,0.305176,-0.122070
4609289333,0.01365662,0.00444031,-0.99278259,0.122070,0.305176,-0.122070
4614357833,0.01365662,0.00444031,-0.99278259,0.183105,0.366211,0.000000
4619425250,0.01405334,0.00466919,-0.99418640,0.183105,0.366211,0.000000
4624506708,0.01405334,0.00466919,-0.99418640,0.000000,0.183105,-0.061035
4629583625,0.01325989,0.00450134,-0.99526978,0.000000,0.183105,-0.061035
4634652625,0.01325989,0.00450134,-0.99526978,0.061035,0.183105,0.000000
4639721125,0.01393127,0.00393677,-0.99540710,0.061035,0.183105,0.000000
4644783291,0.01393127,0.00393677,-0.99540710,0.183105,0.366211,-0.061035
4649694500,0.01359558,0.00425720,-0.99481201,0.183105,0.366211,-0.061035
4654767375,0.01359558,0.00425720,-0.99481201,0.061035,0.183105,-0.183105
4659836916,0.01368713,0.00355530,-0.99380493,0.061035,0.183105,-0.183105
4664907958,0.01368713,0.00355530,-0.99380493,0.122070,0.366211,-0.122070
4667465833,0.01428223,0.00416565,-0.99513245,0.122070,0.366211,-0.122070
4675057750,0.01428223,0.00416565,-0.99513245,-0.061035,0.305176,0.000000
4677596083,0.01354980,0.00338745,-0.99534607,-0.061035,0.305176,0.000000
4685173916,0.01354980,0.00338745,-0.99534607,0.122070,0.183105,-0.244141
4687537583,0.01461792,0.00363159,-0.99421692,0.122070,0.183105,-0.244141
4695120541,0.01461792,0.00363159,-0.99421692,0.000000,0.305176,-0.122070
4697660500,0.01295471,0.00260925,-0.99295044,0.000000,0.305176,-0.122070
4705241333,0.01295471,0.00260925,-0.99295044,0.122070,0.183105,-0.122070
4707788875,0.01260376,0.00238037,-0.99197388,0.122070,0.183105,-0.122070
4715366916,0.01260376,0.00238037,-0.99197388,0.061035,0.061035,-0.122070
4717929083,0.01313782,0.00320435,-0.99380493,0.061035,0.061035,-0.122070
4725550750,0.01313782,0.00320435,-0.99380493,0.000000,0.183105,-0.183105
4728103125,0.01237488,0.00344849,-0.99459839,0.000000,0.183105,-0.183105
4735693833,0.01237488,0.00344849,-0.99459839,0.000000,0.244141,-0.183105
4738237125,0.01319885,0.00337219,-0.99412537,0.000000,0.244141,-0.183105
4745821500,0.01319885,0.00337219,-0.99412537,0.183105,0.244141,0.000000
4748357250,0.01348877,0.00349426,-0.99349976,0.183105,0.244141,0.000000
4755963750,0.01348877,0.00349426,-0.99349976,0.000000,0.122070,-0.183105
4758526333,0.01397705,0.00381470,-0.99433899,0.000000,0.122070,-0.183105
4763607208,0.01397705,0.00381470,-0.99433899,0.061035,0.244141,-0.183105
4768675166,0.01420593,0.00357056,-0.99426270,0.061035,0.244141,-0.183105
4773744291,0.01420593,0.00357056,-0.99426270,0.061035,0.122070,-0.183105
4778812083,0.01350403,0.00283813,-0.99363708,0.061035,0.122070,-0.183105
4783905583,0.01350403,0.00283813,-0.99363708,0.244141,0.244141,0.000000
4788965791,0.01393127,0.00277710,-0.99461365,0.244141,0.244141,0.000000
4794032708,0.01393127,0.00277710,-0.99461365,0.122070,0.183105,-0.183105
4799093416,0.01406860,0.00369263,-0.99430847,0.122070,0.183105,-0.183105
4804152083,0.01406860,0.00369263,-0.99430847,-0.061035,0.244141,0.000000
4809210125,0.01380920,0.00314331,-0.99382019,-0.061035,0.244141,0.000000
4814268041,0.01380920,0.00314331,-0.99382019,0.122070,0.244141,-0.061035
4819327916,0.01318359,0.00285339,-0.99327087,0.122070,0.244141,-0.061035
4824390291,0.01318359,0.00285339,-0.99327087,0.122070,0.122070,-0.244141
4829460125,0.01315308,0.00326538,-0.99450684,0.122070,0.122070,-0.244141
4834187625,0.01315308,0.00326538,-0.99450684,0.122070,0.244141,-0.122070
4839245000,0.01371765,0.00343323,-0.99398804,0.122070,0.244141,-0.122070
4844300958,0.01371765,0.00343323,-0.99398804,0.000000,0.061035,-0.183105
4849357833,0.01336670,0.00346375,-0.99375916,0.000000,0.061035,-0.183105
4854413916,0.01336670,0.00346375,-0.99375916,0.061035,0.244141,-0.183105
4859476125,0.01344299,0.00393677,-0.99421692,0.061035,0.244141,-0.183105
4864542250,0.01344299,0.00393677,-0.99421692,0.061035,0.122070,-0.061035
4869607750,0.01322937,0.00386047,-0.99398804,0.061035,0.122070,-0.061035
4874667166,0.01322937,0.00386047,-0.99398804,0.061035,0.244141,-0.183105
4879725541,0.01300049,0.00483704,-0.99415588,0.061035,0.244141,-0.183105
4884782333,0.01300049,0.00483704,-0.99415588,0.122070,0.244141,-0.061035
4889846375,0.01380920,0.00361633,-0.99333191,0.122070,0.244141,-0.061035
4894925250,0.01380920,0.00361633,-0.99333191,0.061035,0.183105,-0.183105
4900055500,0.01362610,0.00328064,-0.99423218,0.061035,0.183105,-0.183105
4905149875,0.01362610,0.00328064,-0.99423218,0.000000,0.122070,0.000000
4907688166,0.01394653,0.00360107,-0.99514771,0.000000,0.122070,0.000000
4915280041,0.01394653,0.00360107,-0.99514771,0.061035,0.183105,-0.061035
4917832291,0.01361084,0.00373840,-0.99453735,0.061035,0.183105,-0.061035
4925423750,0.01361084,0.00373840,-0.99453735,0.183105,0.305176,-0.122070
4927972291,0.01460266,0.00321960,-0.99403381,0.183105,0.305176,-0.122070
4935567000,0.01460266,0.00321960,-0.99403381,0.000000,0.183105,-0.122070
4938103208,0.01329041,0.00289917,-0.99311829,0.000000,0.183105,-0.122070
4945714166,0.01329041,0.00289917,-0.99311829,0.122070,0.122070,0.000000
4948251958,0.01475525,0.00350952,-0.99378967,0.122070,0.122070,0.000000
4955847000,0.01475525,0.00350952,-0.99378967,0.061035,0.244141,-0.183105
4958382083,0.01405334,0.00379944,-0.99345398,0.061035,0.244141,-0.183105
4965963041,0.01405334,0.00379944,-0.99345398,0.183105,0.244141,-0.061035
4968497958,0.01420593,0.00273132,-0.99470520,0.183105,0.244141,-0.061035
4976082791,0.01420593,0.00273132,-0.99470520,0.122070,0.244141,0.000000
4978617458,0.01406860,0.00320435,-0.99426270,0.122070,0.244141,0.000000
4986199750,0.01406860,0.00320435,-0.99426270,0.000000,0.061035,-0.183105
4988734791,0.01400757,0.00299072,-0.99328613,0.000000,0.061035,-0.183105
4996313541,0.01400757,0.00299072,-0.99328613,0.061035,0.183105,-0.122070
4998847125,0.01509094,0.00279236,-0.99375916,0.061035,0.183105,-0.122070
5006432833,0.01509094,0.00279236,-0.99375916,0.061035,0.244141,-0.122070
5008986583,0.01409912,0.00308228,-0.99392700,0.061035,0.244141,-0.122070
5016576125,0.01409912,0.00308228,-0.99392700,0.061035,0.183105,-0.061035
5019137958,0.01338196,0.00204468,-0.99337769,0.061035,0.183105,-0.061035
5026735083,0.01338196,0.00204468,-0.99337769,0.244141,0.122070,-0.183105
5029272208,0.01258850,0.00309753,-0.99330139,0.244141,0.122070,-0.183105
5036875791,0.01258850,0.00309753,-0.99330139,0.244141,0.244141,-0.122070
5039300541,0.01434326,0.00398254,-0.99366760,0.244141,0.244141,-0.122070
5046927000,0.01434326,0.00398254,-0.99366760,0.061035,0.061035,-0.183105
5049474250,0.01489258,0.00326538,-0.99348450,0.061035,0.061035,-0.183105
5054551916,0.01489258,0.00326538,-0.99348450,-0.366211,0.488281,-0.183105
5059296125,0.01373291,0.00335693,-0.99137878,-0.366211,0.488281,-0.183105
5064406500,0.01373291,0.00335693,-0.99137878,0.427246,0.244141,0.000000
5069483416,0.01361084,0.00346375,-1.00103760,0.427246,0.244141,0.000000
5074545041,0.01361084,0.00346375,-1.00103760,-0.122070,0.244141,-0.061035
5079629083,0.01423645,0.00325012,-0.99337769,-0.122070,0.244141,-0.061035
5084695500,0.01423645,0.00325012,-0.99337769,0.061035,0.183105,-0.122070
5089755333,0.01440430,0.00367737,-0.99783325,0.061035,0.183105,-0.122070
5094816000,0.01440430,0.00367737,-0.99783325,0.000000,0.122070,-0.122070
5099875000,0.01403809,0.00372314,-0.99172974,0.000000,0.122070,-0.122070
5104947333,0.01403809,0.00372314,-0.99172974,0.122070,0.305176,-0.122070
5110010666,0.01329041,0.00466919,-0.99385071,0.122070,0.305176,-0.122070
5115082583,0.01329041,0.00466919,-0.99385071,0.061035,0.244141,0.000000
5120147708,0.01403809,0.00451660,-0.99215698,0.061035,0.244141,0.000000
5125209458,0.01403809,0.00451660,-0.99215698,-0.183105,0.244141,-0.061035
5130270000,0.01377869,0.00401306,-0.99520874,-0.183105,0.244141,-0.061035
5135305208,0.01377869,0.00401306,-0.99520874,-0.061035,0.244141,0.000000
5140384250,0.01377869,0.00309753,-0.99487305,-0.061035,0.244141,0.000000
5145462291,0.01377869,0.00309753,-0.99487305,0.000000,0.183105,-0.122070
5150537583,0.01324463,0.00181580,-0.99473572,0.000000,0.183105,-0.122070
5155613500,0.01324463,0.00181580,-0.99473572,-0.549316,0.366211,-0.122070
5160700750,0.01361084,0.00076294,-0.99061584,-0.549316,0.366211,-0.122070
5165766708,0.01361084,0.00076294,-0.99061584,0.366211,0.122070,-0.183105
5170838291,0.01347351,0.00140381,-1.00296021,0.366211,0.122070,-0.183105
5175927541,0.01347351,0.00140381,-1.00296021,-0.061035,0.244141,-0.244141
5180997541,0.01429749,0.00172424,-0.98524475,-0.061035,0.244141,-0.244141
5186082750,0.01429749,0.00172424,-0.98524475,0.122070,0.183105,-0.183105
5188622125,0.01391602,0.00311279,-0.99632263,0.122070,0.183105,-0.183105
5196207583,0.01391602,0.00311279,-0.99632263,-0.061035,0.183105,-0.122070
5198743333,0.01432800,0.00308228,-0.99325562,-0.061035,0.183105,-0.122070
5206353416,0.01432800,0.00308228,-0.99325562,-0.061035,0.000000,-0.122070
5208907208,0.01425171,0.00541687,-0.99618530,-0.061035,0.000000,-0.122070
5216413583,0.01425171,0.00541687,-0.99618530,-0.061035,0.122070,-0.061035
5218949375,0.01358032,0.00547791,-0.99194336,-0.061035,0.122070,-0.061035
5226536333,0.01358032,0.00547791,-0.99194336,0.061035,0.366211,-0.183105
5229073208,0.01397705,0.00369263,-0.99340820,0.061035,0.366211,-0.183105
5236652333,0.01397705,0.00369263,-0.99340820,0.061035,0.122070,-0.122070
5239185750,0.01362610,0.00392151,-0.99440002,0.061035,0.122070,-0.122070
5246296916,0.01362610,0.00392151,-0.99440002,0.305176,0.183105,0.000000
5248834000,0.01281738,0.00433350,-0.99557495,0.305176,0.183105,0.000000
5256438875,0.01281738,0.00433350,-0.99557495,-0.061035,0.305176,-0.183105
5258987416,0.01332092,0.00433350,-0.99362183,-0.061035,0.305176,-0.183105
5266575375,0.01332092,0.00433350,-0.99362183,0.061035,0.244141,-0.061035
5269111666,0.01412964,0.00357056,-0.99411011,0.061035,0.244141,-0.061035
5276691958,0.01412964,0.00357056,-0.99411011,0.122070,0.183105,-0.183105
5279226375,0.01425171,0.00370789,-0.99258423,0.122070,0.183105,-0.183105
5286812416,0.01425171,0.00370789,-0.99258423,0.061035,0.305176,0.061035
5289347458,0.01486206,0.00317383,-0.99449158,0.061035,0.305176,0.061035
5296924125,0.01486206,0.00317383,-0.99449158,0.000000,0.183105,-0.122070
5299459791,0.01402283,0.00329590,-0.99349976,0.000000,0.183105,-0.122070
5307044625,0.01402283,0.00329590,-0.99349976,0.061035,0.244141,-0.183105
5309579791,0.01377869,0.00268555,-0.99473572,0.061035,0.244141,-0.183105
5317166458,0.01377869,0.00268555,-0.99473572,0.122070,0.183105,-0.061035
5319701458,0.01283264,0.00305176,-0.99380493,0.122070,0.183105,-0.061035
5327286625,0.01283264,0.00305176,-0.99380493,0.183105,0.183105,0.000000
5329832583,0.01264954,0.00306702,-0.99438477,0.183105,0.183105,0.000000
5334907833,0.01264954,0.00306702,-0.99438477,0.122070,0.183105,-0.122070
5339981083,0.01295471,0.00486755,-0.99435425,0.122070,0.183105,-0.122070
5345053625,0.01295471,0.00486755,-0.99435425,-0.061035,0.244141,-0.061035
5350116458,0.01327515,0.00355530,-0.99440002,-0.061035,0.244141,-0.061035
5355180958,0.01327515,0.00355530,-0.99440002,0.061035,0.183105,-0.183105
5360238166,0.01336670,0.00360107,-0.99337769,0.061035,0.183105,-0.183105
5367846666,0.01336670,0.00360107,-0.99337769,0.122070,0.244141,-0.305176
5370394583,0.01353455,0.00323486,-0.99464417,0.122070,0.244141,-0.305176
5375463416,0.01353455,0.00323486,-0.99464417,0.061035,0.244141,-0.061035
5380520500,0.01368713,0.00329590,-0.99440002,0.061035,0.244141,-0.061035
5385583583,0.01368713,0.00329590,-0.99440002,0.061035,0.305176,-0.244141
5390644791,0.01403809,0.00407410,-0.99375916,0.061035,0.305176,-0.244141
5395698083,0.01403809,0.00407410,-0.99375916,0.122070,0.183105,-0.061035
5400758625,0.01263428,0.00331116,-0.99365234,0.122070,0.183105,-0.061035
5405821875,0.01263428,0.00331116,-0.99365234,0.122070,0.122070,-0.183105
5410880208,0.01365662,0.00372314,-0.99435425,0.122070,0.122070,-0.183105
5415596625,0.01365662,0.00372314,-0.99435425,0.061035,0.244141,-0.061035
5420678041,0.01380920,0.00389099,-0.99311829,0.061035,0.244141,-0.061035
5425745375,0.01380920,0.00389099,-0.99311829,0.000000,0.122070,0.000000
5430806125,0.01307678,0.00349426,-0.99407959,0.000000,0.122070,0.000000
5435864750,0.01307678,0.00349426,-0.99407959,0.061035,0.183105,-0.061035
5440927166,0.01368713,0.00369263,-0.99412537,0.061035,0.183105,-0.061035
5445984125,0.01368713,0.00369263,-0.99412537,0.244141,0.183105,-0.061035
5451048750,0.01348877,0.00334167,-0.99374390,0.244141,0.183105,-0.061035
5456105541,0.01348877,0.00334167,-0.99374390,0.122070,0.305176,-0.061035
5461163041,0.01313782,0.00343323,-0.99444580,0.122070,0.305176,-0.061035
5466222416,0.01313782,0.00343323,-0.99444580,0.000000,0.122070,-0.122070
5471294875,0.01416016,0.00354004,-0.99464417,0.000000,0.122070,-0.122070
5476365125,0.01416016,0.00354004,-0.99464417,0.061035,0.183105,-0.061035
5481445916,0.01443481,0.00331116,-0.99330139,0.061035,0.183105,-0.061035
5486525583,0.01443481,0.00331116,-0.99330139,0.061035,0.244141,-0.183105
5491584708,0.01338196,0.00262451,-0.99327087,0.061035,0.244141,-0.183105
5496650375,0.01338196,0.00262451,-0.99327087,0.122070,0.244141,-0.061035
5501706916,0.01387024,0.00256348,-0.99365234,0.122070,0.244141,-0.061035
5506768916,0.01387024,0.00256348,-0.99365234,0.000000,0.183105,-0.244141
5511861458,0.01329041,0.00244141,-0.99375916,0.000000,0.183105,-0.244141
5516942833,0.01329041,0.00244141,-0.99375916,0.000000,0.061035,-0.183105
5519479208,0.01339722,0.00317383,-0.99464417,0.000000,0.061035,-0.183105
5527056833,0.01339722,0.00317383,-0.99464417,0.244141,0.122070,-0.183105
5529599250,0.01324463,0.00268555,-0.99414062,0.244141,0.122070,-0.183105
5537178708,0.01324463,0.00268555,-0.99414062,0.122070,0.183105,-0.183105
5539713000,0.01341248,0.00312805,-0.99435425,0.122070,0.183105,-0.183105
5547294791,0.01341248,0.00312805,-0.99435425,0.000000,0.244141,-0.061035
5549836250,0.01301575,0.00363159,-0.99511719,0.000000,0.244141,-0.061035
5557271125,0.01301575,0.00363159,-0.99511719,0.000000,0.183105,-0.183105
5559815958,0.01492310,0.00329590,-0.99423218,0.000000,0.183105,-0.183105
5567405125,0.01492310,0.00329590,-0.99423218,0.061035,0.244141,0.000000
5569951666,0.01432800,0.00370789,-0.99394226,0.061035,0.244141,0.000000
5577548916,0.01432800,0.00370789,-0.99394226,0.061035,0.183105,-0.183105
5580092666,0.01391602,0.00369263,-0.99446106,0.061035,0.183105,-0.183105
5587689500,0.01391602,0.00369263,-0.99446106,0.122070,0.183105,-0.122070
5590224416,0.01426697,0.00341797,-0.99436951,0.122070,0.183105,-0.122070
5597755708,0.01426697,0.00341797,-0.99436951,0.000000,0.122070,-0.061035
5600292875,0.01278687,0.00369263,-0.99444580,0.000000,0.122070,-0.061035
5607889250,0.01278687,0.00369263,-0.99444580,0.061035,0.244141,-0.183105
5610425250,0.01225281,0.00346375,-0.99392700,0.061035,0.244141,-0.183105
5615480875,0.01225281,0.00346375,-0.99392700,0.061035,0.305176,0.000000
5620543125,0.01316833,0.00352478,-0.99290466,0.061035,0.305176,0.000000
5625598875,0.01316833,0.00352478,-0.99290466,0.061035,0.122070,0.000000
5630664833,0.01371765,0.00259399,-0.99357605,0.061035,0.122070,0.000000
5635723833,0.01371765,0.00259399,-0.99357605,0.122070,0.183105,-0.061035
5640803708,0.01399231,0.00285339,-0.99526978,0.122070,0.183105,-0.061035
5645870541,0.01399231,0.00285339,-0.99526978,0.061035,0.183105,-0.122070
5650938375,0.01351929,0.00340271,-0.99453735,0.061035,0.183105,-0.122070
5656005333,0.01351929,0.00340271,-0.99453735,0.122070,0.183105,0.061035
5661078041,0.01417542,0.00326538,-0.99433899,0.122070,0.183105,0.061035
5666137083,0.01417542,0.00326538,-0.99433899,0.000000,0.061035,-0.183105
5671195625,0.01452637,0.00303650,-0.99407959,0.000000,0.061035,-0.183105
5676253000,0.01452637,0.00303650,-0.99407959,0.122070,0.183105,-0.183105
5681310000,0.01380920,0.00268555,-0.99281311,0.122070,0.183105,-0.183105
5686366166,0.01380920,0.00268555,-0.99281311,0.122070,0.244141,-0.061035
5691433875,0.01412964,0.00302124,-0.99446106,0.122070,0.244141,-0.061035
5696490708,0.01412964,0.00302124,-0.99446106,0.244141,0.061035,-0.183105
5701550791,0.01431274,0.00386047,-0.99655151,0.244141,0.061035,-0.183105
5706620250,0.01431274,0.00386047,-0.99655151,0.061035,0.305176,0.000000
5711694875,0.01264954,0.00405884,-0.99244690,0.061035,0.305176,0.000000
5716420333,0.01264954,0.00405884,-0.99244690,0.366211,0.061035,-0.061035
5721488791,0.01342773,0.00381470,-0.99490356,0.366211,0.061035,-0.061035
5726550125,0.01342773,0.00381470,-0.99490356,-0.122070,0.305176,-0.061035
5731607000,0.01284790,0.00424194,-0.99630737,-0.122070,0.305176,-0.061035
5736739000,0.01284790,0.00424194,-0.99630737,0.061035,0.183105,-0.061035
5741806625,0.01206970,0.00427246,-0.99363708,0.061035,0.183105,-0.061035
5746872666,0.01206970,0.00427246,-0.99363708,0.061035,0.305176,-0.122070
5751978875,0.01322937,0.00375366,-0.99166870,0.061035,0.305176,-0.122070
5757074125,0.01322937,0.00375366,-0.99166870,0.000000,0.366211,-0.061035
5759618083,0.01370239,0.00405884,-0.99487305,0.000000,0.366211,-0.061035
5767204750,0.01370239,0.00405884,-0.99487305,0.122070,0.305176,-0.122070
5769740958,0.01382446,0.00350952,-0.99333191,0.122070,0.305176,-0.122070
5777349708,0.01382446,0.00350952,-0.99333191,0.244141,0.244141,0.000000
5779894625,0.01374817,0.00325012,-0.99475098,0.244141,0.244141,0.000000
5787486916,0.01374817,0.00325012,-0.99475098,-0.549316,0.305176,-0.061035
5790031958,0.01405334,0.00210571,-0.99070740,-0.549316,0.305176,-0.061035
5797615458,0.01405334,0.00210571,-0.99070740,0.549316,0.183105,-0.061035
5800176833,0.01408386,0.00245667,-1.00456238,0.549316,0.183105,-0.061035
5807755375,0.01408386,0.00245667,-1.00456238,0.000000,0.244141,-0.122070
5810291666,0.01388550,0.00292969,-0.98191833,0.000000,0.244141,-0.122070
5817589666,0.01388550,0.00292969,-0.98191833,0.061035,0.244141,-0.183105
5820126583,0.01329041,0.00285339,-0.99812317,0.061035,0.244141,-0.183105
5827709083,0.01329041,0.00285339,-0.99812317,-0.061035,0.061035,-0.061035
5830244625,0.01356506,0.00259399,-0.99380493,-0.061035,0.061035,-0.061035
5837758041,0.01356506,0.00259399,-0.99380493,0.061035,0.183105,-0.061035
5840299125,0.01483154,0.00358582,-0.99639893,0.061035,0.183105,-0.061035
5847881250,0.01483154,0.00358582,-0.99639893,0.061035,0.244141,-0.183105
5850420833,0.01336670,0.00347900,-0.99357605,0.061035,0.244141,-0.183105
5858002291,0.01336670,0.00347900,-0.99357605,0.305176,0.122070,-0.061035
5860538250,0.01306152,0.00381470,-0.99313354,0.305176,0.122070,-0.061035
5868118916,0.01306152,0.00381470,-0.99313354,0.183105,0.183105,-0.183105
5870655750,0.01429749,0.00480652,-0.99449158,0.183105,0.183105,-0.183105
5878237458,0.01429749,0.00480652,-0.99449158,0.183105,0.183105,0.000000
5880778541,0.01409912,0.00416565,-0.99554443,0.183105,0.183105,0.000000
5888358583,0.01409912,0.00416565,-0.99554443,0.122070,0.183105,-0.122070
5890894250,0.01322937,0.00297546,-0.99356079,0.122070,0.183105,-0.122070
5898213750,0.01322937,0.00297546,-0.99356079,0.061035,0.305176,-0.061035
5900751500,0.01374817,0.00352478,-0.99360657,0.061035,0.305176,-0.061035
5908339625,0.01374817,0.00352478,-0.99360657,0.122070,0.244141,-0.061035
5910878083,0.01359558,0.00370789,-0.99424744,0.122070,0.244141,-0.061035
5918462250,0.01359558,0.00370789,-0.99424744,0.122070,0.122070,-0.061035
5921011125,0.01338196,0.00242615,-0.99444580,0.122070,0.122070,-0.061035
5928597791,0.01338196,0.00242615,-0.99444580,0.061035,0.183105,-0.183105
5931149791,0.01448059,0.00267029,-0.99461365,0.061035,0.183105,-0.183105
5938757375,0.01448059,0.00267029,-0.99461365,0.122070,0.244141,-0.061035
5941315375,0.01387024,0.00221252,-0.99406433,0.122070,0.244141,-0.061035
5946416500,0.01387024,0.00221252,-0.99406433,0.000000,0.244141,-0.061035
5951525958,0.01359558,0.00234985,-0.99394226,0.000000,0.244141,-0.061035
5956587041,0.01359558,0.00234985,-0.99394226,0.122070,0.244141,-0.183105
5961651083,0.01339722,0.00283813,-0.99411011,0.122070,0.244141,-0.183105
5966717375,0.01339722,0.00283813,-0.99411011,0.122070,0.244141,-0.122070
5971788083,0.01322937,0.00376892,-0.99438477,0.122070,0.244141,-0.122070
5976859250,0.01322937,0.00376892,-0.99438477,0.061035,0.244141,-0.122070
5981920291,0.01290894,0.00468445,-0.99420166,0.061035,0.244141,-0.122070
5986980208,0.01290894,0.00468445,-0.99420166,0.000000,0.244141,-0.122070
5992055875,0.01356506,0.00437927,-0.99349976,0.000000,0.244141,-0.122070
5997110291,0.01356506,0.00437927,-0.99349976,0.061035,0.305176,-0.061035
6001765875,0.01347351,0.00410461,-0.99337769,0.061035,0.305176,-0.061035
6006824083,0.01347351,0.00410461,-0.99337769,0.000000,0.183105,-0.061035
6011881208,0.01356506,0.00439453,-0.99424744,0.000000,0.183105,-0.061035
6016939125,0.01356506,0.00439453,-0.99424744,0.122070,0.122070,0.000000
6022008958,0.01502991,0.00354004,-0.99453735,0.122070,0.122070,0.000000
6027064833,0.01502991,0.00354004,-0.99453735,0.183105,0.305176,0.000000
6032129500,0.01397705,0.00340271,-0.99371338,0.183105,0.305176,0.000000
6037187541,0.01397705,0.00340271,-0.99371338,-0.061035,0.244141,-0.061035
6042259750,0.01359558,0.00360107,-0.99299622,-0.061035,0.244141,-0.061035
6047325625,0.01359558,0.00360107,-0.99299622,0.061035,0.061035,-0.183105
6052383916,0.01379395,0.00387573,-0.99378967,0.061035,0.061035,-0.183105
6057438708,0.01379395,0.00387573,-0.99378967,0.122070,0.244141,-0.183105
6062507708,0.01290894,0.00349426,-0.99377441,0.122070,0.244141,-0.183105
6067564500,0.01290894,0.00349426,-0.99377441,0.000000,0.366211,-0.061035
6072619708,0.01367188,0.00292969,-0.99389648,0.000000,0.366211,-0.061035
6077700708,0.01367188,0.00292969,-0.99389648,0.183105,0.183105,-0.122070
6082765833,0.01385498,0.00271606,-0.99398804,0.183105,0.183105,-0.122070
6087842666,0.01385498,0.00271606,-0.99398804,0.183105,0.183105,-0.061035
6092908708,0.01419067,0.00283813,-0.99411011,0.183105,0.183105,-0.061035
6097970875,0.01419067,0.00283813,-0.99411011,0.061035,0.244141,-0.244141
6102791291,0.01344299,0.00260925,-0.99275208,0.061035,0.244141,-0.244141
6107894416,0.01344299,0.00260925,-0.99275208,0.122070,0.122070,-0.061035
6112975166,0.01344299,0.00241089,-0.99336243,0.122070,0.122070,-0.061035
6118033000,0.01344299,0.00241089,-0.99336243,0.122070,0.122070,-0.244141
6120567875,0.01258850,0.00299072,-0.99395752,0.122070,0.122070,-0.244141
6128158958,0.01258850,0.00299072,-0.99395752,0.000000,0.183105,-0.244141
6130692750,0.01365662,0.00289917,-0.99363708,0.000000,0.183105,-0.244141
6138269666,0.01365662,0.00289917,-0.99363708,0.122070,0.305176,-0.061035
6140803666,0.01258850,0.00323486,-0.99417114,0.122070,0.305176,-0.061035
6148388125,0.01258850,0.00323486,-0.99417114,0.061035,0.122070,-0.122070
6150935958,0.01327515,0.00439453,-0.99308777,0.061035,0.122070,-0.122070
6158513708,0.01327515,0.00439453,-0.99308777,0.000000,0.244141,-0.183105
6161070333,0.01426697,0.00434875,-0.99456787,0.000000,0.244141,-0.183105
6168717708,0.01426697,0.00434875,-0.99456787,0.122070,0.244141,-0.061035
6171266875,0.01339722,0.00454712,-0.99426270,0.122070,0.244141,-0.061035
6178847291,0.01339722,0.00454712,-0.99426270,0.000000,0.000000,-0.122070
6181388791,0.01356506,0.00396729,-0.99394226,0.000000,0.000000,-0.122070
6188983041,0.01356506,0.00396729,-0.99394226,0.122070,0.183105,0.000000
6191590666,0.01431274,0.00421143,-0.99371338,0.122070,0.183105,0.000000
6199176041,0.01431274,0.00421143,-0.99371338,0.061035,0.183105,-0.061035
6201712541,0.01370239,0.00384521,-0.99438477,0.061035,0.183105,-0.061035
6206799250,0.01370239,0.00384521,-0.99438477,-0.061035,0.244141,-0.122070
6211875666,0.01268005,0.00228882,-0.99348450,-0.061035,0.244141,-0.122070
6216911000,0.01268005,0.00228882,-0.99348450,-0.183105,0.061035,-0.244141
6222006875,0.01335144,0.00276184,-0.99441528,-0.183105,0.061035,-0.244141
6227070541,0.01335144,0.00276184,-0.99441528,0.061035,0.244141,-0.061035
6232126625,0.01484680,0.00259399,-0.99449158,0.061035,0.244141,-0.061035
6237185666,0.01484680,0.00259399,-0.99449158,0.061035,0.183105,-0.061035
6242247500,0.01425171,0.00241089,-0.99418640,0.061035,0.183105,-0.061035
6247306166,0.01425171,0.00241089,-0.99418640,0.122070,0.244141,-0.061035
6252366041,0.01339722,0.00212097,-0.99426270,0.122070,0.244141,-0.061035
6257453208,0.01339722,0.00212097,-0.99426270,0.183105,0.305176,-0.061035
6262521041,0.01435852,0.00338745,-0.99400330,0.183105,0.305176,-0.061035
6267589916,0.01435852,0.00338745,-0.99400330,0.122070,0.183105,-0.183105
6272646333,0.01425171,0.00234985,-0.99415588,0.122070,0.183105,-0.183105
6277710541,0.01425171,0.00234985,-0.99415588,0.122070,0.183105,-0.122070
6282767541,0.01303101,0.00303650,-0.99389648,0.122070,0.183105,-0.122070
6287824875,0.01303101,0.00303650,-0.99389648,0.122070,0.183105,-0.122070
6292884208,0.01162720,0.00350952,-0.99383545,0.122070,0.183105,-0.122070
6297954250,0.01162720,0.00350952,-0.99383545,0.122070,0.061035,-0.122070
6303025750,0.01206970,0.00447083,-0.99375916,0.122070,0.061035,-0.122070
6308087250,0.01206970,0.00447083,-0.99375916,0.183105,0.305176,-0.122070
6313156583,0.01306152,0.00364685,-0.99459839,0.183105,0.305176,-0.122070
6318231541,0.01306152,0.00364685,-0.99459839,0.061035,0.183105,-0.183105
6323315125,0.01370239,0.00415039,-0.99385071,0.061035,0.183105,-0.183105
6328413833,0.01370239,0.00415039,-0.99385071,0.061035,0.122070,-0.122070
6330956125,0.01383972,0.00405884,-0.99353027,0.061035,0.122070,-0.122070
6338537750,0.01383972,0.00405884,-0.99353027,-0.061035,0.183105,-0.122070
6341071458,0.01408386,0.00381470,-0.99443054,-0.061035,0.183105,-0.122070
6348661833,0.01408386,0.00381470,-0.99443054,0.732422,0.061035,-0.061035
6351201333,0.01473999,0.00329590,-0.99958801,0.732422,0.061035,-0.061035
6358812416,0.01473999,0.00329590,-0.99958801,-0.427246,0.244141,-0.122070
6361352958,0.01336670,0.00294495,-0.98243713,-0.427246,0.244141,-0.122070
6368570208,0.01336670,0.00294495,-0.98243713,0.122070,0.183105,-0.183105
6373635750,0.01254272,0.00163269,-1.00929260,0.122070,0.183105,-0.183105
6378701875,0.01254272,0.00163269,-1.00929260,-0.061035,0.366211,-0.122070
6383802458,0.01368713,0.00250244,-0.98483276,-0.061035,0.366211,-0.122070
6388869291,0.01368713,0.00250244,-0.98483276,-0.061035,0.183105,-0.244141
6391444541,0.01228333,0.00349426,-0.99728394,-0.061035,0.183105,-0.244141
6398933708,0.01228333,0.00349426,-0.99728394,0.183105,0.244141,-0.061035
6403680000,0.01306152,0.00335693,-0.99090576,0.183105,0.244141,-0.061035
6408742708,0.01306152,0.00335693,-0.99090576,0.061035,0.183105,-0.122070
6413808041,0.01287842,0.00341797,-0.99327087,0.061035,0.183105,-0.122070
6418883250,0.01287842,0.00341797,-0.99327087,0.122070,0.183105,-0.061035
6421421625,0.01243591,0.00361633,-0.99272156,0.122070,0.183105,-0.061035
6429016875,0.01243591,0.00361633,-0.99272156,0.183105,0.122070,-0.061035
6431565583,0.01406860,0.00405884,-0.99220276,0.183105,0.122070,-0.061035
6439152125,0.01406860,0.00405884,-0.99220276,-0.305176,0.427246,-0.122070
6443735541,0.01483154,0.00276184,-0.99230957,-0.305176,0.427246,-0.122070
6448794416,0.01483154,0.00276184,-0.99230957,0.488281,0.061035,-0.061035
6453856500,0.01454163,0.00361633,-1.00248718,0.488281,0.061035,-0.061035
6458942166,0.01454163,0.00361633,-1.00248718,0.000000,0.244141,-0.061035
6461477875,0.01397705,0.00389099,-0.98597717,0.000000,0.244141,-0.061035
6469074958,0.01397705,0.00389099,-0.98597717,-0.122070,0.244141,-0.122070
6471620083,0.01275635,0.00332642,-0.99540710,-0.122070,0.244141,-0.122070
6479215041,0.01275635,0.00332642,-0.99540710,0.122070,0.244141,-0.061035
6481755125,0.01345825,0.00334167,-0.99438477,0.122070,0.244141,-0.061035
6489336166,0.01345825,0.00334167,-0.99438477,0.000000,0.244141,-0.061035
6491876166,0.01312256,0.00373840,-0.99484253,0.000000,0.244141,-0.061035
6499454291,0.01312256,0.00373840,-0.99484253,0.000000,0.244141,-0.122070
6501989458,0.01391602,0.00279236,-0.99261475,0.000000,0.244141,-0.122070
6509565041,0.01391602,0.00279236,-0.99261475,0.122070,0.305176,-0.061035
6512099833,0.01405334,0.00309753,-0.99284363,0.122070,0.305176,-0.061035
6519685250,0.01405334,0.00309753,-0.99284363,0.122070,0.122070,-0.061035
6522229875,0.01412964,0.00268555,-0.99406433,0.122070,0.122070,-0.061035
6529804916,0.01412964,0.00268555,-0.99406433,-0.061035,0.366211,-0.122070
6532339958,0.01425171,0.00347900,-0.99559021,-0.061035,0.366211,-0.122070
6539929541,0.01425171,0.00347900,-0.99559021,0.000000,0.183105,-0.061035
6542478041,0.01385498,0.00338745,-0.99433899,0.000000,0.183105,-0.061035
6547565625,0.01385498,0.00338745,-0.99433899,0.183105,0.183105,-0.122070
6552632333,0.01275635,0.00325012,-0.99377441,0.183105,0.183105,-0.122070
6557695750,0.01275635,0.00325012,-0.99377441,0.061035,0.183105,-0.244141
6562770208,0.01437378,0.00350952,-0.99327087,0.061035,0.183105,-0.244141
6567827750,0.01437378,0.00350952,-0.99327087,0.183105,0.305176,0.000000
6572905458,0.01345825,0.00395203,-0.99452209,0.183105,0.305176,0.000000
6577971833,0.01345825,0.00395203,-0.99452209,0.000000,0.122070,-0.122070
6583047000,0.01338196,0.00360107,-0.99369812,0.000000,0.122070,-0.122070
6588113708,0.01338196,0.00360107,-0.99369812,0.061035,0.061035,-0.122070
6593156083,0.01408386,0.00502014,-0.99520874,0.061035,0.061035,-0.122070
6598217166,0.01408386,0.00502014,-0.99520874,0.061035,0.183105,-0.183105
6603296750,0.01457214,0.00419617,-0.99438477,0.061035,0.183105,-0.183105
6608358750,0.01457214,0.00419617,-0.99438477,0.183105,0.061035,-0.061035
6613435708,0.01451111,0.00390625,-0.99365234,0.183105,0.061035,-0.061035
6618506291,0.01451111,0.00390625,-0.99365234,0.122070,0.122070,-0.122070
6623574500,0.01416016,0.00384521,-0.99298096,0.122070,0.122070,-0.122070
6628652750,0.01416016,0.00384521,-0.99298096,0.122070,0.122070,-0.122070
6633713500,0.01396179,0.00395203,-0.99301147,0.122070,0.122070,-0.122070
6638771750,0.01396179,0.00395203,-0.99301147,-0.061035,0.305176,-0.122070
6643830333,0.01338196,0.00331116,-0.99435425,-0.061035,0.305176,-0.122070
6648897583,0.01338196,0.00331116,-0.99435425,0.061035,0.183105,-0.244141
6653954708,0.01179504,0.00299072,-0.99351501,0.061035,0.183105,-0.244141
6659052958,0.01179504,0.00299072,-0.99351501,0.122070,0.061035,-0.061035
6661621041,0.01235962,0.00309753,-0.99308777,0.122070,0.061035,-0.061035
6669204125,0.01235962,0.00309753,-0.99308777,-0.061035,0.244141,-0.183105
6671738916,0.01296997,0.00318909,-0.99301147,-0.061035,0.244141,-0.183105
6679320250,0.01296997,0.00318909,-0.99301147,0.000000,0.122070,-0.061035
6681870916,0.01367188,0.00199890,-0.99299622,0.000000,0.122070,-0.061035
6689466000,0.01367188,0.00199890,-0.99299622,0.061035,0.122070,-0.061035
6692003041,0.01370239,0.00282288,-0.99311829,0.061035,0.122070,-0.061035
6699597250,0.01370239,0.00282288,-0.99311829,0.122070,0.122070,-0.061035
6702131916,0.01414490,0.00392151,-0.99415588,0.122070,0.122070,-0.061035
6709718875,0.01414490,0.00392151,-0.99415588,0.061035,0.183105,-0.122070
6712258625,0.01515198,0.00378418,-0.99441528,0.061035,0.183105,-0.122070
6719852750,0.01515198,0.00378418,-0.99441528,0.000000,0.183105,-0.061035
6722391750,0.01397705,0.00373840,-0.99478149,0.000000,0.183105,-0.061035
6729983541,0.01397705,0.00373840,-0.99478149,-0.061035,0.183105,-0.122070
6732519625,0.01367188,0.00338745,-0.99385071,-0.061035,0.183105,-0.122070
6740103458,0.01367188,0.00338745,-0.99385071,0.000000,0.122070,-0.122070
6742637500,0.01400757,0.00395203,-0.99385071,0.000000,0.122070,-0.122070
6750251208,0.01400757,0.00395203,-0.99385071,0.000000,0.061035,-0.122070
6752796000,0.01303101,0.00352478,-0.99394226,0.000000,0.061035,-0.122070
6760377416,0.01303101,0.00352478,-0.99394226,0.061035,0.122070,-0.122070
6762913250,0.01464844,0.00407410,-0.99316406,0.061035,0.122070,-0.122070
6770526416,0.01464844,0.00407410,-0.99316406,0.122070,0.183105,-0.122070
6773071625,0.01393127,0.00352478,-0.99365234,0.122070,0.183105,-0.122070
6780680500,0.01393127,0.00352478,-0.99365234,0.061035,0.244141,-0.244141
6783217083,0.01324463,0.00393677,-0.99443054,0.061035,0.244141,-0.244141
6790799291,0.01324463,0.00393677,-0.99443054,0.122070,0.183105,-0.183105
6793334916,0.01258850,0.00331116,-0.99441528,0.122070,0.183105,-0.183105
6800927041,0.01258850,0.00331116,-0.99441528,0.061035,0.244141,-0.183105
6803461375,0.01428223,0.00338745,-0.99366760,0.061035,0.244141,-0.183105
6808533458,0.01428223,0.00338745,-0.99366760,0.061035,0.183105,-0.061035
6813599958,0.01385498,0.00354004,-0.99417114,0.061035,0.183105,-0.061035
6818685833,0.01385498,0.00354004,-0.99417114,0.061035,0.122070,-0.183105
6823745333,0.01383972,0.00354004,-0.99336243,0.061035,0.122070,-0.183105
6828803333,0.01383972,0.00354004,-0.99336243,0.000000,0.305176,-0.061035
6833861166,0.01388550,0.00286865,-0.99414062,0.000000,0.305176,-0.061035
6838857750,0.01388550,0.00286865,-0.99414062,0.061035,0.183105,-0.122070
6843915208,0.01272583,0.00251770,-0.99429321,0.061035,0.183105,-0.122070
6849001125,0.01272583,0.00251770,-0.99429321,0.061035,0.305176,-0.122070
6854098833,0.01271057,0.00344849,-0.99409485,0.061035,0.305176,-0.122070
6859159250,0.01271057,0.00344849,-0.99409485,0.061035,0.183105,-0.183105
6864219916,0.01322937,0.00401306,-0.99369812,0.061035,0.183105,-0.183105
6869290958,0.01322937,0.00401306,-0.99369812,0.000000,0.122070,-0.122070
6874376583,0.01315308,0.00372314,-0.99386597,0.000000,0.122070,-0.122070
6879455416,0.01315308,0.00372314,-0.99386597,0.000000,0.183105,-0.122070
6884548041,0.01361084,0.00300598,-0.99426270,0.000000,0.183105,-0.122070
6889613208,0.01361084,0.00300598,-0.99426270,0.061035,0.244141,-0.244141
6894672875,0.01278687,0.00326538,-0.99302673,0.061035,0.244141,-0.244141
6899734041,0.01278687,0.00326538,-0.99302673,0.061035,0.183105,-0.122070
6904798708,0.01303101,0.00305176,-0.99440002,0.061035,0.183105,-0.122070
6909857500,0.01303101,0.00305176,-0.99440002,0.122070,0.183105,-0.122070
6914927458,0.01257324,0.00296021,-0.99452209,0.122070,0.183105,-0.122070
6920002250,0.01257324,0.00296021,-0.99452209,0.000000,0.244141,-0.061035
6922537375,0.01368713,0.00370789,-0.99510193,0.000000,0.244141,-0.061035
6930123500,0.01368713,0.00370789,-0.99510193,0.061035,0.122070,-0.183105
6932659750,0.01470947,0.00289917,-0.99461365,0.061035,0.122070,-0.183105
6940264833,0.01470947,0.00289917,-0.99461365,0.183105,0.244141,-0.122070
6942801250,0.01280212,0.00260925,-0.99484253,0.183105,0.244141,-0.122070
6950382791,0.01280212,0.00260925,-0.99484253,0.061035,0.244141,-0.122070
6952917625,0.01255798,0.00292969,-0.99382019,0.061035,0.244141,-0.122070
6960512541,0.01255798,0.00292969,-0.99382019,0.061035,0.122070,0.000000
6963053166,0.01405334,0.00263977,-0.99409485,0.061035,0.122070,0.000000
6970643916,0.01405334,0.00263977,-0.99409485,0.183105,0.183105,-0.061035
6973179791,0.01396179,0.00210571,-0.99343872,0.183105,0.183105,-0.061035
6980761708,0.01396179,0.00210571,-0.99343872,0.183105,0.183105,-0.061035
6983297750,0.01327515,0.00337219,-0.99333191,0.183105,0.183105,-0.061035
6990872500,0.01327515,0.00337219,-0.99333191,0.000000,0.244141,-0.061035
6993408375,0.01367188,0.00347900,-0.99508667,0.000000,0.244141,-0.061035
7001034541,0.01367188,0.00347900,-0.99508667,0.183105,0.122070,-0.122070
7003603625,0.01315308,0.00473022,-0.99719238,0.183105,0.122070,-0.122070
7008666625,0.01315308,0.00473022,-0.99719238,-0.061035,0.427246,0.000000
7013731791,0.01333618,0.00456238,-0.98939514,-0.061035,0.427246,0.000000
7021049125,0.01333618,0.00456238,-0.98939514,0.366211,0.000000,-0.183105
7023655250,0.01350403,0.00393677,-0.99678040,0.366211,0.000000,-0.183105
7028738541,0.01350403,0.00393677,-0.99678040,-0.061035,0.183105,-0.061035
7033817291,0.01348877,0.00315857,-0.99661255,-0.061035,0.183105,-0.061035
7038889541,0.01348877,0.00315857,-0.99661255,-0.061035,0.122070,-0.061035
7043979916,0.01362610,0.00476074,-0.99464417,-0.061035,0.122070,-0.061035
7049074208,0.01362610,0.00476074,-0.99464417,0.000000,0.244141,-0.183105
7054143875,0.01277161,0.00382996,-0.99169922,0.000000,0.244141,-0.183105
7059203541,0.01277161,0.00382996,-0.99169922,0.061035,0.305176,-0.061035
7064277041,0.01283264,0.00398254,-0.99307251,0.061035,0.305176,-0.061035
7069356541,0.01283264,0.00398254,-0.99307251,0.183105,0.244141,0.000000
7074066958,0.01419067,0.00354004,-0.99388123,0.183105,0.244141,0.000000
7079140000,0.01419067,0.00354004,-0.99388123,-0.488281,0.427246,-0.061035
7084202708,0.01402283,0.00331116,-0.99176025,-0.488281,0.427246,-0.061035
7089259666,0.01402283,0.00331116,-0.99176025,0.305176,0.000000,-0.061035
7094316583,0.01367188,0.00230408,-1.00344849,0.305176,0.000000,-0.061035
7099375333,0.01367188,0.00230408,-1.00344849,0.183105,0.366211,0.000000
7104441333,0.01359558,0.00308228,-0.98284912,0.183105,0.366211,0.000000
7109504291,0.01359558,0.00308228,-0.98284912,0.061035,0.244141,-0.061035
7114560833,0.01412964,0.00230408,-0.99801636,0.061035,0.244141,-0.061035
7119622791,0.01412964,0.00230408,-0.99801636,0.061035,0.122070,-0.122070
7124681666,0.01371765,0.00207520,-0.99404907,0.061035,0.122070,-0.122070
7129738625,0.01371765,0.00207520,-0.99404907,0.061035,0.122070,-0.122070
7134795166,0.01467896,0.00318909,-0.99377441,0.061035,0.122070,-0.122070
7139859000,0.01467896,0.00318909,-0.99377441,0.122070,0.366211,-0.122070
7144922791,0.01457214,0.00364685,-0.99250793,0.122070,0.366211,-0.122070
7149994708,0.01457214,0.00364685,-0.99250793,0.061035,0.244141,-0.244141
7155107250,0.01373291,0.00357056,-0.99244690,0.061035,0.244141,-0.244141
7160230250,0.01373291,0.00357056,-0.99244690,0.061035,0.122070,-0.244141
7162765166,0.01371765,0.00440979,-0.99386597,0.061035,0.122070,-0.244141
7170372541,0.01371765,0.00440979,-0.99386597,0.061035,0.305176,-0.061035
7172946750,0.01368713,0.00437927,-0.99400330,0.061035,0.305176,-0.061035
7180541166,0.01368713,0.00437927,-0.99400330,0.000000,0.244141,-0.061035
7183083000,0.01202393,0.00408936,-0.99397278,0.000000,0.244141,-0.061035
7190682125,0.01202393,0.00408936,-0.99397278,0.000000,0.183105,-0.061035
7193224708,0.01295471,0.00422668,-0.99357605,0.000000,0.183105,-0.061035
7200704250,0.01295471,0.00422668,-0.99357605,0.061035,0.122070,-0.061035
7203246458,0.01377869,0.00390625,-0.99502563,0.061035,0.122070,-0.061035
7210838125,0.01377869,0.00390625,-0.99502563,0.000000,0.183105,-0.061035
7213377500,0.01351929,0.00335693,-0.99525452,0.000000,0.183105,-0.061035
7221021583,0.01351929,0.00335693,-0.99525452,0.000000,0.244141,-0.183105
7223560541,0.01336670,0.00263977,-0.99380493,0.000000,0.244141,-0.183105
7231008750,0.01336670,0.00263977,-0.99380493,0.183105,0.183105,-0.061035
7233547500,0.01325989,0.00257874,-0.99362183,0.183105,0.183105,-0.061035
7241125333,0.01325989,0.00257874,-0.99362183,-0.122070,0.183105,-0.122070
7243660708,0.01419067,0.00276184,-0.99241638,-0.122070,0.183105,-0.122070
7251238125,0.01419067,0.00276184,-0.99241638,0.000000,0.244141,-0.183105
7253777458,0.01431274,0.00222778,-0.99272156,0.000000,0.244141,-0.183105
7261356000,0.01431274,0.00222778,-0.99272156,0.061035,0.122070,-0.183105
7263890750,0.01347351,0.00360107,-0.99406433,0.061035,0.122070,-0.183105
7271487625,0.01347351,0.00360107,-0.99406433,0.183105,0.183105,-0.305176
7274022458,0.01362610,0.00399780,-0.99528503,0.183105,0.183105,-0.305176
7281361250,0.01362610,0.00399780,-0.99528503,-0.061035,0.244141,-0.122070
7283901708,0.01271057,0.00367737,-0.99412537,-0.061035,0.244141,-0.122070
7291478291,0.01271057,0.00367737,-0.99412537,0.122070,0.366211,-0.061035
7294022000,0.01293945,0.00340271,-0.99417114,0.122070,0.366211,-0.061035
7301614000,0.01293945,0.00340271,-0.99417114,0.000000,0.305176,-0.122070
7304149291,0.01332092,0.00309753,-0.99349976,0.000000,0.305176,-0.122070
7311763583,0.01332092,0.00309753,-0.99349976,0.122070,0.183105,-0.244141
7314312083,0.01335144,0.00347900,-0.99328613,0.122070,0.183105,-0.244141
7321926875,0.01335144,0.00347900,-0.99328613,0.061035,0.244141,-0.183105
7324468708,0.01383972,0.00358582,-0.99360657,0.061035,0.244141,-0.183105
7329530500,0.01383972,0.00358582,-0.99360657,0.183105,0.122070,-0.183105
7334591291,0.01364136,0.00401306,-0.99453735,0.183105,0.122070,-0.183105
7339714333,0.01364136,0.00401306,-0.99453735,0.000000,0.122070,-0.061035
7344776583,0.01437378,0.00424194,-0.99461365,0.000000,0.122070,-0.061035
7349839416,0.01437378,0.00424194,-0.99461365,0.061035,0.122070,-0.061035
7354897833,0.01393127,0.00347900,-0.99433899,0.061035,0.122070,-0.061035
7359958416,0.01393127,0.00347900,-0.99433899,0.183105,0.244141,0.000000
7365041375,0.01411438,0.00277710,-0.99525452,0.183105,0.244141,0.000000
7370109125,0.01411438,0.00277710,-0.99525452,0.000000,0.305176,-0.061035
7375179708,0.01356506,0.00236511,-0.99337769,0.000000,0.305176,-0.061035
7380242875,0.01356506,0.00236511,-0.99337769,0.244141,0.244141,0.000000
7385310666,0.01289368,0.00276184,-0.99400330,0.244141,0.244141,0.000000
7390372250,0.01289368,0.00276184,-0.99400330,0.122070,0.183105,-0.122070
7395430041,0.01312256,0.00276184,-0.99374390,0.122070,0.183105,-0.122070
7400492208,0.01312256,0.00276184,-0.99374390,0.061035,0.122070,-0.122070
7405177916,0.01359558,0.00183105,-0.99365234,0.061035,0.122070,-0.122070
7410237125,0.01359558,0.00183105,-0.99365234,0.061035,0.183105,-0.061035
7415294625,0.01348877,0.00213623,-0.99433899,0.061035,0.183105,-0.061035
7419953625,0.01348877,0.00213623,-0.99433899,0.061035,0.183105,-0.061035
7425022833,0.01388550,0.00299072,-0.99375916,0.061035,0.183105,-0.061035
7430089916,0.01388550,0.00299072,-0.99375916,0.244141,0.244141,-0.061035
7435150458,0.01362610,0.00283813,-0.99429321,0.244141,0.244141,-0.061035
7440209958,0.01362610,0.00283813,-0.99429321,0.000000,0.244141,-0.183105
7445277416,0.01315308,0.00343323,-0.99385071,0.000000,0.244141,-0.183105
7450340333,0.01315308,0.00343323,-0.99385071,0.000000,0.122070,-0.122070
7455401208,0.01284790,0.00410461,-0.99411011,0.000000,0.122070,-0.122070
7460460375,0.01284790,0.00410461,-0.99411011,0.061035,0.183105,-0.122070
7465528000,0.01385498,0.00450134,-0.99395752,0.061035,0.183105,-0.122070
7470599708,0.01385498,0.00450134,-0.99395752,0.000000,0.183105,0.000000
7475659791,0.01409912,0.00463867,-0.99452209,0.000000,0.183105,0.000000
7480772875,0.01409912,0.00463867,-0.99452209,-0.061035,0.000000,-0.061035
7485834541,0.01489258,0.00430298,-0.99424744,-0.061035,0.000000,-0.061035
7490904208,0.01489258,0.00430298,-0.99424744,0.122070,0.244141,-0.061035
7495994750,0.01358032,0.00355530,-0.99383545,0.122070,0.244141,-0.061035
7501055166,0.01358032,0.00355530,-0.99383545,0.061035,0.183105,-0.183105
7503591708,0.01382446,0.00262451,-0.99385071,0.061035,0.183105,-0.183105
7511174958,0.01382446,0.00262451,-0.99385071,0.122070,0.061035,-0.061035
7513715000,0.01365662,0.00213623,-0.99401855,0.122070,0.061035,-0.061035
7521343333,0.01365662,0.00213623,-0.99401855,0.122070,0.244141,-0.183105
7523888708,0.01440430,0.00315857,-0.99479675,0.122070,0.244141,-0.183105
7531471541,0.01440430,0.00315857,-0.99479675,0.122070,0.244141,-0.183105
7534009625,0.01455688,0.00209045,-0.99488831,0.122070,0.244141,-0.183105
7541598458,0.01455688,0.00209045,-0.99488831,0.183105,0.183105,-0.122070
7544134458,0.01350403,0.00250244,-0.99346924,0.183105,0.183105,-0.122070
7551716583,0.01350403,0.00250244,-0.99346924,0.122070,0.244141,-0.122070
7554253166,0.01336670,0.00297546,-0.99246216,0.122070,0.244141,-0.122070
7561847291,0.01336670,0.00297546,-0.99246216,0.061035,0.244141,-0.183105
7564385291,0.01341248,0.00268555,-0.99374390,0.061035,0.244141,-0.183105
7571978500,0.01341248,0.00268555,-0.99374390,0.122070,0.305176,-0.061035
7574516625,0.01316833,0.00323486,-0.99411011,0.122070,0.305176,-0.061035
7582104708,0.01316833,0.00323486,-0.99411011,-0.061035,0.366211,-0.061035
7584573583,0.01304626,0.00442505,-0.99444580,-0.061035,0.366211,-0.061035
7592151541,0.01304626,0.00442505,-0.99444580,0.000000,0.183105,0.000000
7594694333,0.01434326,0.00468445,-0.99397278,0.000000,0.183105,0.000000
7602286750,0.01434326,0.00468445,-0.99397278,0.122070,0.244141,-0.122070
7604822416,0.01338196,0.00369263,-0.99354553,0.122070,0.244141,-0.122070
7612476833,0.01338196,0.00369263,-0.99354553,0.000000,0.061035,0.000000
7615018375,0.01390076,0.00370789,-0.99415588,0.000000,0.061035,0.000000
7622598875,0.01390076,0.00370789,-0.99415588,0.122070,0.122070,-0.244141
7625142666,0.01434326,0.00361633,-0.99157715,0.122070,0.122070,-0.244141
7632723166,0.01434326,0.00361633,-0.99157715,0.183105,0.061035,-0.122070
7635266166,0.01335144,0.00317383,-0.99401855,0.183105,0.061035,-0.122070
7642859541,0.01335144,0.00317383,-0.99401855,-0.183105,0.183105,-0.122070
7645400416,0.01440430,0.00370789,-0.99421692,-0.183105,0.183105,-0.122070
7650465333,0.01440430,0.00370789,-0.99421692,0.793457,0.061035,-0.183105
7655530583,0.01339722,0.00360107,-0.99981689,0.793457,0.061035,-0.183105
7660604166,0.01339722,0.00360107,-0.99981689,-0.366211,0.244141,-0.183105
7665694291,0.01307678,0.00326538,-0.98013306,-0.366211,0.244141,-0.183105
7670761916,0.01307678,0.00326538,-0.98013306,-0.061035,0.244141,-0.183105
7675822791,0.01223755,0.00329590,-1.01173401,-0.061035,0.244141,-0.183105
7680890875,0.01223755,0.00329590,-1.01173401,0.000000,0.183105,-0.122070
7685970208,0.01335144,0.00309753,-0.98533630,0.000000,0.183105,-0.122070
7691029875,0.01335144,0.00309753,-0.98533630,0.122070,0.183105,-0.122070
7696088750,0.01408386,0.00320435,-0.99896240,0.122070,0.183105,-0.122070
7701160916,0.01408386,0.00320435,-0.99896240,0.000000,0.183105,-0.061035
7706226125,0.01380920,0.00422668,-0.99093628,0.000000,0.183105,-0.061035
7711287875,0.01380920,0.00422668,-0.99093628,-0.061035,0.183105,-0.183105
7716360416,0.01330566,0.00354004,-0.99440002,-0.061035,0.183105,-0.183105
7721430458,0.01330566,0.00354004,-0.99440002,0.000000,0.183105,-0.122070
7726519500,0.01383972,0.00296021,-0.99386597,0.000000,0.183105,-0.122070
7731614125,0.01383972,0.00296021,-0.99386597,0.000000,0.183105,-0.122070
7736689708,0.01417542,0.00247192,-0.99382019,0.000000,0.183105,-0.122070
7741760541,0.01417542,0.00247192,-0.99382019,0.000000,0.244141,-0.122070
7746848708,0.01445007,0.00303650,-0.99324036,0.000000,0.244141,-0.122070
7751943041,0.01445007,0.00303650,-0.99324036,0.000000,0.122070,0.000000
7754482541,0.01464844,0.00212097,-0.99627686,0.000000,0.122070,0.000000
7762103708,0.01464844,0.00212097,-0.99627686,0.122070,0.366211,-0.061035
7764656125,0.01278687,0.00288391,-0.99732971,0.122070,0.366211,-0.061035
7772245458,0.01278687,0.00288391,-0.99732971,0.122070,0.244141,0.000000
7774791041,0.01303101,0.00372314,-0.98681641,0.122070,0.244141,0.000000
7782375000,0.01303101,0.00372314,-0.98681641,-0.061035,0.122070,0.000000
7784911083,0.01336670,0.00288391,-0.99682617,-0.061035,0.122070,0.000000
7792489000,0.01336670,0.00288391,-0.99682617,0.000000,0.122070,-0.183105
7795032083,0.01300049,0.00321960,-0.99549866,0.000000,0.122070,-0.183105
7802626750,0.01300049,0.00321960,-0.99549866,0.000000,0.122070,0.000000
7805166416,0.01330566,0.00346375,-0.99475098,0.000000,0.122070,0.000000
7812757666,0.01330566,0.00346375,-0.99475098,0.061035,0.244141,-0.183105
7815308250,0.01354980,0.00346375,-0.99266052,0.061035,0.244141,-0.183105
7820410666,0.01354980,0.00346375,-0.99266052,0.305176,0.244141,-0.061035
7825484625,0.01409912,0.00364685,-0.99443054,0.305176,0.244141,-0.061035
7830489541,0.01409912,0.00364685,-0.99443054,0.061035,0.244141,-0.061035
7835556958,0.01361084,0.00323486,-0.99510193,0.061035,0.244141,-0.061035
7840617666,0.01361084,0.00323486,-0.99510193,0.061035,0.183105,-0.122070
7845678791,0.01313782,0.00289917,-0.99388123,0.061035,0.183105,-0.122070
7850737458,0.01313782,0.00289917,-0.99388123,0.061035,0.183105,-0.183105
7855795625,0.01373291,0.00386047,-0.99412537,0.061035,0.183105,-0.183105
7860901791,0.01373291,0.00386047,-0.99412537,0.061035,0.244141,-0.183105
7865978250,0.01416016,0.00379944,-0.99440002,0.061035,0.244141,-0.183105
7871048250,0.01416016,0.00379944,-0.99440002,0.000000,0.183105,-0.061035
7876105708,0.01425171,0.00291443,-0.99543762,0.000000,0.183105,-0.061035
7881164000,0.01425171,0.00291443,-0.99543762,0.122070,0.183105,-0.122070
7886222541,0.01426697,0.00317383,-0.99386597,0.122070,0.183105,-0.122070
7891285875,0.01426697,0.00317383,-0.99386597,0.122070,0.183105,-0.122070
7896344250,0.01434326,0.00370789,-0.99411011,0.122070,0.183105,-0.122070
7901411833,0.01434326,0.00370789,-0.99411011,0.061035,0.244141,-0.061035
7906472750,0.01409912,0.00402832,-0.99404907,0.061035,0.244141,-0.061035
7911532875,0.01409912,0.00402832,-0.99404907,0.122070,0.122070,-0.122070
7916599333,0.01364136,0.00373840,-0.99429321,0.122070,0.122070,-0.122070
7921725708,0.01364136,0.00373840,-0.99429321,0.061035,0.183105,-0.061035
7926791416,0.01403809,0.00381470,-0.99354553,0.061035,0.183105,-0.061035
7931845958,0.01403809,0.00381470,-0.99354553,0.122070,0.305176,-0.122070
7936913541,0.01350403,0.00424194,-0.99369812,0.122070,0.305176,-0.122070
7941579625,0.01350403,0.00424194,-0.99369812,0.000000,0.305176,-0.122070
7946652708,0.01324463,0.00283813,-0.99359131,0.000000,0.305176,-0.122070
7951714666,0.01324463,0.00283813,-0.99359131,0.000000,0.244141,-0.244141
7956773666,0.01435852,0.00325012,-0.99380493,0.000000,0.244141,-0.244141
7961832250,0.01435852,0.00325012,-0.99380493,0.061035,0.122070,-0.122070
7966886875,0.01358032,0.00410461,-0.99363708,0.061035,0.122070,-0.122070
7971967625,0.01358032,0.00410461,-0.99363708,0.122070,0.061035,-0.122070
7974506500,0.01304626,0.00398254,-0.99334717,0.122070,0.061035,-0.122070
7982113250,0.01304626,0.00398254,-0.99334717,0.122070,0.244141,-0.061035
7984648583,0.01338196,0.00332642,-0.99438477,0.122070,0.244141,-0.061035
7992228958,0.01338196,0.00332642,-0.99438477,0.000000,0.183105,-0.122070
7994776708,0.01350403,0.00311279,-0.99407959,0.000000,0.183105,-0.122070
8002364625,0.01350403,0.00311279,-0.99407959,0.061035,0.183105,-0.122070
8004909375,0.01329041,0.00299072,-0.99279785,0.061035,0.183105,-0.122070
8012488708,0.01329041,0.00299072,-0.99279785,0.122070,0.244141,-0.183105
8015024083,0.01380920,0.00289917,-0.99444580,0.122070,0.244141,-0.183105
8022606500,0.01380920,0.00289917,-0.99444580,0.061035,0.183105,-0.183105
8025141000,0.01472473,0.00289917,-0.99470520,0.061035,0.183105,-0.183105
8032722166,0.01472473,0.00289917,-0.99470520,0.061035,0.183105,-0.122070
8035257791,0.01368713,0.00227356,-0.99348450,0.061035,0.183105,-0.122070
8042840916,0.01368713,0.00227356,-0.99348450,0.061035,0.183105,-0.061035
8045377000,0.01300049,0.00314331,-0.99372864,0.061035,0.183105,-0.061035
8052961083,0.01300049,0.00314331,-0.99372864,0.000000,0.122070,0.000000
8055496708,0.01348877,0.00369263,-0.99380493,0.000000,0.122070,0.000000
8063084458,0.01348877,0.00369263,-0.99380493,0.122070,0.183105,-0.061035
8065630791,0.01347351,0.00378418,-0.99392700,0.122070,0.183105,-0.061035
8073210416,0.01347351,0.00378418,-0.99392700,0.061035,0.122070,-0.122070
8075791041,0.01351929,0.00401306,-0.99380493,0.061035,0.122070,-0.122070
8083382708,0.01351929,0.00401306,-0.99380493,0.061035,0.122070,-0.122070
8085927833,0.01412964,0.00395203,-0.99526978,0.061035,0.122070,-0.122070
8093551083,0.01412964,0.00395203,-0.99526978,0.061035,0.244141,-0.122070
8096089041,0.01324463,0.00375366,-0.99458313,0.061035,0.244141,-0.122070
8103676583,0.01324463,0.00375366,-0.99458313,0.000000,0.244141,-0.122070
8106211750,0.01364136,0.00332642,-0.99336243,0.000000,0.244141,-0.122070
8113787541,0.01364136,0.00332642,-0.99336243,-0.061035,0.183105,-0.183105
8116327791,0.01345825,0.00219727,-0.99435425,-0.061035,0.183105,-0.183105
8121425541,0.01345825,0.00219727,-0.99435425,0.061035,0.122070,-0.061035
8126508875,0.01364136,0.00291443,-0.99375916,0.061035,0.122070,-0.061035
8131569250,0.01364136,0.00291443,-0.99375916,0.122070,0.183105,0.000000
8136628125,0.01374817,0.00318909,-0.99380493,0.122070,0.183105,0.000000
8141685750,0.01374817,0.00318909,-0.99380493,0.000000,0.305176,-0.122070
8146743625,0.01298523,0.00216675,-0.99444580,0.000000,0.305176,-0.122070
8151815416,0.01298523,0.00216675,-0.99444580,0.000000,0.183105,-0.061035
8156884958,0.01382446,0.00346375,-0.99458313,0.000000,0.183105,-0.061035
8161943708,0.01382446,0.00346375,-0.99458313,0.000000,0.183105,-0.122070
8167010375,0.01387024,0.00357056,-0.99397278,0.000000,0.183105,-0.122070
8172088291,0.01387024,0.00357056,-0.99397278,0.122070,0.122070,-0.183105
8177162000,0.01406860,0.00270081,-0.99394226,0.122070,0.122070,-0.183105
8182230958,0.01406860,0.00270081,-0.99394226,0.061035,0.244141,-0.122070
8187299791,0.01377869,0.00384521,-0.99446106,0.061035,0.244141,-0.122070
8192356166,0.01377869,0.00384521,-0.99446106,0.183105,0.122070,-0.122070
8197434958,0.01409912,0.00462341,-0.99421692,0.183105,0.122070,-0.122070
8202511583,0.01409912,0.00462341,-0.99421692,0.061035,0.244141,0.000000
8207581375,0.01420593,0.00344849,-0.99386597,0.061035,0.244141,0.000000
8212644791,0.01420593,0.00344849,-0.99386597,0.061035,0.122070,-0.061035
8217703291,0.01292419,0.00334167,-0.99371338,0.061035,0.122070,-0.061035
8222763666,0.01292419,0.00334167,-0.99371338,0.061035,0.183105,-0.183105
8227825083,0.01242065,0.00314331,-0.99388123,0.061035,0.183105,-0.183105
