timestamp_ns,accel_x,accel_y,accel_z,gyro_x,gyro_y,gyro_z
90736375,0.00041199,0.00790405,-1.00566101,0.000000,0.000000,0.000000
94952208,0.00041199,0.00790405,-1.00566101,0.305176,0.061035,-0.061035
108237708,-0.00146484,0.00888062,-1.00665283,0.244141,0.000000,-0.122070
118564000,-0.00094604,0.00938416,-1.00775146,0.122070,0.061035,-0.061035
121502958,-0.00100708,0.01115417,-1.00541687,0.122070,0.061035,-0.061035
124655583,-0.00100708,0.01115417,-1.00541687,0.305176,0.000000,-0.183105
130287916,-0.00125122,0.01040649,-1.00437927,0.305176,0.000000,-0.183105
132622083,-0.00125122,0.01040649,-1.00437927,0.366211,0.122070,0.000000
143387625,-0.00056458,0.01123047,-1.00573730,0.305176,0.000000,-0.122070
151754541,0.00035095,0.01062012,-1.00614929,0.305176,0.000000,-0.122070
154283041,0.00035095,0.01062012,-1.00614929,0.305176,0.244141,-0.061035
161833833,0.00059509,0.00975037,-1.00616455,0.305176,0.244141,-0.061035
164354166,0.00059509,0.00975037,-1.00616455,0.305176,0.061035,0.000000
169375333,0.00221252,0.00737000,-1.00602722,0.305176,0.061035,0.000000
171957583,0.00221252,0.00737000,-1.00602722,0.305176,0.000000,-0.122070
179500541,0.00392151,0.00599670,-1.00576782,0.305176,0.000000,-0.122070
182016375,0.00392151,0.00599670,-1.00576782,0.244141,0.061035,0.000000
189553833,0.00398254,0.00527954,-1.00576782,0.244141,0.061035,0.000000
192071875,0.00398254,0.00527954,-1.00576782,0.427246,0.061035,-0.061035
199616875,0.00389099,0.00477600,-1.00602722,0.427246,0.061035,-0.061035
202167416,0.00389099,0.00477600,-1.00602722,0.244141,0.061035,-0.061035
211870708,0.00395203,0.00430298,-1.00614929,0.244141,0.061035,-0.061035
214408458,0.00395203,0.00430298,-1.00614929,0.366211,0.000000,-0.183105
219433125,0.00280762,0.00448608,-1.00592041,0.366211,0.000000,-0.183105
221964208,0.00280762,0.00448608,-1.00592041,0.183105,-0.061035,-0.183105
229519708,0.00129700,0.00524902,-1.00660706,0.183105,-0.061035,-0.183105
232035750,0.00129700,0.00524902,-1.00660706,0.488281,-0.061035,-0.122070
239575750,0.00028992,0.00630188,-1.00544739,0.488281,-0.061035,-0.122070
242086416,0.00028992,0.00630188,-1.00544739,0.305176,0.061035,0.000000
249617291,-0.00032043,0.00839233,-1.00730896,0.305176,0.061035,0.000000
251995875,-0.00032043,0.00839233,-1.00730896,0.244141,0.122070,-0.122070
259538416,-0.00065613,0.01011658,-1.00704956,0.244141,0.122070,-0.122070
262055333,-0.00065613,0.01011658,-1.00704956,0.427246,0.061035,-0.061035
269584416,0.00018311,0.01045227,-1.00625610,0.427246,0.061035,-0.061035
272098958,0.00018311,0.01045227,-1.00625610,0.244141,0.122070,0.061035
279558541,0.00047302,0.01148987,-1.00624084,0.244141,0.122070,0.061035
282073083,0.00047302,0.01148987,-1.00624084,0.305176,0.122070,-0.122070
289612291,0.00120544,0.01074219,-1.00634766,0.305176,0.122070,-0.122070
292127583,0.00120544,0.01074219,-1.00634766,0.427246,0.122070,-0.122070
299665750,-0.00001526,0.00944519,-1.00584412,0.427246,0.122070,-0.122070
302183875,-0.00001526,0.00944519,-1.00584412,0.305176,0.061035,0.000000
309473833,0.00105286,0.00881958,-1.00532532,0.305176,0.061035,0.000000
311986375,0.00105286,0.00881958,-1.00532532,0.305176,0.000000,-0.122070
319522708,0.00158691,0.00801086,-1.00691223,0.305176,0.000000,-0.122070
322034166,0.00158691,0.00801086,-1.00691223,0.305176,0.061035,-0.061035
329572125,0.00175476,0.00744629,-1.00579834,0.305176,0.061035,-0.061035
332093416,0.00175476,0.00744629,-1.00579834,0.244141,0.061035,-0.244141
339631208,0.00292969,0.00610352,-1.00679016,0.244141,0.061035,-0.244141
342147166,0.00292969,0.00610352,-1.00679016,0.366211,0.122070,-0.061035
349683708,0.00294495,0.00520325,-1.00520325,0.366211,0.122070,-0.061035
352201833,0.00294495,0.00520325,-1.00520325,0.244141,0.061035,-0.122070
359750041,0.00263977,0.00579834,-1.00521851,0.244141,0.061035,-0.122070
362271166,0.00263977,0.00579834,-1.00521851,0.244141,0.061035,-0.122070
369823416,0.00205994,0.00607300,-1.00553894,0.244141,0.061035,-0.122070
372344000,0.00205994,0.00607300,-1.00553894,0.305176,0.000000,-0.122070
379880500,0.00123596,0.00636292,-1.00674438,0.305176,0.000000,-0.122070
382400375,0.00123596,0.00636292,-1.00674438,0.244141,0.000000,-0.183105
389945250,0.00144958,0.00672913,-1.00721741,0.244141,0.000000,-0.183105
392464291,0.00144958,0.00672913,-1.00721741,0.244141,-0.061035,-0.183105
400034291,0.00054932,0.00892639,-1.00550842,0.244141,-0.061035,-0.183105
402555458,0.00054932,0.00892639,-1.00550842,0.183105,0.061035,-0.061035
410143708,0.00119019,0.00903320,-1.00645447,0.183105,0.061035,-0.061035
412680041,0.00119019,0.00903320,-1.00645447,0.366211,0.061035,-0.061035
420410375,0.00120544,0.00984192,-1.00656128,0.366211,0.061035,-0.061035
422995250,0.00120544,0.00984192,-1.00656128,0.427246,0.061035,0.000000
430679041,0.00097656,0.00970459,-1.00668335,0.427246,0.061035,0.000000
433231541,0.00097656,0.00970459,-1.00668335,0.366211,-0.061035,-0.061035
440739458,0.00061035,0.00947571,-1.00593567,0.366211,-0.061035,-0.061035
443286041,0.00061035,0.00947571,-1.00593567,0.427246,-0.122070,-0.061035
451019708,0.00128174,0.00914001,-1.00604248,0.427246,-0.122070,-0.061035
453615166,0.00128174,0.00914001,-1.00604248,0.305176,-0.061035,0.000000
461222458,0.00270081,0.00874329,-1.00675964,0.305176,-0.061035,0.000000
463773458,0.00270081,0.00874329,-1.00675964,0.427246,0.061035,-0.122070
471405916,0.00238037,0.00885010,-1.00553894,0.427246,0.061035,-0.122070
473980000,0.00238037,0.00885010,-1.00553894,0.427246,0.122070,-0.061035
481597000,0.00251770,0.00703430,-1.00616455,0.427246,0.122070,-0.061035
484144833,0.00251770,0.00703430,-1.00616455,0.305176,0.122070,-0.061035
491776083,0.00196838,0.00672913,-1.00584412,0.305176,0.122070,-0.061035
493869458,0.00196838,0.00672913,-1.00584412,0.488281,0.183105,0.000000
501483041,0.00186157,0.00639343,-1.00598145,0.488281,0.183105,0.000000
504063750,0.00186157,0.00639343,-1.00598145,0.427246,0.122070,0.000000
511714041,0.00248718,0.00596619,-1.00639343,0.427246,0.122070,0.000000
514371916,0.00248718,0.00596619,-1.00639343,0.183105,-0.061035,-0.122070
522229000,0.00172424,0.00633240,-1.00683594,0.305176,0.000000,-0.122070
530284250,0.00169373,0.00685120,-1.00584412,0.305176,0.000000,-0.122070
532940750,0.00169373,0.00685120,-1.00584412,0.244141,0.061035,-0.061035
540657625,0.00270081,0.00709534,-1.00556946,0.244141,0.061035,-0.061035
543225125,0.00270081,0.00709534,-1.00556946,0.366211,0.061035,-0.061035
550857958,0.00181580,0.00837708,-1.00668335,0.366211,0.061035,-0.061035
553431291,0.00181580,0.00837708,-1.00668335,0.366211,0.000000,-0.061035
561030333,0.00028992,0.00936890,-1.00747681,0.366211,0.000000,-0.061035
563604166,0.00028992,0.00936890,-1.00747681,0.305176,0.061035,-0.122070
571530333,0.00039673,0.00999451,-1.00537109,0.305176,0.061035,-0.122070
573789000,0.00039673,0.00999451,-1.00537109,0.244141,-0.122070,-0.122070
581491958,0.00117493,0.00997925,-1.00555420,0.244141,-0.122070,-0.122070
584054625,0.00117493,0.00997925,-1.00555420,0.305176,0.000000,0.061035
591413375,0.00097656,0.00840759,-1.00604248,0.305176,0.000000,0.061035
594011083,0.00097656,0.00840759,-1.00604248,0.366211,-0.061035,0.061035
601645500,0.00083923,0.00791931,-1.00718689,0.366211,-0.061035,0.061035
604240333,0.00083923,0.00791931,-1.00718689,0.366211,0.061035,-0.244141
611921208,0.00199890,0.00762939,-1.00561523,0.366211,0.061035,0.061035
622062625,0.00236511,0.00717163,-1.00624084,0.366211,0.061035,-0.061035
629733708,0.00273132,0.00646973,-1.00572205,0.366211,0.061035,-0.061035
632335041,0.00273132,0.00646973,-1.00572205,0.183105,0.061035,-0.061035
640622333,0.00233459,0.00624084,-1.00538635,0.183105,0.061035,-0.061035
649719375,0.00233459,0.00624084,-1.00538635,0.427246,0.061035,-0.122070
652502541,0.00325012,0.00672913,-1.00553894,0.366211,-0.061035,-0.183105
660159208,0.00212097,0.00747681,-1.00578308,0.366211,-0.061035,-0.183105
662756458,0.00212097,0.00747681,-1.00578308,0.244141,0.061035,-0.061035
670458083,0.00161743,0.00810242,-1.00599670,0.244141,0.061035,-0.061035
673026083,0.00161743,0.00810242,-1.00599670,0.427246,0.061035,0.000000
680803916,0.00141907,0.00796509,-1.00613403,0.427246,0.061035,0.000000
683413416,0.00141907,0.00796509,-1.00613403,0.366211,0.122070,0.000000
690757625,-0.00033569,0.00852966,-1.00555420,0.366211,0.122070,0.000000
693440000,-0.00033569,0.00852966,-1.00555420,0.305176,0.122070,-0.061035
701153000,0.00051880,0.00871277,-1.00563049,0.305176,0.122070,-0.061035
703766625,0.00051880,0.00871277,-1.00563049,0.366211,0.122070,-0.061035
711415375,0.00108337,0.00901794,-1.00564575,0.366211,0.122070,-0.061035
713990791,0.00108337,0.00901794,-1.00564575,0.366211,0.122070,-0.183105
721760041,0.00097656,0.00930786,-1.00555420,0.366211,0.122070,-0.183105
724334958,0.00097656,0.00930786,-1.00555420,0.305176,0.061035,-0.122070
731986083,0.00170898,0.00851440,-1.00645447,0.427246,0.000000,0.061035
742166458,0.00283813,0.00871277,-1.00614929,0.305176,0.061035,-0.122070
752158708,0.00321960,0.00822449,-1.00636292,0.366211,0.122070,-0.061035
762332250,0.00291443,0.00738525,-1.00708008,0.305176,0.061035,-0.122070
772421708,0.00260925,0.00657654,-1.00648499,0.427246,0.122070,-0.061035
780072375,0.00267029,0.00730896,-1.00640869,0.427246,0.122070,-0.061035
782215958,0.00267029,0.00730896,-1.00640869,0.427246,-0.061035,-0.122070
792233125,0.00149536,0.00738525,-1.00592041,0.366211,0.061035,-0.061035
802348958,0.00138855,0.00711060,-1.00634766,0.305176,0.122070,0.000000
812537916,0.00102234,0.00622559,-1.00697327,0.244141,0.061035,-0.122070
820148500,0.00061035,0.00704956,-1.00563049,0.244141,0.061035,-0.122070
822681666,0.00061035,0.00704956,-1.00563049,0.366211,0.061035,-0.183105
832437708,0.00071716,0.00787354,-1.00573730,0.305176,0.122070,-0.061035
840076333,0.00227356,0.00837708,-1.00604248,0.305176,0.122070,-0.061035
842616083,0.00227356,0.00837708,-1.00604248,0.427246,0.061035,-0.183105
850222416,0.00216675,0.00769043,-1.00663757,0.427246,0.061035,-0.183105
852403708,0.00216675,0.00769043,-1.00663757,0.244141,-0.122070,-0.244141
860013208,0.00160217,0.00773621,-1.00605774,0.244141,-0.122070,-0.244141
862565458,0.00160217,0.00773621,-1.00605774,0.244141,0.122070,-0.122070
870195416,0.00175476,0.00785828,-1.00785828,0.244141,0.122070,-0.122070
872746416,0.00175476,0.00785828,-1.00785828,0.427246,0.000000,-0.122070
880045833,0.00256348,0.00779724,-1.00643921,0.427246,0.000000,-0.122070
882639750,0.00256348,0.00779724,-1.00643921,0.366211,0.000000,-0.122070
890016958,0.00169373,0.00843811,-1.00593567,0.366211,0.000000,-0.122070
892619416,0.00169373,0.00843811,-1.00593567,0.183105,0.061035,0.000000
900233666,0.00045776,0.00793457,-1.00625610,0.183105,0.061035,0.000000
902786000,0.00045776,0.00793457,-1.00625610,0.366211,0.000000,-0.061035
910373958,-0.00021362,0.00798035,-1.00624084,0.366211,0.000000,-0.061035
912916250,-0.00021362,0.00798035,-1.00624084,0.427246,0.061035,-0.122070
920520166,0.00076294,0.00845337,-1.00598145,0.427246,0.061035,-0.122070
923014208,0.00076294,0.00845337,-1.00598145,0.366211,0.061035,0.000000
930619458,0.00161743,0.00798035,-1.00695801,0.366211,0.061035,0.000000
933188291,0.00161743,0.00798035,-1.00695801,0.488281,0.061035,-0.122070
940604875,0.00123596,0.00856018,-1.00561523,0.488281,0.061035,-0.122070
943172083,0.00123596,0.00856018,-1.00561523,0.244141,0.061035,-0.061035
950837708,0.00125122,0.00836182,-1.00669861,0.244141,0.061035,-0.061035
953134208,0.00125122,0.00836182,-1.00669861,0.244141,-0.061035,0.000000
960768750,0.00209045,0.00790405,-1.00534058,0.244141,-0.061035,0.000000
963340750,0.00209045,0.00790405,-1.00534058,0.305176,0.122070,0.000000
970959000,0.00253296,0.00788879,-1.00613403,0.305176,0.122070,0.000000
973509458,0.00253296,0.00788879,-1.00613403,0.366211,0.000000,-0.183105
981122083,0.00189209,0.00677490,-1.00599670,0.366211,0.000000,-0.183105
983683208,0.00189209,0.00677490,-1.00599670,0.488281,0.061035,0.061035
990808708,0.00224304,0.00741577,-1.00659180,0.488281,0.061035,0.061035
993356416,0.00224304,0.00741577,-1.00659180,0.427246,-0.122070,-0.061035
1001007916,0.00184631,0.00765991,-1.00654602,0.427246,-0.122070,-0.061035
1003590250,0.00184631,0.00765991,-1.00654602,0.305176,0.000000,-0.183105
1011201375,0.00117493,0.00799561,-1.00688171,0.305176,0.000000,-0.183105
1013772125,0.00117493,0.00799561,-1.00688171,0.305176,0.000000,-0.183105
1021458125,0.00065613,0.00869751,-1.00566101,0.305176,0.000000,-0.183105
1024071250,0.00065613,0.00869751,-1.00566101,0.366211,0.183105,0.000000
1031709166,0.00126648,0.00823975,-1.00584412,0.366211,0.183105,0.000000
1034263833,0.00126648,0.00823975,-1.00584412,0.244141,0.122070,-0.061035
1041875083,0.00114441,0.00737000,-1.00543213,0.244141,0.122070,-0.061035
1044431208,0.00114441,0.00737000,-1.00543213,0.366211,0.061035,0.000000
1052041791,0.00122070,0.00781250,-1.00619507,0.305176,0.122070,0.061035
1062122000,0.00126648,0.00782776,-1.00634766,0.305176,0.122070,-0.061035
1072427458,0.00155640,0.00721741,-1.00611877,0.305176,0.061035,-0.122070
1080101583,0.00265503,0.00672913,-1.00619507,0.305176,0.061035,-0.122070
1082668458,0.00265503,0.00672913,-1.00619507,0.244141,0.122070,-0.122070
1090478041,0.00076294,0.00698853,-1.00636292,0.244141,0.122070,-0.122070
1093023708,0.00076294,0.00698853,-1.00636292,0.305176,-0.061035,-0.122070
1100459916,0.00230408,0.00659180,-1.00605774,0.305176,-0.061035,-0.122070
1103012250,0.00230408,0.00659180,-1.00605774,0.244141,0.061035,0.061035
1110634375,0.00138855,0.00604248,-1.00498962,0.244141,0.061035,0.061035
1113193208,0.00138855,0.00604248,-1.00498962,0.305176,0.122070,-0.061035
1120903791,0.00158691,0.00677490,-1.00584412,0.305176,0.122070,-0.061035
1123486875,0.00158691,0.00677490,-1.00584412,0.366211,0.000000,-0.122070
1131147666,0.00082397,0.00846863,-1.00585938,0.366211,0.000000,-0.122070
1133740333,0.00082397,0.00846863,-1.00585938,0.427246,0.061035,-0.244141
1141528000,0.00048828,0.00814819,-1.00520325,0.427246,0.061035,-0.244141
1144134500,0.00048828,0.00814819,-1.00520325,0.366211,0.000000,-0.061035
1151820083,0.00175476,0.00820923,-1.00564575,0.366211,0.000000,-0.061035
1154425166,0.00175476,0.00820923,-1.00564575,0.427246,0.122070,-0.061035
1162111541,0.00077820,0.00883484,-1.00503540,0.366211,0.183105,-0.061035
1172365166,0.00044250,0.00769043,-1.00529480,0.427246,-0.061035,-0.122070
1180029125,0.00114441,0.00871277,-1.00611877,0.427246,-0.061035,-0.122070
1182617583,0.00114441,0.00871277,-1.00611877,0.122070,0.061035,-0.122070
1190284833,0.00280762,0.00791931,-1.00619507,0.122070,0.061035,-0.122070
1192847375,0.00280762,0.00791931,-1.00619507,0.366211,0.061035,-0.122070
1200211500,0.00230408,0.00817871,-1.00665283,0.366211,0.061035,-0.122070
1202441125,0.00230408,0.00817871,-1.00665283,0.305176,0.000000,-0.122070
1210110833,0.00218201,0.00708008,-1.00671387,0.305176,0.000000,-0.122070
1212691458,0.00218201,0.00708008,-1.00671387,0.366211,0.061035,-0.122070
1220416250,0.00173950,0.00692749,-1.00645447,0.366211,0.061035,-0.122070
1222996958,0.00173950,0.00692749,-1.00645447,0.366211,0.244141,-0.122070
1230691583,0.00109863,0.00686646,-1.00563049,0.366211,0.244141,-0.122070
1233285041,0.00109863,0.00686646,-1.00563049,0.366211,0.122070,0.000000
1240940375,0.00138855,0.00628662,-1.00642395,0.366211,0.122070,0.000000
1243355541,0.00138855,0.00628662,-1.00642395,0.244141,0.061035,-0.183105
1250928583,0.00096130,0.00634766,-1.00602722,0.244141,0.061035,-0.183105
1253455791,0.00096130,0.00634766,-1.00602722,0.305176,0.061035,-0.183105
1260900625,0.00064087,0.00686646,-1.00657654,0.305176,0.061035,-0.183105
1263423041,0.00064087,0.00686646,-1.00657654,0.244141,0.061035,-0.061035
1270952916,0.00053406,0.00733948,-1.00598145,0.244141,0.061035,-0.061035
1273465625,0.00053406,0.00733948,-1.00598145,0.183105,0.000000,-0.122070
1280820833,0.00021362,0.00796509,-1.00608826,0.183105,0.000000,-0.122070
1283333333,0.00021362,0.00796509,-1.00608826,0.183105,0.061035,-0.061035
1290912625,0.00114441,0.00758362,-1.00569153,0.183105,0.061035,-0.061035
1293442833,0.00114441,0.00758362,-1.00569153,0.427246,0.061035,0.000000
1300970666,0.00213623,0.00778198,-1.00628662,0.427246,0.061035,0.000000
1303482708,0.00213623,0.00778198,-1.00628662,0.366211,0.061035,0.000000
1311010666,0.00196838,0.00804138,-1.00575256,0.366211,0.061035,0.000000
1313523000,0.00196838,0.00804138,-1.00575256,0.244141,0.000000,-0.061035
1321063041,0.00129700,0.00822449,-1.00569153,0.244141,0.000000,-0.061035
1323143083,0.00129700,0.00822449,-1.00569153,0.366211,0.061035,-0.122070
1330747125,0.00054932,0.00794983,-1.00669861,0.366211,0.061035,-0.122070
1333284041,0.00054932,0.00794983,-1.00669861,0.305176,0.122070,-0.061035
1340894166,0.00184631,0.00747681,-1.00659180,0.305176,0.122070,-0.061035
1343414875,0.00184631,0.00747681,-1.00659180,0.305176,0.061035,-0.122070
1350964208,0.00250244,0.00785828,-1.00592041,0.305176,0.061035,-0.122070
1353482166,0.00250244,0.00785828,-1.00592041,0.366211,0.061035,-0.122070
1361025125,0.00041199,0.00724792,-1.00585938,0.366211,0.061035,-0.122070
1363544708,0.00041199,0.00724792,-1.00585938,0.366211,0.000000,-0.061035
1371089166,0.00138855,0.00704956,-1.00540161,0.366211,0.000000,-0.061035
1373609541,0.00138855,0.00704956,-1.00540161,0.427246,0.061035,-0.061035
1381145083,0.00093079,0.00764465,-1.00643921,0.427246,0.061035,-0.061035
1383663875,0.00093079,0.00764465,-1.00643921,0.427246,0.000000,-0.061035
1391212208,0.00071716,0.00761414,-1.00556946,0.427246,0.000000,-0.061035
1393729833,0.00071716,0.00761414,-1.00556946,0.183105,0.122070,-0.061035
1401282875,0.00083923,0.00851440,-1.00648499,0.183105,0.122070,-0.061035
1403803166,0.00083923,0.00851440,-1.00648499,0.183105,-0.061035,-0.061035
1411357875,0.00155640,0.00845337,-1.00621033,0.183105,-0.061035,-0.061035
1413878125,0.00155640,0.00845337,-1.00621033,0.244141,0.122070,0.000000
1421403500,0.00138855,0.00852966,-1.00526428,0.244141,0.122070,0.000000
1423943666,0.00138855,0.00852966,-1.00526428,0.366211,0.122070,-0.061035
1431503166,0.00180054,0.00817871,-1.00506592,0.366211,0.122070,-0.061035
1434031791,0.00180054,0.00817871,-1.00506592,0.427246,0.122070,-0.122070
1441576125,0.00129700,0.00770569,-1.00592041,0.427246,0.122070,-0.122070
1444101250,0.00129700,0.00770569,-1.00592041,0.427246,0.000000,-0.061035
1451735125,0.00248718,0.00852966,-1.00599670,0.427246,0.000000,-0.061035
1454334458,0.00248718,0.00852966,-1.00599670,0.305176,0.061035,-0.061035
1461965416,0.00082397,0.00805664,-1.00555420,0.305176,0.061035,-0.061035
1464517125,0.00082397,0.00805664,-1.00555420,0.122070,0.061035,-0.061035
1472177208,0.00207520,0.00837708,-1.00633240,0.366211,0.061035,-0.122070
1482308875,0.00233459,0.00804138,-1.00692749,0.427246,0.000000,0.000000
1492489458,0.00186157,0.00820923,-1.00569153,0.305176,0.000000,0.000000
1500094041,0.00085449,0.00767517,-1.00708008,0.305176,0.000000,0.000000
1502643583,0.00085449,0.00767517,-1.00708008,0.366211,0.122070,-0.122070
1510266125,0.00154114,0.00730896,-1.00596619,0.366211,0.122070,-0.122070
1512815208,0.00154114,0.00730896,-1.00596619,0.427246,0.000000,-0.122070
1520441958,0.00094604,0.00668335,-1.00578308,0.427246,0.000000,-0.122070
1523017250,0.00094604,0.00668335,-1.00578308,0.427246,0.122070,0.000000
1530639333,0.00033569,0.00703430,-1.00505066,0.427246,0.122070,0.000000
1533199583,0.00033569,0.00703430,-1.00505066,0.427246,0.061035,-0.183105
1540775541,0.00149536,0.00698853,-1.00585938,0.427246,0.061035,-0.183105
1543309208,0.00149536,0.00698853,-1.00585938,0.427246,0.122070,-0.061035
1550896500,0.00152588,0.00758362,-1.00625610,0.427246,0.122070,-0.061035
1553435458,0.00152588,0.00758362,-1.00625610,0.305176,0.061035,-0.183105
1560811416,0.00186157,0.00773621,-1.00610352,0.305176,0.061035,-0.183105
1563365375,0.00186157,0.00773621,-1.00610352,0.366211,0.000000,-0.183105
1570625000,0.00131226,0.00820923,-1.00715637,0.366211,0.000000,-0.183105
1573165083,0.00131226,0.00820923,-1.00715637,0.305176,0.122070,-0.183105
1580526666,0.00157166,0.00753784,-1.00541687,0.305176,0.122070,-0.183105
1583085750,0.00157166,0.00753784,-1.00541687,0.305176,0.000000,-0.183105
1590724958,0.00202942,0.00820923,-1.00532532,0.305176,0.000000,-0.183105
1593289000,0.00202942,0.00820923,-1.00532532,0.488281,0.061035,-0.122070
1600912541,0.00064087,0.00738525,-1.00590515,0.488281,0.061035,-0.122070
1603460666,0.00064087,0.00738525,-1.00590515,0.244141,-0.061035,-0.183105
1611002833,0.00137329,0.00715637,-1.00598145,0.244141,-0.061035,-0.183105
1613299750,0.00137329,0.00715637,-1.00598145,0.305176,-0.061035,0.000000
1620763583,0.00181580,0.00733948,-1.00581360,0.305176,-0.061035,0.000000
1623436041,0.00181580,0.00733948,-1.00581360,0.366211,0.244141,-0.183105
1631190041,0.00163269,0.00875854,-1.00636292,0.366211,0.244141,-0.183105
1633849750,0.00163269,0.00875854,-1.00636292,0.427246,0.000000,-0.061035
1643540250,0.00280762,0.00732422,-1.00669861,0.305176,0.061035,0.000000
1651220583,0.00239563,0.00718689,-1.00581360,0.305176,0.061035,0.000000
1653781208,0.00239563,0.00718689,-1.00581360,0.183105,0.122070,-0.305176
1666282458,0.00193787,0.00724792,-1.00569153,0.427246,0.061035,-0.061035
1671441166,0.00161743,0.00726318,-1.00579834,0.427246,0.061035,-0.061035
1674022166,0.00161743,0.00726318,-1.00579834,0.305176,0.122070,-0.122070
1681716708,0.00134277,0.00779724,-1.00621033,0.305176,0.122070,-0.122070
1684283625,0.00134277,0.00779724,-1.00621033,0.366211,0.061035,0.000000
1691930250,0.00184631,0.00849915,-1.00605774,0.366211,0.061035,0.000000
1694496416,0.00184631,0.00849915,-1.00605774,0.366211,0.000000,-0.122070
1702181916,0.00305176,0.00862122,-1.00662231,0.366211,0.061035,-0.244141
1712189875,0.00128174,0.00813293,-1.00593567,0.305176,0.000000,0.000000
1722131166,0.00126648,0.00811768,-1.00527954,0.305176,0.000000,0.000000
1724687333,0.00126648,0.00811768,-1.00527954,0.305176,0.061035,-0.061035
1732305000,0.00126648,0.00848389,-1.00648499,0.366211,0.000000,-0.244141
1740065416,0.00135803,0.00765991,-1.00659180,0.366211,0.000000,-0.244141
1742646833,0.00135803,0.00765991,-1.00659180,0.244141,0.061035,-0.122070
1752357250,0.00164795,0.00875854,-1.00575256,0.366211,0.061035,-0.061035
1760134000,0.00201416,0.00776672,-1.00595093,0.366211,0.061035,-0.061035
1762916000,0.00201416,0.00776672,-1.00595093,0.305176,0.000000,-0.061035
1770565000,0.00209045,0.00665283,-1.00605774,0.305176,0.000000,-0.061035
1773136166,0.00209045,0.00665283,-1.00605774,0.305176,0.061035,0.000000
1780832958,0.00158691,0.00679016,-1.00572205,0.305176,0.061035,0.000000
1783409416,0.00158691,0.00679016,-1.00572205,0.183105,0.061035,-0.061035
1791057958,0.00173950,0.00683594,-1.00646973,0.183105,0.061035,-0.061035
1793657291,0.00173950,0.00683594,-1.00646973,0.305176,0.000000,-0.061035
1800870708,0.00186157,0.00665283,-1.00634766,0.305176,0.000000,-0.061035
1803493958,0.00186157,0.00665283,-1.00634766,0.305176,0.122070,-0.122070
1811122958,0.00180054,0.00694275,-1.00584412,0.305176,0.122070,-0.122070
1813680125,0.00180054,0.00694275,-1.00584412,0.488281,0.000000,-0.061035
1821324000,0.00201416,0.00788879,-1.00595093,0.488281,0.000000,-0.061035
1823901083,0.00201416,0.00788879,-1.00595093,0.305176,0.000000,-0.061035
1831502833,0.00102234,0.00775146,-1.00613403,0.305176,0.000000,-0.061035
1834060500,0.00102234,0.00775146,-1.00613403,0.366211,0.061035,-0.183105
1841599916,0.00080872,0.00767517,-1.00653076,0.366211,0.061035,-0.183105
1844172041,0.00080872,0.00767517,-1.00653076,0.305176,0.122070,-0.122070
1851806166,0.00141907,0.00814819,-1.00611877,0.305176,0.122070,-0.122070
1854352250,0.00141907,0.00814819,-1.00611877,0.183105,0.000000,-0.122070
1861982458,0.00146484,0.00808716,-1.00509644,0.183105,0.000000,-0.122070
1864543583,0.00146484,0.00808716,-1.00509644,0.427246,0.122070,-0.183105
1872212333,0.00129700,0.00865173,-1.00608826,0.427246,0.122070,-0.183105
1874785208,0.00129700,0.00865173,-1.00608826,0.305176,0.061035,-0.122070
1882433541,0.00062561,0.00866699,-1.00653076,0.305176,0.122070,-0.061035
1890098916,0.00259399,0.00791931,-1.00679016,0.305176,0.122070,-0.061035
1892668500,0.00259399,0.00791931,-1.00679016,0.244141,-0.122070,-0.183105
1900254500,0.00245667,0.00726318,-1.00592041,0.244141,-0.122070,-0.183105
1902864458,0.00245667,0.00726318,-1.00592041,0.427246,-0.061035,-0.122070
1910113291,0.00221252,0.00770569,-1.00625610,0.427246,-0.061035,-0.122070
1912248416,0.00221252,0.00770569,-1.00625610,0.244141,0.000000,-0.183105
1922273083,0.00216675,0.00666809,-1.00588989,0.366211,0.061035,-0.122070
1932463541,0.00231934,0.00637817,-1.00671387,0.305176,0.000000,-0.183105
1940108875,0.00257874,0.00761414,-1.00540161,0.305176,0.000000,-0.183105
1942352958,0.00257874,0.00761414,-1.00540161,0.305176,-0.061035,-0.183105
1950042750,0.00180054,0.00712585,-1.00683594,0.305176,-0.061035,-0.183105
1952611541,0.00180054,0.00712585,-1.00683594,0.366211,0.061035,-0.183105
1960288541,0.00102234,0.00714111,-1.00682068,0.366211,0.061035,-0.183105
1962870750,0.00102234,0.00714111,-1.00682068,0.122070,0.061035,-0.061035
1970162416,0.00090027,0.00704956,-1.00723267,0.122070,0.061035,-0.061035
1972741041,0.00090027,0.00704956,-1.00723267,0.427246,0.122070,-0.122070
1980343916,0.00071716,0.00782776,-1.00575256,0.427246,0.122070,-0.122070
1982901208,0.00071716,0.00782776,-1.00575256,0.427246,0.061035,0.000000
1990354541,0.00108337,0.00851440,-1.00732422,0.427246,0.061035,0.000000
1992917625,0.00108337,0.00851440,-1.00732422,0.427246,0.122070,0.000000
2000519500,0.00061035,0.00900269,-1.00749207,0.427246,0.122070,0.000000
2003101208,0.00061035,0.00900269,-1.00749207,0.305176,0.122070,-0.061035
2010717500,0.00099182,0.00814819,-1.00662231,0.305176,0.122070,-0.061035
2012934666,0.00099182,0.00814819,-1.00662231,0.427246,0.000000,0.000000
2020503166,0.00158691,0.00886536,-1.00683594,0.427246,0.000000,0.000000
2023096333,0.00158691,0.00886536,-1.00683594,0.305176,0.061035,-0.061035
2030783500,0.00199890,0.00891113,-1.00572205,0.305176,0.061035,-0.061035
2033388083,0.00199890,0.00891113,-1.00572205,0.305176,0.000000,-0.061035
2041198666,0.00184631,0.00758362,-1.00553894,0.305176,0.000000,-0.061035
2043777083,0.00184631,0.00758362,-1.00553894,0.122070,0.061035,-0.061035
2051465666,0.00166321,0.00701904,-1.00674438,0.122070,0.061035,-0.061035
2054097125,0.00166321,0.00701904,-1.00674438,0.305176,0.061035,-0.122070
2061757541,0.00184631,0.00689697,-1.00643921,0.305176,0.061035,-0.122070
2064329875,0.00184631,0.00689697,-1.00643921,0.244141,0.000000,-0.061035
2071691208,0.00187683,0.00675964,-1.00688171,0.244141,0.000000,-0.061035
2074275458,0.00187683,0.00675964,-1.00688171,0.610352,0.122070,-0.122070
2081916125,0.00112915,0.00636292,-1.00531006,0.610352,0.122070,-0.122070
2084478875,0.00112915,0.00636292,-1.00531006,0.488281,0.000000,-0.183105
2092086333,0.00178528,0.00685120,-1.00331116,0.488281,0.000000,-0.183105
2094640666,0.00178528,0.00685120,-1.00331116,0.549316,0.122070,-0.061035
2102166958,0.00193787,0.00682068,-1.00593567,0.549316,0.122070,-0.061035
2104833791,0.00193787,0.00682068,-1.00593567,0.183105,0.122070,-0.122070
2110010083,0.00164795,0.00613403,-1.00735474,0.183105,0.122070,-0.122070
2112572583,0.00164795,0.00613403,-1.00735474,0.000000,0.122070,0.000000
2120234166,0.00155640,0.00765991,-1.01057434,0.000000,0.122070,0.000000
2123124958,0.00155640,0.00765991,-1.01057434,-0.122070,0.000000,0.000000
2130737208,0.00057983,0.00837708,-1.00947571,-0.122070,0.000000,0.000000
2132916625,0.00057983,0.00837708,-1.00947571,0.183105,0.061035,-0.061035
2140601083,0.00097656,0.00973511,-1.00376892,0.183105,0.061035,-0.061035
2143169125,0.00097656,0.00973511,-1.00376892,0.122070,0.000000,-0.122070
2150870791,0.00152588,0.01063538,-1.00402832,0.122070,0.000000,-0.122070
2153544333,0.00152588,0.01063538,-1.00402832,0.305176,0.183105,-0.061035
2161236250,0.00190735,0.00944519,-1.00672913,0.305176,0.183105,-0.061035
2163787625,0.00190735,0.00944519,-1.00672913,0.122070,0.061035,-0.122070
2171566208,0.00141907,0.00802612,-1.00663757,0.122070,0.061035,-0.122070
2174150708,0.00141907,0.00802612,-1.00663757,0.366211,0.061035,0.000000
2181788666,0.00100708,0.00784302,-1.00595093,0.366211,0.061035,0.000000
2184353208,0.00100708,0.00784302,-1.00595093,0.427246,0.000000,-0.061035
2191964166,0.00065613,0.00575256,-1.00503540,0.427246,0.000000,-0.061035
2194517458,0.00065613,0.00575256,-1.00503540,0.427246,0.000000,0.000000
2202166500,0.00175476,0.00590515,-1.00564575,0.427246,0.000000,0.000000
2204809708,0.00175476,0.00590515,-1.00564575,0.244141,0.061035,-0.122070
2212500208,0.00279236,0.00686646,-1.00819397,0.366211,0.061035,-0.061035
2220177625,0.00270081,0.00602722,-1.00669861,0.366211,0.061035,-0.061035
2222740958,0.00270081,0.00602722,-1.00669861,0.244141,0.000000,-0.244141
2230328291,0.00411987,0.00718689,-1.00666809,0.244141,0.000000,-0.244141
2232867291,0.00411987,0.00718689,-1.00666809,0.366211,0.183105,-0.122070
2240454291,0.00317383,0.00827026,-1.00672913,0.366211,0.183105,-0.122070
2242628791,0.00317383,0.00827026,-1.00672913,0.305176,0.061035,-0.183105
2250262166,0.00178528,0.00785828,-1.00585938,0.305176,0.061035,-0.183105
2252814416,0.00178528,0.00785828,-1.00585938,0.366211,0.000000,0.122070
2260407583,0.00027466,0.00906372,-1.00567627,0.366211,0.000000,0.122070
2262949000,0.00027466,0.00906372,-1.00567627,0.305176,0.122070,-0.122070
2270553708,0.00065613,0.00827026,-1.00509644,0.305176,0.122070,-0.122070
2273114291,0.00065613,0.00827026,-1.00509644,0.305176,0.061035,-0.122070
2280726541,0.00059509,0.00814819,-1.00634766,0.305176,0.061035,-0.122070
2283281625,0.00059509,0.00814819,-1.00634766,0.366211,0.122070,0.000000
2290791833,0.00027466,0.00848389,-1.00559998,0.366211,0.122070,0.000000
2293356625,0.00027466,0.00848389,-1.00559998,0.427246,0.061035,-0.061035
2300978166,0.00090027,0.00839233,-1.00576782,0.427246,0.061035,-0.061035
2303532750,0.00090027,0.00839233,-1.00576782,0.305176,0.061035,0.061035
2311159625,0.00233459,0.00860596,-1.00534058,0.305176,0.061035,0.061035
2313728250,0.00233459,0.00860596,-1.00534058,0.427246,0.061035,-0.061035
2321333791,0.00209045,0.00798035,-1.00808716,0.427246,0.061035,-0.061035
2323574166,0.00209045,0.00798035,-1.00808716,0.305176,0.061035,-0.061035
2331177166,0.00251770,0.00804138,-1.00683594,0.305176,0.061035,-0.061035
2333723333,0.00251770,0.00804138,-1.00683594,0.305176,-0.061035,-0.061035
2340988666,0.00263977,0.00776672,-1.00613403,0.305176,-0.061035,-0.061035
2343575583,0.00263977,0.00776672,-1.00613403,0.183105,0.061035,-0.122070
2351194541,0.00253296,0.00825500,-1.00602722,0.183105,0.061035,-0.122070
2353747875,0.00253296,0.00825500,-1.00602722,0.427246,0.183105,0.000000
2361017333,0.00233459,0.00753784,-1.00633240,0.427246,0.183105,0.000000
2363565041,0.00233459,0.00753784,-1.00633240,0.366211,0.061035,-0.061035
2371154000,0.00306702,0.00796509,-1.00570679,0.366211,0.061035,-0.061035
2373693166,0.00306702,0.00796509,-1.00570679,0.366211,0.183105,-0.122070
2381308666,0.00143433,0.00727844,-1.00616455,0.366211,0.183105,-0.122070
2383858500,0.00143433,0.00727844,-1.00616455,0.427246,0.000000,-0.183105
2391476250,0.00140381,0.00685120,-1.00601196,0.427246,0.000000,-0.183105
2394021875,0.00140381,0.00685120,-1.00601196,0.427246,0.000000,-0.122070
2401618791,0.00094604,0.00747681,-1.00625610,0.427246,0.000000,-0.122070
2404185333,0.00094604,0.00747681,-1.00625610,0.427246,0.061035,0.000000
2411805333,0.00183105,0.00732422,-1.00634766,0.427246,0.061035,0.000000
2414234166,0.00183105,0.00732422,-1.00634766,0.610352,0.061035,-0.061035
2421830291,0.00192261,0.00820923,-1.00738525,0.610352,0.061035,-0.061035
2424362833,0.00192261,0.00820923,-1.00738525,0.488281,0.183105,-0.183105
2431947041,0.00181580,0.00840759,-1.00535583,0.488281,0.183105,-0.183105
2434476791,0.00181580,0.00840759,-1.00535583,0.610352,0.244141,0.000000
2442041000,0.00309753,0.00848389,-1.00465393,0.610352,0.244141,0.000000
2444597125,0.00309753,0.00848389,-1.00465393,0.305176,0.061035,-0.061035
2452169041,0.00236511,0.00805664,-1.00859070,0.305176,0.061035,-0.061035
2454699375,0.00236511,0.00805664,-1.00859070,0.061035,0.061035,-0.122070
2462313500,0.00164795,0.00775146,-1.00958252,0.244141,0.061035,-0.061035
2472458875,0.00044250,0.00830078,-1.00587463,0.427246,0.122070,-0.122070
2480052500,0.00083923,0.00692749,-1.00439453,0.427246,0.122070,-0.122070
2482614833,0.00083923,0.00692749,-1.00439453,0.488281,0.000000,-0.183105
2490243041,0.00138855,0.00657654,-1.00500488,0.488281,0.000000,-0.183105
2492415333,0.00138855,0.00657654,-1.00500488,0.366211,0.061035,-0.122070
2500028833,0.00189209,0.00534058,-1.00515747,0.366211,0.061035,-0.122070
2502576791,0.00189209,0.00534058,-1.00515747,0.366211,0.183105,0.000000
2510136791,0.00123596,0.00550842,-1.00636292,0.366211,0.183105,0.000000
2512668208,0.00123596,0.00550842,-1.00636292,0.305176,0.183105,0.000000
2522312791,0.00155640,0.00604248,-1.00610352,0.305176,0.122070,-0.122070
2532466000,0.00231934,0.00738525,-1.00619507,0.488281,0.000000,-0.061035
2542103166,0.00209045,0.00877380,-1.00846863,0.488281,0.000000,-0.061035
2544668833,0.00209045,0.00877380,-1.00846863,0.488281,0.000000,-0.122070
2552307750,0.00257874,0.00811768,-1.00680542,0.488281,0.000000,-0.122070
2554873333,0.00257874,0.00811768,-1.00680542,0.244141,0.122070,0.000000
2559990166,0.00137329,0.00921631,-1.00584412,0.244141,0.122070,0.000000
2562543208,0.00137329,0.00921631,-1.00584412,0.305176,0.122070,0.000000
2570066875,0.00169373,0.00718689,-1.00532532,0.305176,0.122070,0.000000
2572611375,0.00169373,0.00718689,-1.00532532,0.305176,0.000000,-0.061035
2580199500,0.00155640,0.00711060,-1.00740051,0.305176,0.000000,-0.061035
2582755666,0.00155640,0.00711060,-1.00740051,0.305176,-0.061035,-0.061035
2590347166,0.00106812,0.00764465,-1.00643921,0.305176,-0.061035,-0.061035
2592879416,0.00106812,0.00764465,-1.00643921,0.183105,-0.061035,-0.061035
2600478333,0.00067139,0.00657654,-1.00782776,0.183105,-0.061035,-0.061035
2603032958,0.00067139,0.00657654,-1.00782776,0.244141,-0.061035,-0.122070
2610646083,0.00056458,0.00765991,-1.00700378,0.244141,-0.061035,-0.122070
2613201791,0.00056458,0.00765991,-1.00700378,0.122070,0.000000,-0.183105
2620828750,0.00166321,0.00648499,-1.00704956,0.122070,0.000000,-0.183105
2623377458,0.00166321,0.00648499,-1.00704956,0.122070,-0.061035,-0.122070
2630995166,0.00177002,0.00675964,-1.00749207,0.122070,-0.061035,-0.122070
2633547375,0.00177002,0.00675964,-1.00749207,-0.061035,-0.061035,-0.061035
2640789041,0.00166321,0.00816345,-1.00659180,-0.061035,-0.061035,-0.061035
2643331000,0.00166321,0.00816345,-1.00659180,0.000000,0.061035,-0.122070
2650926958,0.00224304,0.00779724,-1.00721741,0.000000,0.061035,-0.122070
2653472333,0.00224304,0.00779724,-1.00721741,0.000000,-0.122070,-0.122070
2661078291,0.00178528,0.00816345,-1.00392151,0.000000,-0.122070,-0.122070
2663229541,0.00178528,0.00816345,-1.00392151,-0.061035,-0.061035,-0.061035
2670833458,0.00105286,0.00895691,-1.00601196,-0.061035,-0.061035,-0.061035
2673376125,0.00105286,0.00895691,-1.00601196,-0.122070,0.061035,-0.183105
2680984041,0.00009155,0.00860596,-1.00727844,-0.122070,0.061035,-0.183105
2683545708,0.00009155,0.00860596,-1.00727844,0.305176,-0.061035,-0.122070
2690824458,-0.00079346,0.00741577,-1.00569153,0.305176,-0.061035,-0.122070
2693369083,-0.00079346,0.00741577,-1.00569153,0.122070,-0.122070,-0.183105
2700970583,0.00073242,0.00701904,-1.00430298,0.122070,-0.122070,-0.183105
2703528166,0.00073242,0.00701904,-1.00430298,0.244141,0.061035,-0.122070
2711129500,0.00140381,0.00732422,-1.00534058,0.244141,0.061035,-0.122070
2713674208,0.00140381,0.00732422,-1.00534058,0.305176,0.061035,-0.061035
2720945416,0.00233459,0.00695801,-1.00495911,0.305176,0.061035,-0.061035
2723489250,0.00233459,0.00695801,-1.00495911,0.366211,0.000000,0.000000
2730838458,0.00303650,0.00706482,-1.00495911,0.366211,0.000000,0.000000
2733384625,0.00303650,0.00706482,-1.00495911,0.305176,0.000000,-0.122070
2740704875,0.00402832,0.00788879,-1.00569153,0.305176,0.000000,-0.122070
2743244250,0.00402832,0.00788879,-1.00569153,0.305176,0.122070,-0.122070
2750592458,0.00407410,0.00746155,-1.00714111,0.305176,0.122070,-0.122070
2753131541,0.00407410,0.00746155,-1.00714111,0.427246,0.122070,-0.061035
2760481708,0.00332642,0.00718689,-1.00637817,0.427246,0.122070,-0.061035
2763023791,0.00332642,0.00718689,-1.00637817,0.183105,0.061035,-0.122070
2770630458,0.00152588,0.00733948,-1.00686646,0.183105,0.061035,-0.122070
2773173500,0.00152588,0.00733948,-1.00686646,0.305176,0.000000,-0.122070
2780777500,0.00053406,0.00749207,-1.00675964,0.305176,0.000000,-0.122070
2783323375,0.00053406,0.00749207,-1.00675964,0.305176,0.061035,-0.061035
2790933583,-0.00024414,0.00746155,-1.00706482,0.305176,0.061035,-0.061035
2793474708,-0.00024414,0.00746155,-1.00706482,0.305176,0.061035,-0.061035
2801098333,0.00001526,0.00732422,-1.00640869,0.305176,0.061035,-0.061035
2803654291,0.00001526,0.00732422,-1.00640869,0.183105,0.000000,-0.061035
2811246291,0.00035095,0.00808716,-1.00608826,0.183105,0.000000,-0.061035
2813797625,0.00035095,0.00808716,-1.00608826,0.183105,0.000000,-0.183105
2821405875,0.00027466,0.00866699,-1.00637817,0.183105,0.000000,-0.183105
2823967041,0.00027466,0.00866699,-1.00637817,0.244141,-0.061035,0.000000
2831145333,0.00128174,0.00892639,-1.00688171,0.244141,-0.061035,0.000000
2833689333,0.00128174,0.00892639,-1.00688171,0.305176,0.122070,-0.061035
2841276583,0.00140381,0.00848389,-1.00544739,0.305176,0.122070,-0.061035
2843817375,0.00140381,0.00848389,-1.00544739,0.244141,0.122070,0.000000
2851499000,0.00337219,0.00817871,-1.00561523,0.244141,0.122070,0.000000
2854047916,0.00337219,0.00817871,-1.00561523,0.427246,-0.061035,0.000000
2861641083,0.00340271,0.00775146,-1.00570679,0.427246,-0.061035,0.000000
2864182000,0.00340271,0.00775146,-1.00570679,0.366211,0.061035,-0.061035
2871775000,0.00183105,0.00805664,-1.00624084,0.366211,0.061035,-0.061035
2874315916,0.00183105,0.00805664,-1.00624084,0.183105,0.061035,-0.122070
2881942958,0.00238037,0.00692749,-1.00662231,0.183105,0.061035,-0.122070
2884499541,0.00238037,0.00692749,-1.00662231,0.305176,-0.061035,-0.122070
2892095375,0.00222778,0.00627136,-1.00779724,0.305176,-0.061035,-0.122070
2894648125,0.00222778,0.00627136,-1.00779724,0.244141,-0.061035,-0.122070
2902257500,0.00207520,0.00704956,-1.00625610,0.244141,-0.061035,-0.122070
2904643666,0.00207520,0.00704956,-1.00625610,0.244141,0.122070,-0.122070
2912272208,0.00170898,0.00706482,-1.00636292,0.244141,0.122070,-0.122070
2914820458,0.00170898,0.00706482,-1.00636292,0.366211,0.061035,0.000000
2922464833,0.00122070,0.00779724,-1.00646973,0.366211,0.061035,-0.061035
2932420916,0.00070190,0.00920105,-1.00634766,0.427246,-0.061035,-0.122070
2940028791,0.00111389,0.00796509,-1.00608826,0.427246,-0.061035,-0.122070
2942570500,0.00111389,0.00796509,-1.00608826,0.305176,0.061035,-0.061035
2950193666,0.00019836,0.00782776,-1.00592041,0.305176,0.061035,-0.061035
2952755583,0.00019836,0.00782776,-1.00592041,0.244141,0.000000,-0.061035
2960431791,0.00077820,0.00874329,-1.00619507,0.244141,0.000000,-0.061035
2962984291,0.00077820,0.00874329,-1.00619507,0.305176,0.061035,-0.061035
2970595333,0.00091553,0.00918579,-1.00538635,0.305176,0.061035,-0.061035
2973141916,0.00091553,0.00918579,-1.00538635,0.305176,0.061035,-0.061035
2980751208,0.00112915,0.00770569,-1.00569153,0.305176,0.061035,-0.061035
2983299291,0.00112915,0.00770569,-1.00569153,0.366211,0.061035,-0.061035
2990900833,0.00253296,0.00692749,-1.00711060,0.366211,0.061035,-0.061035
2993441666,0.00253296,0.00692749,-1.00711060,0.244141,0.061035,-0.061035
3001051000,0.00199890,0.00744629,-1.00643921,0.244141,0.061035,-0.061035
3003623166,0.00199890,0.00744629,-1.00643921,0.366211,0.061035,-0.061035
3011221916,0.00308228,0.00753784,-1.00698853,0.366211,0.061035,-0.061035
3013770458,0.00308228,0.00753784,-1.00698853,0.427246,0.061035,0.061035
3021370416,0.00312805,0.00674438,-1.00566101,0.427246,0.061035,0.061035
3023928041,0.00312805,0.00674438,-1.00566101,0.366211,0.183105,0.000000
3031527125,0.00164795,0.00662231,-1.00656128,0.366211,0.183105,0.000000
3034078375,0.00164795,0.00662231,-1.00656128,0.427246,0.061035,-0.122070
3041666000,0.00204468,0.00755310,-1.00511169,0.427246,0.061035,-0.122070
3044217291,0.00204468,0.00755310,-1.00511169,0.305176,0.061035,-0.122070
3051630083,0.00169373,0.00689697,-1.00518799,0.305176,0.061035,-0.122070
3054182916,0.00169373,0.00689697,-1.00518799,0.305176,0.061035,-0.183105
3061823708,0.00209045,0.00775146,-1.00646973,0.305176,0.061035,-0.183105
3064377541,0.00209045,0.00775146,-1.00646973,0.305176,0.061035,0.000000
3071717583,0.00192261,0.00796509,-1.00663757,0.305176,0.061035,0.000000
3074256583,0.00192261,0.00796509,-1.00663757,0.305176,0.183105,-0.061035
3081849666,0.00129700,0.00852966,-1.00552368,0.305176,0.183105,-0.061035
3084393958,0.00129700,0.00852966,-1.00552368,0.305176,0.061035,-0.122070
3091987791,0.00035095,0.00695801,-1.00515747,0.305176,0.061035,-0.122070
3094531375,0.00035095,0.00695801,-1.00515747,0.305176,0.122070,-0.122070
3102138125,0.00004578,0.00830078,-1.00590515,0.305176,0.122070,-0.122070
3104687333,0.00004578,0.00830078,-1.00590515,0.244141,0.061035,-0.061035
3111813916,0.00053406,0.00889587,-1.00646973,0.244141,0.061035,-0.061035
3114359333,0.00053406,0.00889587,-1.00646973,0.305176,0.000000,0.061035
3121961833,0.00080872,0.00776672,-1.00631714,0.305176,0.000000,0.061035
3124506208,0.00080872,0.00776672,-1.00631714,0.366211,0.061035,-0.061035
3131693125,0.00180054,0.00819397,-1.00547791,0.366211,0.061035,-0.061035
3134242625,0.00180054,0.00819397,-1.00547791,0.305176,0.122070,-0.061035
3141831916,0.00201416,0.00708008,-1.00505066,0.305176,0.122070,-0.061035
3144379041,0.00201416,0.00708008,-1.00505066,0.427246,0.061035,-0.061035
3151616708,0.00331116,0.00668335,-1.00607300,0.427246,0.061035,-0.061035
3154168333,0.00331116,0.00668335,-1.00607300,0.366211,0.061035,-0.061035
3161290125,0.00299072,0.00631714,-1.00712585,0.366211,0.061035,-0.061035
3163829708,0.00299072,0.00631714,-1.00712585,0.366211,0.122070,0.000000
3171515916,0.00215149,0.00611877,-1.00656128,0.366211,0.122070,0.000000
3174098166,0.00215149,0.00611877,-1.00656128,0.122070,0.000000,-0.244141
3181692666,0.00248718,0.00674438,-1.00651550,0.122070,0.000000,-0.244141
3184316666,0.00248718,0.00674438,-1.00651550,0.366211,0.122070,-0.122070
3191957250,0.00024414,0.00688171,-1.00656128,0.366211,0.122070,-0.122070
3194516583,0.00024414,0.00688171,-1.00656128,0.305176,0.000000,-0.122070
3202120125,0.00047302,0.00756836,-1.00570679,0.305176,0.000000,-0.122070
3204266583,0.00047302,0.00756836,-1.00570679,0.305176,0.061035,0.000000
3211915708,0.00109863,0.00804138,-1.00682068,0.305176,0.061035,0.000000
3214003375,0.00109863,0.00804138,-1.00682068,0.305176,0.183105,-0.061035
3221553000,0.00085449,0.00897217,-1.00553894,0.305176,0.183105,-0.061035
3224091250,0.00085449,0.00897217,-1.00553894,0.366211,0.122070,-0.061035
3231666125,0.00047302,0.00900269,-1.00531006,0.366211,0.122070,-0.061035
3234206250,0.00047302,0.00900269,-1.00531006,0.305176,0.122070,-0.122070
3241823916,0.00099182,0.00889587,-1.00625610,0.305176,0.122070,-0.122070
3244369208,0.00099182,0.00889587,-1.00625610,0.488281,0.122070,0.000000
3251939333,0.00112915,0.00901794,-1.00558472,0.488281,0.122070,0.000000
3254473833,0.00112915,0.00901794,-1.00558472,0.427246,0.061035,-0.061035
3262051166,0.00041199,0.00827026,-1.00648499,0.427246,0.061035,-0.061035
3264589375,0.00041199,0.00827026,-1.00648499,0.305176,-0.061035,0.061035
3271573125,0.00155640,0.00773621,-1.00555420,0.305176,-0.061035,0.061035
3273947416,0.00155640,0.00773621,-1.00555420,0.488281,0.061035,-0.122070
3281555375,0.00263977,0.00721741,-1.00627136,0.488281,0.061035,-0.122070
3284098000,0.00263977,0.00721741,-1.00627136,0.427246,-0.061035,-0.122070
3291694750,0.00218201,0.00657654,-1.00648499,0.427246,-0.061035,-0.122070
3294243208,0.00218201,0.00657654,-1.00648499,0.427246,0.000000,-0.061035
3301609416,0.00198364,0.00607300,-1.00653076,0.427246,0.000000,-0.061035
3304155875,0.00198364,0.00607300,-1.00653076,0.244141,0.061035,-0.122070
3311769958,0.00180054,0.00653076,-1.00601196,0.244141,0.061035,-0.122070
3314323916,0.00180054,0.00653076,-1.00601196,0.244141,0.061035,-0.122070
3321923416,0.00177002,0.00767517,-1.00650024,0.244141,0.061035,-0.122070
3324476625,0.00177002,0.00767517,-1.00650024,0.183105,0.061035,-0.122070
3332103916,0.00122070,0.00794983,-1.00558472,0.183105,0.061035,-0.122070
3334662916,0.00122070,0.00794983,-1.00558472,0.427246,0.183105,-0.061035
3342281416,0.00088501,0.00746155,-1.00567627,0.427246,0.183105,-0.061035
3344843250,0.00088501,0.00746155,-1.00567627,0.366211,0.122070,-0.122070
3352503125,0.00161743,0.00819397,-1.00613403,0.183105,0.061035,-0.061035
3360102958,0.00102234,0.00935364,-1.00581360,0.183105,0.061035,-0.061035
3362648000,0.00102234,0.00935364,-1.00581360,0.366211,0.000000,-0.061035
3370173208,0.00021362,0.00790405,-1.00553894,0.366211,0.000000,-0.061035
3375246958,0.00021362,0.00790405,-1.00553894,0.244141,0.061035,-0.122070
3382442083,0.00038147,0.00808716,-1.00607300,0.244141,0.061035,-0.122070
3384990625,0.00038147,0.00808716,-1.00607300,0.305176,-0.122070,0.000000
3390071458,0.00141907,0.00845337,-1.00506592,0.305176,-0.122070,0.000000
3395143750,0.00141907,0.00845337,-1.00506592,0.244141,0.061035,-0.183105
3400208666,0.00163269,0.00704956,-1.00599670,0.244141,0.061035,-0.183105
3404973875,0.00163269,0.00704956,-1.00599670,0.183105,0.122070,-0.061035
3410039666,0.00210571,0.00674438,-1.00569153,0.183105,0.122070,-0.061035
3415117875,0.00210571,0.00674438,-1.00569153,0.244141,0.061035,-0.122070
3420185500,0.00277710,0.00721741,-1.00622559,0.244141,0.061035,-0.122070
3425039000,0.00277710,0.00721741,-1.00622559,0.427246,0.122070,-0.061035
3431987583,0.00224304,0.00746155,-1.00581360,0.427246,0.122070,-0.061035
3434540875,0.00224304,0.00746155,-1.00581360,0.366211,0.000000,-0.122070
3442148500,0.00242615,0.00662231,-1.00657654,0.366211,0.000000,-0.122070
3444698875,0.00242615,0.00662231,-1.00657654,0.366211,0.122070,-0.183105
3452314291,0.00202942,0.00625610,-1.00582886,0.366211,0.122070,-0.183105
3454877833,0.00202942,0.00625610,-1.00582886,0.244141,0.000000,-0.183105
3462487750,0.00138855,0.00674438,-1.00566101,0.244141,0.000000,-0.183105
3465039166,0.00138855,0.00674438,-1.00566101,0.305176,-0.061035,0.000000
3470110041,0.00169373,0.00791931,-1.00601196,0.305176,-0.061035,0.000000
3475188375,0.00169373,0.00791931,-1.00601196,0.427246,-0.061035,-0.061035
3482418166,0.00184631,0.00714111,-1.00645447,0.427246,-0.061035,-0.061035
3484972291,0.00184631,0.00714111,-1.00645447,0.366211,0.122070,-0.122070
3490052583,0.00138855,0.00791931,-1.00610352,0.366211,0.122070,-0.122070
3495122833,0.00138855,0.00791931,-1.00610352,0.305176,0.000000,-0.122070
3500188708,0.00025940,0.00840759,-1.00572205,0.305176,0.000000,-0.122070
3504934583,0.00025940,0.00840759,-1.00572205,0.427246,0.061035,-0.122070
3510009166,0.00042725,0.00839233,-1.00595093,0.427246,0.061035,-0.122070
3515108000,0.00042725,0.00839233,-1.00595093,0.305176,0.061035,-0.183105
3520185500,0.00012207,0.00782776,-1.00585938,0.305176,0.061035,-0.183105
3525251458,0.00012207,0.00782776,-1.00585938,0.305176,0.061035,-0.061035
3530053875,0.00064087,0.00852966,-1.00569153,0.305176,0.061035,-0.061035
3535165416,0.00064087,0.00852966,-1.00569153,0.305176,0.122070,-0.122070
3540264291,0.00148010,0.00779724,-1.00662231,0.305176,0.122070,-0.122070
3545426791,0.00148010,0.00779724,-1.00662231,0.183105,0.000000,-0.061035
3550529125,0.00117493,0.00753784,-1.00657654,0.183105,0.000000,-0.061035
3553137083,0.00117493,0.00753784,-1.00657654,0.244141,-0.061035,-0.061035
3560774875,0.00112915,0.00701904,-1.00573730,0.244141,-0.061035,-0.061035
3563263333,0.00112915,0.00701904,-1.00573730,0.366211,0.000000,-0.122070
3570998375,0.00219727,0.00868225,-1.00605774,0.366211,0.000000,-0.122070
3573622291,0.00219727,0.00868225,-1.00605774,0.305176,0.000000,-0.122070
3581277791,0.00157166,0.00738525,-1.00617981,0.305176,0.000000,-0.122070
3583847500,0.00157166,0.00738525,-1.00617981,0.427246,0.000000,-0.061035
3591492875,0.00166321,0.00743103,-1.00588989,0.427246,0.000000,-0.061035
3593991416,0.00166321,0.00743103,-1.00588989,0.305176,0.061035,-0.122070
3601640958,0.00215149,0.00741577,-1.00575256,0.305176,0.061035,-0.122070
3604261708,0.00215149,0.00741577,-1.00575256,0.305176,0.122070,0.000000
3611708333,0.00215149,0.00726318,-1.00634766,0.305176,0.122070,0.000000
3614295791,0.00215149,0.00726318,-1.00634766,0.305176,0.122070,-0.122070
3621634250,0.00157166,0.00801086,-1.00608826,0.305176,0.122070,-0.122070
3624198166,0.00157166,0.00801086,-1.00608826,0.427246,0.000000,-0.122070
3631854458,0.00129700,0.00810242,-1.00578308,0.427246,0.000000,-0.122070
3634459083,0.00129700,0.00810242,-1.00578308,0.305176,0.000000,-0.061035
3641949875,0.00129700,0.00787354,-1.00572205,0.305176,0.000000,-0.061035
3644527708,0.00129700,0.00787354,-1.00572205,0.305176,0.244141,-0.122070
3652183625,0.00068665,0.00773621,-1.00608826,0.305176,0.244141,-0.122070
3654781333,0.00068665,0.00773621,-1.00608826,0.305176,0.000000,-0.061035
3662413875,0.00082397,0.00770569,-1.00593567,0.305176,0.000000,-0.061035
3664986041,0.00082397,0.00770569,-1.00593567,0.366211,0.183105,0.061035
3670115375,0.00141907,0.00813293,-1.00625610,0.366211,0.183105,0.061035
3675007958,0.00141907,0.00813293,-1.00625610,0.366211,0.061035,-0.061035
3680117208,0.00173950,0.00856018,-1.00624084,0.366211,0.061035,-0.061035
3685213208,0.00173950,0.00856018,-1.00624084,0.488281,-0.122070,0.000000
3690070541,0.00151062,0.00810242,-1.00578308,0.488281,-0.122070,0.000000
3694708791,0.00151062,0.00810242,-1.00578308,0.366211,0.061035,-0.183105
3702333375,0.00305176,0.00827026,-1.00668335,0.366211,0.061035,-0.183105
3704914833,0.00305176,0.00827026,-1.00668335,0.305176,0.061035,-0.122070
3710053666,0.00149536,0.00694275,-1.00726318,0.305176,0.061035,-0.122070
3715183958,0.00149536,0.00694275,-1.00726318,0.122070,0.122070,-0.061035
3720303708,0.00149536,0.00759888,-1.00633240,0.122070,0.122070,-0.061035
3725382500,0.00149536,0.00759888,-1.00633240,0.366211,0.061035,-0.061035
3730492375,0.00199890,0.00802612,-1.00508118,0.366211,0.061035,-0.061035
3733052833,0.00199890,0.00802612,-1.00508118,0.244141,0.061035,-0.061035
3740680291,0.00169373,0.00747681,-1.00570679,0.244141,0.061035,-0.061035
3743228791,0.00169373,0.00747681,-1.00570679,0.488281,0.183105,-0.122070
3750857041,0.00196838,0.00749207,-1.00610352,0.488281,0.183105,-0.122070
3753427583,0.00196838,0.00749207,-1.00610352,0.366211,-0.122070,-0.061035
3761052958,0.00134277,0.00701904,-1.00382996,0.366211,-0.122070,-0.061035
3763610916,0.00134277,0.00701904,-1.00382996,0.183105,0.061035,-0.122070
3771291083,0.00195312,0.00688171,-1.00506592,0.183105,0.061035,-0.122070
3773876041,0.00195312,0.00688171,-1.00506592,0.244141,0.061035,-0.122070
3781531083,0.00120544,0.00738525,-1.00627136,0.244141,0.061035,-0.122070
3784099708,0.00120544,0.00738525,-1.00627136,0.305176,-0.061035,0.000000
3791739541,0.00090027,0.00732422,-1.00567627,0.305176,-0.061035,0.000000
3794306291,0.00090027,0.00732422,-1.00567627,0.366211,0.061035,-0.122070
3801944250,0.00108337,0.00813293,-1.00656128,0.366211,0.061035,-0.122070
3804550500,0.00108337,0.00813293,-1.00656128,0.305176,0.000000,0.000000
3812195625,0.00199890,0.00816345,-1.00697327,0.305176,0.000000,0.000000
3814778875,0.00199890,0.00816345,-1.00697327,0.244141,0.122070,-0.122070
3822388375,0.00227356,0.00709534,-1.00500488,0.244141,0.122070,-0.122070
3824973166,0.00227356,0.00709534,-1.00500488,0.427246,0.183105,0.000000
3830136083,0.00141907,0.00784302,-1.00607300,0.427246,0.183105,0.000000
3835326375,0.00141907,0.00784302,-1.00607300,0.366211,0.000000,-0.061035
3840537583,0.00140381,0.00798035,-1.00588989,0.366211,0.000000,-0.061035
3843115875,0.00140381,0.00798035,-1.00588989,0.305176,0.061035,0.000000
3850838208,0.00202942,0.00726318,-1.00634766,0.305176,0.061035,0.000000
3853435041,0.00202942,0.00726318,-1.00634766,0.244141,0.000000,-0.183105
3861145666,0.00131226,0.00741577,-1.00634766,0.244141,0.000000,-0.183105
3863619083,0.00131226,0.00741577,-1.00634766,0.305176,0.122070,-0.122070
3871302708,0.00053406,0.00746155,-1.00569153,0.305176,0.122070,-0.122070
3873908208,0.00053406,0.00746155,-1.00569153,0.305176,0.061035,-0.122070
3881523000,0.00132751,0.00773621,-1.00656128,0.305176,0.061035,-0.122070
3883642791,0.00132751,0.00773621,-1.00656128,0.427246,0.061035,-0.122070
3891269083,0.00207520,0.00740051,-1.00666809,0.427246,0.061035,-0.122070
3893832250,0.00207520,0.00740051,-1.00666809,0.244141,0.061035,-0.061035
3901121708,0.00202942,0.00671387,-1.00544739,0.244141,0.061035,-0.061035
3903676125,0.00202942,0.00671387,-1.00544739,0.305176,0.122070,-0.061035
3911312458,0.00146484,0.00886536,-1.00555420,0.305176,0.122070,-0.061035
3913873291,0.00146484,0.00886536,-1.00555420,0.183105,-0.061035,-0.061035
3921496875,0.00186157,0.00878906,-1.00564575,0.183105,-0.061035,-0.061035
3924044750,0.00186157,0.00878906,-1.00564575,0.366211,0.000000,0.061035
3931648458,0.00105286,0.00820923,-1.00654602,0.366211,0.000000,0.061035
3934199375,0.00105286,0.00820923,-1.00654602,0.366211,0.000000,-0.183105
3941788416,0.00146484,0.00729370,-1.00585938,0.366211,0.000000,-0.183105
3944328291,0.00146484,0.00729370,-1.00585938,0.305176,0.000000,-0.183105
3951943125,0.00112915,0.00688171,-1.00685120,0.305176,0.000000,-0.183105
3954492541,0.00112915,0.00688171,-1.00685120,0.244141,0.000000,0.000000
3962092250,0.00074768,0.00733948,-1.00666809,0.244141,0.000000,0.000000
3964629291,0.00074768,0.00733948,-1.00666809,0.366211,0.122070,-0.122070
3972230625,0.00057983,0.00698853,-1.00706482,0.366211,0.122070,-0.122070
3974772166,0.00057983,0.00698853,-1.00706482,0.305176,0.000000,-0.122070
3982064958,0.00135803,0.00720215,-1.00640869,0.305176,0.000000,-0.122070
3984609041,0.00135803,0.00720215,-1.00640869,0.488281,0.000000,-0.061035
3992218875,0.00221252,0.00794983,-1.00651550,0.488281,0.000000,-0.061035
3994757333,0.00221252,0.00794983,-1.00651550,0.427246,0.183105,-0.061035
4002058166,0.00146484,0.00830078,-1.00682068,0.427246,0.183105,-0.061035
4004598250,0.00146484,0.00830078,-1.00682068,0.366211,0.061035,-0.061035
4012201916,0.00178528,0.00776672,-1.00651550,0.366211,0.061035,-0.061035
4014761000,0.00178528,0.00776672,-1.00651550,0.427246,0.122070,0.061035
4021652291,0.00224304,0.00701904,-1.00619507,0.427246,0.122070,0.061035
4024237250,0.00224304,0.00701904,-1.00619507,0.427246,0.122070,-0.061035
4031611333,0.00111389,0.00653076,-1.00628662,0.427246,0.122070,-0.061035
4034196125,0.00111389,0.00653076,-1.00628662,0.549316,0.061035,0.000000
4041846291,0.00065613,0.00669861,-1.00547791,0.549316,0.061035,0.000000
4044290541,0.00065613,0.00669861,-1.00547791,0.305176,0.061035,-0.183105
4052001833,0.00155640,0.00642395,-1.00514221,0.305176,0.061035,-0.183105
4054610500,0.00155640,0.00642395,-1.00514221,0.671387,0.000000,0.000000
4062283875,0.00157166,0.00709534,-1.00473022,0.671387,0.000000,0.000000
4064893541,0.00157166,0.00709534,-1.00473022,0.671387,0.183105,-0.122070
4072575666,0.00221252,0.00665283,-1.00276184,0.671387,0.183105,-0.122070
4075144708,0.00221252,0.00665283,-1.00276184,0.915527,-0.061035,-0.244141
4081979916,0.00163269,0.00675964,-1.00422668,0.915527,-0.061035,-0.244141
4084551166,0.00163269,0.00675964,-1.00422668,0.244141,-0.061035,-0.183105
4092189833,0.00224304,0.00535583,-1.00929260,0.244141,-0.061035,-0.183105
4094746541,0.00224304,0.00535583,-1.00929260,0.183105,-0.122070,-0.244141
4102383833,0.00209045,0.00613403,-1.01719666,0.183105,-0.122070,-0.244141
4104939416,0.00209045,0.00613403,-1.01719666,0.122070,-0.061035,-0.183105
4112577708,0.00225830,0.00865173,-1.00535583,0.122070,-0.061035,-0.183105
4115148375,0.00225830,0.00865173,-1.00535583,0.305176,0.122070,-0.061035
4120255750,0.00205994,0.00978088,-1.00358582,0.305176,0.122070,-0.061035
4125093916,0.00205994,0.00978088,-1.00358582,0.366211,0.122070,-0.122070
4132433666,0.00158691,0.01002502,-1.00305176,0.366211,0.122070,-0.122070
4135004041,0.00158691,0.01002502,-1.00305176,0.549316,0.061035,-0.122070
4140136875,0.00099182,0.00967407,-1.00431824,0.549316,0.061035,-0.122070
4145255041,0.00099182,0.00967407,-1.00431824,0.427246,0.122070,0.000000
4150190250,-0.00003052,0.00883484,-1.00460815,0.427246,0.122070,0.000000
4155289333,-0.00003052,0.00883484,-1.00460815,0.610352,0.183105,-0.061035
4160388583,0.00160217,0.00881958,-1.00607300,0.610352,0.183105,-0.061035
4162951875,0.00160217,0.00881958,-1.00607300,0.366211,0.000000,-0.183105
4170468625,0.00094604,0.00842285,-1.00608826,0.366211,0.000000,-0.183105
4173022250,0.00094604,0.00842285,-1.00608826,0.549316,0.061035,0.061035
4180369708,0.00044250,0.00729370,-1.00599670,0.549316,0.061035,0.061035
4185459708,0.00044250,0.00729370,-1.00599670,0.366211,0.000000,0.000000
4190403666,0.00244141,0.00611877,-1.00889587,0.366211,0.000000,0.000000
4192987000,0.00244141,0.00611877,-1.00889587,0.427246,0.061035,0.000000
4200579000,0.00277710,0.00576782,-1.00746155,0.427246,0.061035,0.000000
4205273875,0.00277710,0.00576782,-1.00746155,0.366211,0.122070,-0.061035
4210216791,0.00320435,0.00553894,-1.00457764,0.366211,0.122070,-0.061035
4215346000,0.00320435,0.00553894,-1.00457764,0.305176,0.122070,0.000000
4220441666,0.00325012,0.00469971,-1.00604248,0.305176,0.122070,0.000000
4222990625,0.00325012,0.00469971,-1.00604248,0.427246,0.122070,-0.061035
4230588416,0.00146484,0.00375366,-1.00677490,0.427246,0.122070,-0.061035
4233134666,0.00146484,0.00375366,-1.00677490,0.366211,0.061035,-0.183105
4240710166,0.00186157,0.00486755,-1.00614929,0.366211,0.061035,-0.183105
4243259041,0.00186157,0.00486755,-1.00614929,0.305176,0.000000,-0.244141
4251028791,0.00250244,0.00607300,-1.00566101,0.305176,0.000000,-0.244141
4253668833,0.00250244,0.00607300,-1.00566101,0.305176,0.244141,0.000000
4261322041,0.00167847,0.00691223,-1.00679016,0.305176,0.244141,0.000000
4263893916,0.00167847,0.00691223,-1.00679016,0.183105,0.183105,-0.061035
4271480291,0.00277710,0.00688171,-1.00712585,0.183105,0.183105,-0.061035
4274022625,0.00277710,0.00688171,-1.00712585,0.244141,0.000000,-0.183105
4281644083,0.00238037,0.00802612,-1.00730896,0.244141,0.000000,-0.183105
4284206250,0.00238037,0.00802612,-1.00730896,0.366211,0.000000,-0.183105
4291812916,-0.00024414,0.00907898,-1.00526428,0.366211,0.000000,-0.183105
4294361958,-0.00024414,0.00907898,-1.00526428,0.305176,0.061035,-0.061035
4301519916,0.00083923,0.00961304,-1.00628662,0.305176,0.061035,-0.061035
4304085875,0.00083923,0.00961304,-1.00628662,0.427246,0.122070,-0.061035
4311728875,0.00057983,0.00888062,-1.00630188,0.427246,0.122070,-0.061035
4314281625,0.00057983,0.00888062,-1.00630188,0.366211,0.000000,-0.061035
4321554375,0.00064087,0.00888062,-1.00703430,0.366211,0.000000,-0.061035
4324095000,0.00064087,0.00888062,-1.00703430,0.366211,0.122070,0.000000
4331733583,0.00114441,0.00875854,-1.00671387,0.366211,0.122070,0.000000
4334282166,0.00114441,0.00875854,-1.00671387,0.244141,0.000000,-0.122070
4341872958,0.00099182,0.00656128,-1.00630188,0.244141,0.000000,-0.122070
4344425708,0.00099182,0.00656128,-1.00630188,0.244141,0.000000,-0.122070
4351272750,0.00144958,0.00697327,-1.00564575,0.244141,0.000000,-0.122070
4353828500,0.00144958,0.00697327,-1.00564575,0.305176,0.061035,0.000000
4361488333,0.00152588,0.00616455,-1.00659180,0.305176,0.061035,0.000000
4364037458,0.00152588,0.00616455,-1.00659180,0.366211,0.061035,-0.061035
4371572250,0.00233459,0.00650024,-1.00549316,0.366211,0.061035,-0.061035
4374114583,0.00233459,0.00650024,-1.00549316,0.427246,0.000000,-0.122070
4381503208,0.00228882,0.00555420,-1.00538635,0.427246,0.000000,-0.122070
4384046875,0.00228882,0.00555420,-1.00538635,0.366211,0.061035,-0.122070
4391655458,0.00186157,0.00506592,-1.00531006,0.366211,0.061035,-0.122070
4394216166,0.00186157,0.00506592,-1.00531006,0.183105,-0.061035,-0.122070
4401824250,0.00178528,0.00646973,-1.00683594,0.183105,-0.061035,-0.122070
4404375500,0.00178528,0.00646973,-1.00683594,0.244141,0.000000,-0.183105
4411965083,0.00228882,0.00730896,-1.00706482,0.244141,0.000000,-0.183105
4414495541,0.00228882,0.00730896,-1.00706482,0.366211,0.183105,-0.061035
4421891583,0.00282288,0.00798035,-1.00616455,0.366211,0.183105,-0.061035
4424433000,0.00282288,0.00798035,-1.00616455,0.366211,0.000000,-0.122070
4432040250,0.00172424,0.00782776,-1.00524902,0.366211,0.000000,-0.122070
4434589416,0.00172424,0.00782776,-1.00524902,0.244141,0.000000,-0.122070
4442179208,0.00184631,0.00793457,-1.00627136,0.244141,0.000000,-0.122070
4444722291,0.00184631,0.00793457,-1.00627136,0.366211,0.000000,-0.061035
4451695583,0.00073242,0.00825500,-1.00582886,0.366211,0.000000,-0.061035
4454245791,0.00073242,0.00825500,-1.00582886,0.366211,0.122070,0.000000
4461866625,0.00097656,0.00827026,-1.00660706,0.366211,0.122070,0.000000
4464411125,0.00097656,0.00827026,-1.00660706,0.244141,0.061035,-0.061035
4471574083,0.00184631,0.00862122,-1.00611877,0.244141,0.061035,-0.061035
4474116000,0.00184631,0.00862122,-1.00611877,0.366211,0.061035,-0.061035
4481717666,0.00183105,0.00817871,-1.00643921,0.366211,0.061035,-0.061035
4484266916,0.00183105,0.00817871,-1.00643921,0.305176,0.061035,0.000000
4491867250,0.00177002,0.00755310,-1.00599670,0.305176,0.061035,0.000000
4494423875,0.00177002,0.00755310,-1.00599670,0.305176,0.000000,-0.061035
4502037458,0.00134277,0.00605774,-1.00669861,0.305176,0.000000,-0.061035
4504598250,0.00134277,0.00605774,-1.00669861,0.427246,0.000000,-0.183105
4512186458,0.00247192,0.00688171,-1.00747681,0.427246,0.000000,-0.183105
4514730375,0.00247192,0.00688171,-1.00747681,0.244141,-0.061035,-0.183105
4522020250,0.00215149,0.00550842,-1.00685120,0.244141,-0.061035,-0.183105
4524580166,0.00215149,0.00550842,-1.00685120,0.427246,0.183105,-0.122070
4532189416,0.00189209,0.00566101,-1.00608826,0.427246,0.183105,-0.122070
4534740500,0.00189209,0.00566101,-1.00608826,0.366211,-0.061035,-0.122070
4542275708,0.00166321,0.00613403,-1.00555420,0.366211,-0.061035,-0.122070
4544818916,0.00166321,0.00613403,-1.00555420,0.366211,0.122070,-0.122070
4552394375,0.00193787,0.00697327,-1.00709534,0.366211,0.122070,-0.122070
4554953041,0.00193787,0.00697327,-1.00709534,0.305176,-0.061035,-0.061035
4562588833,0.00172424,0.00723267,-1.00613403,0.305176,-0.061035,-0.061035
4565130416,0.00172424,0.00723267,-1.00613403,0.366211,0.000000,-0.183105
4572735166,0.00221252,0.00708008,-1.00634766,0.366211,0.000000,-0.183105
4575277708,0.00221252,0.00708008,-1.00634766,0.488281,0.000000,-0.244141
4580359916,0.00109863,0.00805664,-1.00593567,0.488281,0.000000,-0.244141
4582949333,0.00109863,0.00805664,-1.00593567,0.366211,0.122070,-0.061035
4590579875,0.00094604,0.00837708,-1.00573730,0.366211,0.122070,-0.061035
4593122291,0.00094604,0.00837708,-1.00573730,0.244141,0.061035,-0.061035
4600715083,0.00044250,0.00848389,-1.00547791,0.244141,0.061035,-0.061035
4603259791,0.00044250,0.00848389,-1.00547791,0.305176,0.061035,0.000000
4610846458,0.00050354,0.00836182,-1.00689697,0.305176,0.061035,0.000000
4613220583,0.00050354,0.00836182,-1.00689697,0.305176,0.061035,-0.122070
4620833541,0.00184631,0.00846863,-1.00547791,0.305176,0.061035,-0.122070
4623387000,0.00184631,0.00846863,-1.00547791,0.305176,0.000000,0.000000
4630636958,0.00196838,0.00781250,-1.00541687,0.305176,0.000000,0.000000
4633179833,0.00196838,0.00781250,-1.00541687,0.244141,0.061035,0.000000
4640777291,0.00149536,0.00662231,-1.00677490,0.244141,0.061035,0.000000
4643318541,0.00149536,0.00662231,-1.00677490,0.305176,0.061035,-0.122070
4650927958,0.00140381,0.00567627,-1.00709534,0.305176,0.061035,-0.122070
4653482916,0.00140381,0.00567627,-1.00709534,0.244141,0.061035,-0.122070
4661118000,0.00228882,0.00633240,-1.00605774,0.244141,0.061035,-0.122070
4663663250,0.00228882,0.00633240,-1.00605774,0.305176,0.122070,-0.122070
4671112916,0.00241089,0.00610352,-1.00634766,0.305176,0.122070,-0.122070
4673665625,0.00241089,0.00610352,-1.00634766,0.366211,0.122070,0.000000
4681269166,0.00158691,0.00564575,-1.00663757,0.366211,0.122070,0.000000
4683839250,0.00158691,0.00564575,-1.00663757,0.488281,0.061035,-0.061035
4691599500,0.00224304,0.00663757,-1.00592041,0.488281,0.061035,-0.061035
4694185416,0.00224304,0.00663757,-1.00592041,0.305176,0.122070,-0.244141
4701800291,0.00267029,0.00627136,-1.00570679,0.305176,0.122070,-0.244141
4704371625,0.00267029,0.00627136,-1.00570679,0.244141,0.183105,-0.183105
4712000041,0.00155640,0.00762939,-1.00650024,0.244141,0.183105,-0.183105
4714570416,0.00155640,0.00762939,-1.00650024,0.183105,0.000000,-0.122070
4722058458,0.00068665,0.00764465,-1.00631714,0.183105,0.000000,-0.122070
4724605083,0.00068665,0.00764465,-1.00631714,0.366211,0.000000,-0.122070
4732217916,0.00080872,0.00706482,-1.00569153,0.366211,0.000000,-0.122070
4734749958,0.00080872,0.00706482,-1.00569153,0.427246,0.061035,-0.061035
4742362041,0.00028992,0.00833130,-1.00569153,0.427246,0.061035,-0.061035
4744899916,0.00028992,0.00833130,-1.00569153,0.305176,0.061035,-0.122070
4752502333,0.00129700,0.00810242,-1.00621033,0.305176,0.061035,-0.122070
4755054625,0.00129700,0.00810242,-1.00621033,0.305176,0.000000,-0.061035
4762180000,0.00059509,0.00836182,-1.00607300,0.305176,0.000000,-0.061035
4764708333,0.00059509,0.00836182,-1.00607300,0.305176,-0.061035,-0.061035
4772307000,0.00085449,0.00816345,-1.00637817,0.305176,-0.061035,-0.061035
4774505500,0.00085449,0.00816345,-1.00637817,0.305176,-0.061035,-0.061035
4782110416,0.00192261,0.00708008,-1.00584412,0.305176,-0.061035,-0.061035
4784659333,0.00192261,0.00708008,-1.00584412,0.305176,0.000000,0.000000
4791982208,0.00251770,0.00692749,-1.00642395,0.305176,0.000000,0.000000
4794548750,0.00251770,0.00692749,-1.00642395,0.366211,0.061035,-0.183105
4802163916,0.00189209,0.00657654,-1.00505066,0.366211,0.061035,-0.183105
4804730833,0.00189209,0.00657654,-1.00505066,0.244141,0.122070,-0.061035
4812330000,0.00152588,0.00663757,-1.00521851,0.244141,0.122070,-0.061035
4814873333,0.00152588,0.00663757,-1.00521851,0.427246,0.122070,-0.061035
4822463291,0.00213623,0.00624084,-1.00633240,0.427246,0.122070,-0.061035
4824634916,0.00213623,0.00624084,-1.00633240,0.305176,0.061035,-0.122070
4831562500,0.00242615,0.00607300,-1.00668335,0.305176,0.061035,-0.122070
4834103083,0.00242615,0.00607300,-1.00668335,0.305176,0.122070,-0.061035
4841699708,0.00213623,0.00689697,-1.00595093,0.305176,0.122070,-0.061035
4844238541,0.00213623,0.00689697,-1.00595093,0.305176,0.000000,0.000000
4851843250,0.00144958,0.00688171,-1.00630188,0.305176,0.000000,0.000000
4854391666,0.00144958,0.00688171,-1.00630188,0.122070,-0.061035,0.000000
4862006083,0.00189209,0.00737000,-1.00521851,0.122070,-0.061035,0.000000
4864558333,0.00189209,0.00737000,-1.00521851,0.244141,0.000000,-0.122070
4872163750,0.00172424,0.00796509,-1.00697327,0.244141,0.000000,-0.122070
4874702708,0.00172424,0.00796509,-1.00697327,0.549316,0.183105,-0.122070
4881925458,0.00076294,0.00823975,-1.00570679,0.549316,0.183105,-0.122070
4884490375,0.00076294,0.00823975,-1.00570679,0.244141,0.122070,-0.244141
4892098958,0.00112915,0.00733948,-1.00537109,0.244141,0.122070,-0.244141
4894654958,0.00112915,0.00733948,-1.00537109,0.427246,0.061035,0.000000
4902244416,0.00227356,0.00715637,-1.00515747,0.427246,0.061035,0.000000
4904798666,0.00227356,0.00715637,-1.00515747,0.366211,0.244141,0.000000
4912038583,0.00132751,0.00706482,-1.00743103,0.366211,0.244141,0.000000
4914587791,0.00132751,0.00706482,-1.00743103,0.427246,0.122070,0.061035
4922179666,0.00128174,0.00704956,-1.00598145,0.427246,0.122070,0.061035
4924719166,0.00128174,0.00704956,-1.00598145,0.488281,0.061035,0.061035
4932332750,0.00193787,0.00683594,-1.00558472,0.488281,0.061035,0.061035
4934887833,0.00193787,0.00683594,-1.00558472,0.427246,0.000000,-0.061035
4942477458,0.00099182,0.00753784,-1.00598145,0.427246,0.000000,-0.061035
4945018333,0.00099182,0.00753784,-1.00598145,0.183105,-0.061035,-0.061035
4952359416,0.00183105,0.00695801,-1.00607300,0.183105,-0.061035,-0.061035
4954914875,0.00183105,0.00695801,-1.00607300,0.366211,-0.061035,-0.122070
4962375958,0.00209045,0.00706482,-1.00575256,0.366211,-0.061035,-0.122070
4964917541,0.00209045,0.00706482,-1.00575256,0.366211,0.061035,-0.183105
4972504083,0.00225830,0.00706482,-1.00621033,0.366211,0.061035,-0.183105
4975054083,0.00225830,0.00706482,-1.00621033,0.488281,0.061035,-0.061035
4982403541,0.00207520,0.00646973,-1.00508118,0.488281,0.061035,-0.061035
4984952250,0.00207520,0.00646973,-1.00508118,0.427246,0.122070,-0.122070
4992063208,0.00167847,0.00686646,-1.00585938,0.427246,0.122070,-0.122070
4994413000,0.00167847,0.00686646,-1.00585938,0.244141,-0.122070,-0.183105
5001600250,0.00245667,0.00737000,-1.00627136,0.244141,-0.122070,-0.183105
5004157541,0.00245667,0.00737000,-1.00627136,0.427246,0.061035,-0.244141
5011762750,0.00241089,0.00697327,-1.00599670,0.427246,0.061035,-0.244141
5014305000,0.00241089,0.00697327,-1.00599670,0.366211,-0.061035,-0.122070
5021586208,0.00125122,0.00743103,-1.00561523,0.366211,-0.061035,-0.122070
5024136125,0.00125122,0.00743103,-1.00561523,0.305176,0.061035,-0.061035
5031725833,0.00205994,0.00715637,-1.00599670,0.305176,0.061035,-0.061035
5034265500,0.00205994,0.00715637,-1.00599670,0.366211,-0.061035,-0.061035
5041774208,0.00155640,0.00708008,-1.00598145,0.366211,-0.061035,-0.061035
5044318333,0.00155640,0.00708008,-1.00598145,0.244141,0.061035,0.000000
5051934416,0.00180054,0.00704956,-1.00567627,0.244141,0.061035,0.000000
5054486291,0.00180054,0.00704956,-1.00567627,0.244141,0.183105,-0.183105
5062106666,0.00270081,0.00764465,-1.00543213,0.244141,0.183105,-0.183105
5064652708,0.00270081,0.00764465,-1.00543213,0.305176,0.061035,-0.122070
5072250916,0.00077820,0.00785828,-1.00598145,0.305176,0.061035,-0.122070
5074792250,0.00077820,0.00785828,-1.00598145,0.366211,-0.061035,-0.061035
5082408041,0.00080872,0.00804138,-1.00585938,0.366211,-0.061035,-0.061035
5084980000,0.00080872,0.00804138,-1.00585938,0.366211,0.061035,0.000000
5092591250,0.00120544,0.00755310,-1.00581360,0.366211,0.061035,0.000000
5095164708,0.00120544,0.00755310,-1.00581360,0.366211,0.122070,-0.183105
5102827666,0.00126648,0.00747681,-1.00648499,0.366211,0.122070,-0.183105
5105416500,0.00126648,0.00747681,-1.00648499,0.366211,0.061035,-0.061035
5110519625,0.00259399,0.00700378,-1.00631714,0.366211,0.061035,-0.061035
5113111750,0.00259399,0.00700378,-1.00631714,0.244141,-0.061035,-0.122070
5120782375,0.00245667,0.00608826,-1.00688171,0.244141,-0.061035,-0.122070
5123345041,0.00245667,0.00608826,-1.00688171,0.183105,-0.061035,-0.122070
5130730583,0.00184631,0.00607300,-1.00660706,0.183105,-0.061035,-0.122070
5133281708,0.00184631,0.00607300,-1.00660706,0.244141,0.061035,-0.122070
5140610750,0.00250244,0.00613403,-1.00592041,0.244141,0.061035,-0.122070
5143157041,0.00250244,0.00613403,-1.00592041,0.549316,0.122070,-0.183105
5150516625,0.00242615,0.00663757,-1.00524902,0.549316,0.122070,-0.183105
5153086958,0.00242615,0.00663757,-1.00524902,0.305176,0.000000,0.000000
5160687333,0.00239563,0.00712585,-1.00538635,0.305176,0.000000,0.000000
5163222500,0.00239563,0.00712585,-1.00538635,0.305176,0.061035,-0.122070
5170803500,0.00231934,0.00709534,-1.00559998,0.305176,0.061035,-0.122070
5173141250,0.00231934,0.00709534,-1.00559998,0.305176,0.183105,-0.061035
5180499833,0.00184631,0.00715637,-1.00566101,0.305176,0.183105,-0.061035
5183049500,0.00184631,0.00715637,-1.00566101,0.305176,0.061035,-0.122070
5192718791,0.00134277,0.00718689,-1.00540161,0.305176,0.061035,-0.122070
5195277375,0.00134277,0.00718689,-1.00540161,0.305176,0.061035,-0.183105
5200353416,0.00152588,0.00820923,-1.00634766,0.305176,0.061035,-0.183105
5205466291,0.00152588,0.00820923,-1.00634766,0.305176,0.000000,-0.122070
5210531833,0.00245667,0.00845337,-1.00605774,0.305176,0.000000,-0.122070
5213064833,0.00245667,0.00845337,-1.00605774,0.183105,0.061035,-0.061035
5220329708,0.00175476,0.00811768,-1.00590515,0.183105,0.061035,-0.061035
5225381750,0.00175476,0.00811768,-1.00590515,0.244141,0.000000,0.000000
5230461416,0.00093079,0.00756836,-1.00585938,0.244141,0.000000,0.000000
5233002708,0.00093079,0.00756836,-1.00585938,0.427246,0.061035,-0.061035
5240573416,0.00129700,0.00727844,-1.00650024,0.427246,0.061035,-0.061035
5243099000,0.00129700,0.00727844,-1.00650024,0.244141,0.061035,-0.122070
5252503291,0.00114441,0.00677490,-1.00640869,0.244141,0.061035,-0.122070
5255040208,0.00114441,0.00677490,-1.00640869,0.427246,-0.061035,-0.122070
5262623916,0.00207520,0.00607300,-1.00598145,0.427246,-0.061035,-0.122070
5265161208,0.00207520,0.00607300,-1.00598145,0.305176,0.061035,0.000000
5272588708,0.00268555,0.00621033,-1.00637817,0.305176,0.061035,0.000000
5275126500,0.00268555,0.00621033,-1.00637817,0.305176,0.061035,-0.061035
5281965166,0.00262451,0.00622559,-1.00569153,0.305176,0.061035,-0.061035
5284500041,0.00262451,0.00622559,-1.00569153,0.427246,0.061035,-0.061035
5291974583,0.00241089,0.00651550,-1.00581360,0.427246,0.061035,-0.061035
5294522208,0.00241089,0.00651550,-1.00581360,0.366211,0.061035,-0.122070
5302121291,0.00157166,0.00604248,-1.00598145,0.366211,0.061035,-0.122070
5304641000,0.00157166,0.00604248,-1.00598145,0.244141,0.000000,-0.244141
5312237250,0.00172424,0.00654602,-1.00524902,0.244141,0.000000,-0.244141
5314779041,0.00172424,0.00654602,-1.00524902,0.305176,0.000000,0.000000
5321976000,0.00120544,0.00717163,-1.00575256,0.305176,0.000000,0.000000
5324517041,0.00120544,0.00717163,-1.00575256,0.366211,0.061035,-0.122070
5331953333,0.00091553,0.00865173,-1.00622559,0.366211,0.061035,-0.122070
5334507083,0.00091553,0.00865173,-1.00622559,0.427246,0.061035,-0.061035
5342129500,0.00117493,0.00773621,-1.00688171,0.427246,0.061035,-0.061035
5344692791,0.00117493,0.00773621,-1.00688171,0.305176,0.061035,0.000000
5352365791,0.00117493,0.00833130,-1.00654602,0.305176,0.061035,0.000000
5354981166,0.00117493,0.00833130,-1.00654602,0.305176,-0.061035,-0.061035
5362636958,0.00077820,0.00851440,-1.00645447,0.305176,-0.061035,-0.061035
5365232833,0.00077820,0.00851440,-1.00645447,0.244141,0.061035,0.000000
5372912250,0.00119019,0.00721741,-1.00614929,0.244141,0.061035,0.000000
5375499250,0.00119019,0.00721741,-1.00614929,0.366211,0.122070,-0.122070
5380556208,0.00112915,0.00706482,-1.00701904,0.366211,0.122070,-0.122070
5383105333,0.00112915,0.00706482,-1.00701904,0.244141,0.061035,0.000000
5390747041,0.00199890,0.00717163,-1.00524902,0.244141,0.061035,0.000000
5393322833,0.00199890,0.00717163,-1.00524902,0.427246,0.000000,-0.061035
5400950375,0.00144958,0.00657654,-1.00556946,0.427246,0.000000,-0.061035
5403516916,0.00144958,0.00657654,-1.00556946,0.305176,0.061035,-0.183105
5411179666,0.00157166,0.00610352,-1.00654602,0.305176,0.061035,-0.183105
5413800666,0.00157166,0.00610352,-1.00654602,0.183105,0.061035,-0.122070
5421480291,0.00225830,0.00714111,-1.00692749,0.183105,0.061035,-0.122070
5424066583,0.00225830,0.00714111,-1.00692749,0.366211,0.061035,-0.061035
5431195000,0.00289917,0.00781250,-1.00549316,0.366211,0.061035,-0.061035
5433749875,0.00289917,0.00781250,-1.00549316,0.244141,0.000000,-0.061035
5441365208,0.00296021,0.00656128,-1.00659180,0.244141,0.000000,-0.061035
5443918041,0.00296021,0.00656128,-1.00659180,0.366211,-0.061035,-0.061035
5451539583,0.00177002,0.00733948,-1.00686646,0.366211,-0.061035,-0.061035
5454119541,0.00177002,0.00733948,-1.00686646,0.183105,0.000000,-0.183105
5461396208,0.00015259,0.00747681,-1.00614929,0.183105,0.000000,-0.183105
5463981333,0.00015259,0.00747681,-1.00614929,0.366211,0.000000,0.000000
5471627541,0.00126648,0.00761414,-1.00543213,0.366211,0.000000,0.000000
5474189333,0.00126648,0.00761414,-1.00543213,0.366211,0.122070,-0.183105
5481799541,0.00155640,0.00711060,-1.00660706,0.366211,0.122070,-0.183105
5484341583,0.00155640,0.00711060,-1.00660706,0.244141,0.000000,-0.122070
5491980125,0.00199890,0.00694275,-1.00671387,0.244141,0.000000,-0.122070
5494529250,0.00199890,0.00694275,-1.00671387,0.183105,0.000000,0.000000
5502194791,0.00238037,0.00729370,-1.00714111,0.183105,0.000000,0.000000
5504576416,0.00238037,0.00729370,-1.00714111,0.244141,0.061035,-0.122070
5512232041,0.00135803,0.00755310,-1.00567627,0.244141,0.061035,-0.122070
5514800416,0.00135803,0.00755310,-1.00567627,0.305176,0.122070,-0.244141
5522402666,0.00097656,0.00651550,-1.00581360,0.305176,0.122070,-0.244141
5524934000,0.00097656,0.00651550,-1.00581360,0.244141,0.061035,-0.122070
5532542333,0.00157166,0.00732422,-1.00569153,0.244141,0.061035,-0.122070
5535103083,0.00157166,0.00732422,-1.00569153,0.305176,0.061035,-0.122070
5542746958,0.00177002,0.00683594,-1.00689697,0.305176,0.061035,-0.122070
5545315666,0.00177002,0.00683594,-1.00689697,0.305176,0.061035,-0.061035
5550415125,0.00175476,0.00724792,-1.00637817,0.305176,0.061035,-0.061035
5552961500,0.00175476,0.00724792,-1.00637817,0.122070,-0.183105,-0.122070
5560597833,0.00227356,0.00737000,-1.00660706,0.122070,-0.183105,-0.122070
5563148333,0.00227356,0.00737000,-1.00660706,0.244141,0.183105,-0.183105
5570737875,0.00143433,0.00772095,-1.00579834,0.244141,0.183105,-0.183105
5573208125,0.00143433,0.00772095,-1.00579834,0.305176,0.183105,-0.122070
5580659750,0.00013733,0.00738525,-1.00593567,0.305176,0.183105,-0.122070
5583209000,0.00013733,0.00738525,-1.00593567,0.183105,0.122070,0.000000
5590803750,0.00096130,0.00737000,-1.00605774,0.183105,0.122070,0.000000
5593347416,0.00096130,0.00737000,-1.00605774,0.244141,0.061035,-0.061035
5600472875,0.00167847,0.00729370,-1.00582886,0.244141,0.061035,-0.061035
5603025666,0.00167847,0.00729370,-1.00582886,0.305176,0.000000,0.000000
5610629750,0.00189209,0.00753784,-1.00593567,0.305176,0.000000,0.000000
5613182541,0.00189209,0.00753784,-1.00593567,0.366211,-0.122070,-0.122070
5622383625,0.00187683,0.00706482,-1.00590515,0.366211,-0.122070,-0.122070
5624948000,0.00187683,0.00706482,-1.00590515,0.427246,0.183105,0.000000
5632576416,0.00209045,0.00648499,-1.00660706,0.427246,0.183105,0.000000
5635113000,0.00209045,0.00648499,-1.00660706,0.366211,0.061035,-0.061035
5642701333,0.00245667,0.00808716,-1.00570679,0.366211,0.061035,-0.061035
5645245333,0.00245667,0.00808716,-1.00570679,0.305176,0.122070,-0.122070
5652385958,0.00114441,0.00717163,-1.00659180,0.305176,0.122070,-0.122070
5655031666,0.00114441,0.00717163,-1.00659180,0.427246,0.122070,0.000000
5662647375,0.00181580,0.00712585,-1.00636292,0.427246,0.122070,0.000000
5665207708,0.00181580,0.00712585,-1.00636292,0.244141,-0.061035,-0.122070
5672827958,0.00270081,0.00773621,-1.00732422,0.244141,-0.061035,-0.122070
5675415333,0.00270081,0.00773621,-1.00732422,0.366211,0.061035,-0.061035
5680504958,0.00119019,0.00747681,-1.00624084,0.366211,0.061035,-0.061035
5683048083,0.00119019,0.00747681,-1.00624084,0.366211,0.061035,-0.122070
5690683250,0.00146484,0.00727844,-1.00599670,0.366211,0.061035,-0.122070
5693237708,0.00146484,0.00727844,-1.00599670,0.244141,0.061035,-0.061035
5700828208,0.00149536,0.00703430,-1.00552368,0.244141,0.061035,-0.061035
5703391500,0.00149536,0.00703430,-1.00552368,0.366211,0.122070,0.000000
5710653708,0.00109863,0.00679016,-1.00625610,0.366211,0.122070,0.000000
5713209708,0.00109863,0.00679016,-1.00625610,0.366211,0.122070,0.000000
5720806875,0.00137329,0.00721741,-1.00578308,0.366211,0.122070,0.000000
5723353541,0.00137329,0.00721741,-1.00578308,0.366211,0.183105,0.061035
5730843250,0.00138855,0.00729370,-1.00616455,0.366211,0.183105,0.061035
5733389666,0.00138855,0.00729370,-1.00616455,0.244141,-0.061035,-0.061035
5740981041,0.00064087,0.00675964,-1.00625610,0.244141,-0.061035,-0.061035
5743547583,0.00064087,0.00675964,-1.00625610,0.183105,0.122070,-0.183105
5751163833,0.00126648,0.00611877,-1.00677490,0.183105,0.122070,-0.183105
5753755958,0.00126648,0.00611877,-1.00677490,0.305176,0.061035,0.000000
5761403125,0.00213623,0.00675964,-1.00605774,0.305176,0.061035,0.000000
5763963333,0.00213623,0.00675964,-1.00605774,0.305176,0.000000,-0.061035
5771587083,0.00291443,0.00721741,-1.00527954,0.305176,0.000000,-0.061035
5774142666,0.00291443,0.00721741,-1.00527954,0.305176,0.000000,-0.061035
5781772333,0.00268555,0.00764465,-1.00531006,0.305176,0.000000,-0.061035
5784327291,0.00268555,0.00764465,-1.00531006,0.488281,0.122070,-0.183105
5791936416,0.00164795,0.00686646,-1.00630188,0.488281,0.122070,-0.183105
5794507041,0.00164795,0.00686646,-1.00630188,0.488281,0.000000,-0.061035
5802120750,0.00109863,0.00746155,-1.00605774,0.488281,0.000000,-0.061035
5804663708,0.00109863,0.00746155,-1.00605774,0.305176,0.061035,-0.122070
5812260208,0.00151062,0.00750732,-1.00543213,0.305176,0.061035,-0.122070
5814808333,0.00151062,0.00750732,-1.00543213,0.244141,-0.061035,0.000000
5822421958,0.00094604,0.00712585,-1.00563049,0.244141,-0.061035,0.000000
5824971583,0.00094604,0.00712585,-1.00563049,0.244141,0.000000,-0.122070
5832581750,0.00093079,0.00732422,-1.00604248,0.244141,0.000000,-0.122070
5835141625,0.00093079,0.00732422,-1.00604248,0.244141,0.061035,-0.244141
5842862458,0.00115967,0.00752258,-1.00508118,0.244141,0.061035,-0.244141
5845448500,0.00115967,0.00752258,-1.00508118,0.244141,0.000000,-0.122070
5850574000,0.00105286,0.00697327,-1.00552368,0.244141,0.000000,-0.122070
5853129666,0.00105286,0.00697327,-1.00552368,0.183105,-0.061035,-0.061035
5860681208,0.00186157,0.00698853,-1.00581360,0.183105,-0.061035,-0.061035
5863053875,0.00186157,0.00698853,-1.00581360,0.122070,0.000000,-0.122070
5870617583,0.00160217,0.00759888,-1.00659180,0.122070,0.000000,-0.122070
5873184875,0.00160217,0.00759888,-1.00659180,0.366211,0.061035,-0.183105
5880800250,0.00163269,0.00782776,-1.00556946,0.366211,0.061035,-0.183105
5883367041,0.00163269,0.00782776,-1.00556946,0.244141,0.061035,0.000000
5893527791,0.00088501,0.00727844,-1.00541687,0.366211,0.061035,-0.061035
5901153125,0.00262451,0.00669861,-1.00617981,0.366211,0.061035,-0.061035
5903729375,0.00262451,0.00669861,-1.00617981,0.244141,0.061035,-0.183105
5911327958,0.00230408,0.00675964,-1.00619507,0.244141,0.061035,-0.183105
5913898958,0.00230408,0.00675964,-1.00619507,0.305176,-0.122070,-0.122070
5921549750,0.00190735,0.00708008,-1.00590515,0.305176,-0.122070,-0.122070
5924133291,0.00190735,0.00708008,-1.00590515,0.305176,0.061035,-0.183105
5931761125,0.00247192,0.00685120,-1.00602722,0.305176,0.061035,-0.183105
5934344375,0.00247192,0.00685120,-1.00602722,0.305176,0.000000,-0.061035
5942023208,0.00242615,0.00700378,-1.00523376,0.305176,0.000000,-0.061035
5944601541,0.00242615,0.00700378,-1.00523376,0.305176,0.000000,-0.244141
5952238041,0.00190735,0.00642395,-1.00634766,0.305176,0.000000,-0.244141
5954797625,0.00190735,0.00642395,-1.00634766,0.305176,0.183105,-0.061035
5962414708,0.00137329,0.00802612,-1.00518799,0.305176,0.183105,-0.061035
5965000791,0.00137329,0.00802612,-1.00518799,0.122070,0.000000,-0.122070
5972630958,0.00148010,0.00764465,-1.00611877,0.122070,0.000000,-0.122070
5975205541,0.00148010,0.00764465,-1.00611877,0.305176,0.061035,-0.122070
5982390958,0.00210571,0.00782776,-1.00584412,0.305176,0.061035,-0.122070
5984662625,0.00210571,0.00782776,-1.00584412,0.183105,0.122070,0.000000
5992283541,0.00224304,0.00730896,-1.00584412,0.183105,0.122070,0.000000
5994839000,0.00224304,0.00730896,-1.00584412,0.244141,0.061035,-0.183105
6002032916,0.00119019,0.00778198,-1.00637817,0.244141,0.061035,-0.183105
6004572166,0.00119019,0.00778198,-1.00637817,0.366211,0.061035,0.000000
6012162125,0.00148010,0.00799561,-1.00613403,0.366211,0.061035,0.000000
6014715708,0.00148010,0.00799561,-1.00613403,0.305176,-0.122070,0.000000
6022368875,0.00213623,0.00863647,-1.00498962,0.305176,-0.122070,0.000000
6024949166,0.00213623,0.00863647,-1.00498962,0.305176,0.122070,-0.061035
6032518625,0.00128174,0.00770569,-1.00599670,0.305176,0.122070,-0.061035
6035084708,0.00128174,0.00770569,-1.00599670,0.305176,0.061035,-0.183105
6042681125,0.00202942,0.00648499,-1.00592041,0.305176,0.061035,-0.183105
6045234000,0.00202942,0.00648499,-1.00592041,0.244141,-0.061035,-0.122070
6052918250,0.00158691,0.00625610,-1.00599670,0.244141,-0.061035,-0.122070
6055466375,0.00158691,0.00625610,-1.00599670,0.183105,0.000000,-0.122070
6060532000,0.00086975,0.00610352,-1.00602722,0.183105,0.000000,-0.122070
6063083750,0.00086975,0.00610352,-1.00602722,0.244141,-0.061035,-0.244141
6073429541,0.00166321,0.00689697,-1.00604248,0.244141,0.000000,-0.122070
6081036583,0.00178528,0.00747681,-1.00590515,0.244141,0.000000,-0.122070
6083589708,0.00178528,0.00747681,-1.00590515,0.366211,0.183105,-0.061035
6093424041,0.00277710,0.00653076,-1.00581360,0.244141,0.000000,-0.183105
6101023791,0.00288391,0.00740051,-1.00602722,0.244141,0.000000,-0.183105
6103586333,0.00288391,0.00740051,-1.00602722,0.366211,0.061035,-0.061035
6113372250,0.00202942,0.00776672,-1.00611877,0.488281,0.122070,-0.122070
6121085083,0.00250244,0.00726318,-1.00564575,0.488281,0.122070,-0.122070
6123660166,0.00250244,0.00726318,-1.00564575,0.427246,0.000000,0.000000
6131320625,0.00213623,0.00724792,-1.00614929,0.427246,0.000000,0.000000
6133920250,0.00213623,0.00724792,-1.00614929,0.244141,-0.061035,-0.244141
6141593291,0.00100708,0.00627136,-1.00613403,0.244141,-0.061035,-0.244141
6144190083,0.00100708,0.00627136,-1.00613403,0.244141,0.061035,-0.061035
6151739875,0.00025940,0.00662231,-1.00485229,0.244141,0.061035,-0.061035
6154361625,0.00025940,0.00662231,-1.00485229,0.305176,0.061035,-0.061035
6162030666,0.00111389,0.00685120,-1.00415039,0.305176,0.061035,-0.061035
6164594625,0.00111389,0.00685120,-1.00415039,0.366211,-0.061035,0.000000
6172194416,0.00100708,0.00775146,-1.00520325,0.366211,-0.061035,0.000000
6174756458,0.00100708,0.00775146,-1.00520325,0.244141,-0.061035,0.000000
6182378500,0.00030518,0.00732422,-1.00608826,0.244141,-0.061035,0.000000
6184946041,0.00030518,0.00732422,-1.00608826,0.366211,0.000000,-0.122070
6192571958,0.00140381,0.00628662,-1.00531006,0.366211,0.000000,-0.122070
6195122208,0.00140381,0.00628662,-1.00531006,0.366211,0.183105,-0.061035
6202360625,0.00187683,0.00637817,-1.00570679,0.366211,0.183105,-0.061035
6204956833,0.00187683,0.00637817,-1.00570679,0.305176,-0.061035,-0.122070
6212558333,0.00201416,0.00765991,-1.00711060,0.305176,-0.061035,-0.122070
6215114500,0.00201416,0.00765991,-1.00711060,0.183105,0.061035,-0.183105
6222493375,0.00173950,0.00648499,-1.00724792,0.183105,0.061035,-0.183105
6225045916,0.00173950,0.00648499,-1.00724792,0.366211,-0.061035,-0.122070
6232478625,0.00166321,0.00683594,-1.00602722,0.366211,-0.061035,-0.122070
6234671375,0.00166321,0.00683594,-1.00602722,0.305176,0.000000,-0.122070
6242322416,0.00030518,0.00572205,-1.00556946,0.305176,0.000000,-0.122070
6244888750,0.00030518,0.00572205,-1.00556946,0.244141,0.061035,-0.061035
6252062708,0.00090027,0.00698853,-1.00585938,0.244141,0.061035,-0.061035
6254596375,0.00090027,0.00698853,-1.00585938,0.244141,0.183105,-0.122070
6262154125,0.00100708,0.00743103,-1.00584412,0.244141,0.183105,-0.122070
6264614708,0.00100708,0.00743103,-1.00584412,0.366211,0.122070,-0.122070
6272174375,0.00129700,0.00697327,-1.00424194,0.366211,0.122070,-0.122070
6274695083,0.00129700,0.00697327,-1.00424194,0.244141,0.000000,-0.183105
6282112916,0.00160217,0.00692749,-1.00631714,0.244141,0.000000,-0.183105
6284625125,0.00160217,0.00692749,-1.00631714,0.427246,-0.061035,-0.061035
6292164208,0.00085449,0.00755310,-1.00602722,0.427246,-0.061035,-0.061035
6294687208,0.00085449,0.00755310,-1.00602722,0.183105,0.061035,-0.061035
6302229875,0.00109863,0.00727844,-1.00621033,0.183105,0.061035,-0.061035
6304747541,0.00109863,0.00727844,-1.00621033,0.366211,0.122070,-0.061035
6312292666,0.00201416,0.00730896,-1.00595093,0.366211,0.122070,-0.061035
6314813166,0.00201416,0.00730896,-1.00595093,0.427246,0.000000,0.000000
6322358000,0.00216675,0.00744629,-1.00570679,0.427246,0.000000,0.000000
6324895250,0.00216675,0.00744629,-1.00570679,0.366211,0.061035,-0.061035
6332447583,0.00201416,0.00746155,-1.00643921,0.366211,0.061035,-0.061035
6334967750,0.00201416,0.00746155,-1.00643921,0.183105,0.061035,-0.061035
6342513458,0.00143433,0.00636292,-1.00694275,0.183105,0.061035,-0.061035
6344691958,0.00143433,0.00636292,-1.00694275,0.305176,0.122070,-0.061035
6352226250,0.00172424,0.00772095,-1.00428772,0.305176,0.122070,-0.061035
6354747875,0.00172424,0.00772095,-1.00428772,0.427246,0.061035,-0.122070
6362300458,0.00141907,0.00671387,-1.00498962,0.427246,0.061035,-0.122070
6364818500,0.00141907,0.00671387,-1.00498962,0.366211,-0.061035,0.000000
6372357458,0.00175476,0.00791931,-1.00715637,0.366211,-0.061035,0.000000
6374874458,0.00175476,0.00791931,-1.00715637,0.366211,0.061035,-0.122070
6382417666,0.00213623,0.00746155,-1.00746155,0.366211,0.061035,-0.122070
6384933875,0.00213623,0.00746155,-1.00746155,0.427246,0.183105,0.000000
6392492250,0.00167847,0.00733948,-1.00598145,0.427246,0.183105,0.000000
6395014041,0.00167847,0.00733948,-1.00598145,0.366211,0.061035,-0.122070
6402568375,0.00242615,0.00660706,-1.00523376,0.366211,0.061035,-0.122070
6405091291,0.00242615,0.00660706,-1.00523376,0.183105,0.000000,0.000000
6412629416,0.00274658,0.00704956,-1.00610352,0.183105,0.000000,0.000000
6415146000,0.00274658,0.00704956,-1.00610352,0.183105,0.000000,-0.061035
6422703083,0.00195312,0.00645447,-1.00608826,0.183105,0.000000,-0.061035
6425220041,0.00195312,0.00645447,-1.00608826,0.305176,0.000000,-0.061035
6432363000,0.00085449,0.00733948,-1.00598145,0.305176,0.000000,-0.061035
6434898750,0.00085449,0.00733948,-1.00598145,0.305176,0.122070,-0.122070
6442528000,0.00076294,0.00750732,-1.00657654,0.305176,0.122070,-0.122070
6445129166,0.00076294,0.00750732,-1.00657654,0.366211,0.061035,0.000000
6452348625,0.00141907,0.00747681,-1.00547791,0.366211,0.061035,0.000000
6454904916,0.00141907,0.00747681,-1.00547791,0.305176,0.000000,-0.061035
6462505208,0.00151062,0.00686646,-1.00584412,0.305176,0.000000,-0.061035
6465076791,0.00151062,0.00686646,-1.00584412,0.366211,0.000000,-0.061035
6472686083,0.00175476,0.00712585,-1.00601196,0.366211,0.000000,-0.061035
6475242958,0.00175476,0.00712585,-1.00601196,0.427246,0.183105,-0.061035
6482849833,0.00148010,0.00790405,-1.00576782,0.427246,0.183105,-0.061035
6485394250,0.00148010,0.00790405,-1.00576782,0.244141,0.061035,-0.183105
6493038041,0.00123596,0.00753784,-1.00639343,0.305176,0.000000,0.000000
6503177958,0.00079346,0.00762939,-1.00689697,0.427246,0.183105,0.061035
6513225666,0.00155640,0.00798035,-1.00610352,0.244141,0.122070,-0.122070
6520966125,0.00163269,0.00787354,-1.00640869,0.244141,0.122070,-0.122070
6523551083,0.00163269,0.00787354,-1.00640869,0.244141,0.061035,-0.183105
6531173291,0.00152588,0.00801086,-1.00555420,0.244141,0.061035,-0.183105
6533276791,0.00152588,0.00801086,-1.00555420,0.305176,0.061035,-0.244141
6542509666,0.00248718,0.00778198,-1.00633240,0.305176,0.061035,-0.244141
6545082833,0.00248718,0.00778198,-1.00633240,0.244141,0.061035,-0.122070
6552384208,0.00263977,0.00778198,-1.00595093,0.244141,0.061035,-0.122070
6554460250,0.00263977,0.00778198,-1.00595093,0.244141,0.122070,0.061035
6561653041,0.00219727,0.00791931,-1.00531006,0.244141,0.122070,0.061035
6564222833,0.00219727,0.00791931,-1.00531006,0.305176,0.061035,-0.183105
6571569875,0.00173950,0.00729370,-1.00543213,0.305176,0.061035,-0.183105
6574135666,0.00173950,0.00729370,-1.00543213,0.305176,0.000000,-0.122070
6581771291,0.00135803,0.00703430,-1.00564575,0.305176,0.000000,-0.122070
6584329833,0.00135803,0.00703430,-1.00564575,0.183105,0.061035,-0.122070
6591555125,0.00193787,0.00712585,-1.00527954,0.183105,0.061035,-0.122070
6594116750,0.00193787,0.00712585,-1.00527954,0.305176,0.061035,-0.061035
6601727833,0.00154114,0.00712585,-1.00712585,0.305176,0.061035,-0.061035
6604297125,0.00154114,0.00712585,-1.00712585,0.244141,0.000000,-0.122070
6611941333,0.00224304,0.00694275,-1.00592041,0.244141,0.000000,-0.122070
6614515500,0.00224304,0.00694275,-1.00592041,0.366211,0.061035,0.000000
6622180458,0.00138855,0.00723267,-1.00608826,0.366211,0.061035,0.000000
6624760250,0.00138855,0.00723267,-1.00608826,0.305176,0.183105,-0.122070
6632390791,0.00170898,0.00755310,-1.00616455,0.305176,0.183105,-0.122070
6634981208,0.00170898,0.00755310,-1.00616455,0.305176,0.000000,0.061035
6642223416,0.00143433,0.00816345,-1.00599670,0.305176,0.000000,0.061035
6644792458,0.00143433,0.00816345,-1.00599670,0.427246,0.122070,-0.061035
6652381583,0.00154114,0.00791931,-1.00529480,0.427246,0.122070,-0.061035
6654961458,0.00154114,0.00791931,-1.00529480,0.183105,0.122070,-0.183105
6662589458,0.00271606,0.00822449,-1.00486755,0.183105,0.122070,-0.183105
6664676166,0.00271606,0.00822449,-1.00486755,0.366211,0.122070,0.000000
6672218416,0.00154114,0.00749207,-1.00625610,0.366211,0.122070,0.000000
6674776208,0.00154114,0.00749207,-1.00625610,0.122070,0.061035,-0.122070
6682399000,0.00117493,0.00682068,-1.00566101,0.122070,0.061035,-0.122070
6684952416,0.00117493,0.00682068,-1.00566101,0.366211,0.000000,-0.183105
6692559125,0.00148010,0.00685120,-1.00695801,0.366211,0.000000,-0.183105
6695119000,0.00148010,0.00685120,-1.00695801,0.244141,0.061035,-0.122070
6702709625,0.00242615,0.00723267,-1.00717163,0.244141,0.061035,-0.122070
6705265541,0.00242615,0.00723267,-1.00717163,0.488281,0.122070,-0.061035
6712860916,0.00210571,0.00646973,-1.00700378,0.488281,0.122070,-0.061035
6715430125,0.00210571,0.00646973,-1.00700378,0.305176,0.061035,-0.183105
6723118416,0.00193787,0.00765991,-1.00538635,0.305176,0.061035,-0.183105
6725661666,0.00193787,0.00765991,-1.00538635,0.427246,-0.061035,-0.122070
6733291291,0.00137329,0.00749207,-1.00570679,0.183105,0.000000,0.061035
6740933791,0.00106812,0.00755310,-1.00547791,0.183105,0.000000,0.061035
6743480125,0.00106812,0.00755310,-1.00547791,0.305176,0.000000,-0.061035
6751117375,0.00093079,0.00776672,-1.00663757,0.305176,0.000000,-0.061035
6753693958,0.00093079,0.00776672,-1.00663757,0.366211,0.122070,0.000000
6761303708,0.00068665,0.00834656,-1.00622559,0.366211,0.122070,0.000000
6763858916,0.00068665,0.00834656,-1.00622559,0.305176,0.000000,0.000000
6771508833,0.00056458,0.00773621,-1.00556946,0.305176,0.000000,0.000000
6774089333,0.00056458,0.00773621,-1.00556946,0.427246,0.183105,-0.061035
6781715958,0.00193787,0.00816345,-1.00619507,0.427246,0.183105,-0.061035
6784287750,0.00193787,0.00816345,-1.00619507,0.244141,0.061035,-0.122070
6791911958,0.00111389,0.00788879,-1.00677490,0.244141,0.061035,-0.122070
6794458875,0.00111389,0.00788879,-1.00677490,0.244141,0.122070,0.000000
6802050750,0.00091553,0.00755310,-1.00595093,0.244141,0.122070,0.000000
6804599916,0.00091553,0.00755310,-1.00595093,0.183105,0.061035,-0.061035
6812216375,0.00099182,0.00643921,-1.00547791,0.183105,0.061035,-0.061035
6814777416,0.00099182,0.00643921,-1.00547791,0.244141,0.000000,-0.061035
6822404166,0.00173950,0.00646973,-1.00619507,0.244141,0.000000,-0.061035
6824961416,0.00173950,0.00646973,-1.00619507,0.305176,0.000000,-0.183105
6832560750,0.00205994,0.00695801,-1.00650024,0.305176,0.000000,-0.183105
6835114750,0.00205994,0.00695801,-1.00650024,0.488281,0.061035,0.061035
6842719000,0.00105286,0.00694275,-1.00550842,0.488281,0.061035,0.061035
6845270291,0.00105286,0.00694275,-1.00550842,0.305176,0.000000,-0.061035
6852890458,0.00146484,0.00648499,-1.00544739,0.305176,0.000000,-0.061035
6855388583,0.00146484,0.00648499,-1.00544739,0.305176,0.000000,0.000000
6863281750,0.00210571,0.00617981,-1.00457764,0.305176,0.000000,0.000000
6865899791,0.00210571,0.00617981,-1.00457764,0.366211,0.122070,-0.061035
6871109208,0.00109863,0.00630188,-1.00585938,0.366211,0.122070,-0.061035
6873711458,0.00109863,0.00630188,-1.00585938,0.183105,0.000000,-0.122070
6881358375,0.00125122,0.00692749,-1.00596619,0.183105,0.000000,-0.122070
6883953458,0.00125122,0.00692749,-1.00596619,0.427246,0.000000,-0.183105
6891575125,0.00245667,0.00752258,-1.00602722,0.427246,0.000000,-0.183105
6894145541,0.00245667,0.00752258,-1.00602722,0.366211,0.061035,-0.183105
6901745291,0.00218201,0.00781250,-1.00549316,0.366211,0.061035,-0.183105
6904315291,0.00218201,0.00781250,-1.00549316,0.183105,0.061035,-0.122070
6911930625,0.00207520,0.00750732,-1.00550842,0.183105,0.061035,-0.122070
6914482458,0.00207520,0.00750732,-1.00550842,0.366211,0.183105,-0.122070
6922102583,0.00299072,0.00764465,-1.00627136,0.366211,0.183105,-0.122070
6924685875,0.00299072,0.00764465,-1.00627136,0.427246,0.000000,-0.061035
6932293250,0.00216675,0.00750732,-1.00610352,0.427246,0.000000,-0.061035
6934841750,0.00216675,0.00750732,-1.00610352,0.427246,0.122070,0.000000
6942439750,0.00155640,0.00718689,-1.00485229,0.427246,0.122070,0.000000
6944993291,0.00155640,0.00718689,-1.00485229,0.366211,0.000000,-0.122070
6952332833,0.00102234,0.00756836,-1.00559998,0.366211,0.000000,-0.122070
6954948000,0.00102234,0.00756836,-1.00559998,0.366211,0.061035,-0.122070
6962157708,0.00198364,0.00807190,-1.00674438,0.366211,0.061035,-0.122070
6964741708,0.00198364,0.00807190,-1.00674438,0.244141,0.061035,0.061035
6972461833,0.00085449,0.00799561,-1.00675964,0.244141,0.061035,0.061035
6975032000,0.00085449,0.00799561,-1.00675964,0.366211,0.061035,-0.061035
6982785333,0.00227356,0.00764465,-1.00605774,0.366211,0.061035,-0.061035
6985375500,0.00227356,0.00764465,-1.00605774,0.183105,-0.061035,-0.183105
6992990000,0.00209045,0.00723267,-1.00613403,0.183105,-0.061035,-0.183105
6995592000,0.00209045,0.00723267,-1.00613403,0.488281,0.000000,-0.183105
7003325666,0.00161743,0.00741577,-1.00608826,0.488281,0.000000,-0.183105
7006037208,0.00161743,0.00741577,-1.00608826,0.305176,0.000000,0.000000
7011191375,0.00186157,0.00709534,-1.00640869,0.305176,0.000000,0.000000
7013788416,0.00186157,0.00709534,-1.00640869,0.305176,0.122070,-0.061035
7021578125,0.00013733,0.00753784,-1.00639343,0.305176,0.122070,-0.061035
7024230333,0.00013733,0.00753784,-1.00639343,0.305176,-0.061035,-0.122070
7031961416,0.00219727,0.00686646,-1.00648499,0.305176,-0.061035,-0.122070
7034614166,0.00219727,0.00686646,-1.00648499,0.366211,0.122070,-0.061035
7042412666,0.00193787,0.00694275,-1.00575256,0.366211,0.122070,-0.061035
7045035958,0.00193787,0.00694275,-1.00575256,0.183105,0.061035,-0.183105
7052042750,0.00187683,0.00698853,-1.00555420,0.183105,0.061035,-0.183105
7054678916,0.00187683,0.00698853,-1.00555420,0.366211,0.122070,0.061035
7062074708,0.00175476,0.00714111,-1.00604248,0.366211,0.122070,0.061035
7064647375,0.00175476,0.00714111,-1.00604248,0.305176,0.000000,-0.122070
7072317125,0.00114441,0.00683594,-1.00677490,0.305176,0.000000,-0.122070
7074874375,0.00114441,0.00683594,-1.00677490,0.366211,0.061035,0.000000
7082494333,0.00109863,0.00671387,-1.00650024,0.366211,0.061035,0.000000
7085081833,0.00109863,0.00671387,-1.00650024,0.366211,-0.122070,-0.061035
7092712958,0.00158691,0.00677490,-1.00601196,0.366211,-0.122070,-0.061035
7095294000,0.00158691,0.00677490,-1.00601196,0.244141,0.000000,-0.061035
7102906958,0.00048828,0.00802612,-1.00701904,0.244141,0.000000,-0.061035
7105458250,0.00048828,0.00802612,-1.00701904,0.305176,0.061035,-0.061035
7113086750,0.00143433,0.00759888,-1.00627136,0.305176,0.061035,-0.061035
7115234958,0.00143433,0.00759888,-1.00627136,0.366211,-0.061035,-0.183105
7122814000,0.00228882,0.00677490,-1.00613403,0.366211,-0.061035,-0.183105
7125400916,0.00228882,0.00677490,-1.00613403,0.305176,0.061035,-0.061035
7133105416,0.00085449,0.00665283,-1.00566101,0.305176,0.061035,-0.061035
7135786791,0.00085449,0.00665283,-1.00566101,0.366211,0.000000,-0.183105
7140978916,0.00086975,0.00665283,-1.00509644,0.366211,0.000000,-0.183105
7143552708,0.00086975,0.00665283,-1.00509644,0.244141,-0.061035,-0.061035
7151059958,0.00144958,0.00723267,-1.00555420,0.244141,-0.061035,-0.061035
7153644208,0.00144958,0.00723267,-1.00555420,0.305176,0.061035,-0.061035
7161264833,0.00201416,0.00588989,-1.00691223,0.305176,0.061035,-0.061035
7163591500,0.00201416,0.00588989,-1.00691223,0.122070,0.000000,-0.061035
7171297875,0.00189209,0.00650024,-1.00622559,0.122070,0.000000,-0.061035
7173896041,0.00189209,0.00650024,-1.00622559,0.122070,0.000000,-0.122070
7181373166,0.00202942,0.00691223,-1.00579834,0.122070,0.000000,-0.122070
7183968166,0.00202942,0.00691223,-1.00579834,0.427246,0.061035,-0.061035
7191619708,0.00279236,0.00740051,-1.00602722,0.427246,0.061035,-0.061035
7194195625,0.00279236,0.00740051,-1.00602722,0.244141,0.122070,0.000000
7202019958,0.00123596,0.00798035,-1.00675964,0.244141,0.122070,0.000000
7204604250,0.00123596,0.00798035,-1.00675964,0.427246,0.000000,-0.244141
7211772250,0.00144958,0.00794983,-1.00572205,0.427246,0.000000,-0.244141
7214416583,0.00144958,0.00794983,-1.00572205,0.244141,0.000000,-0.122070
7221793250,0.00175476,0.00735474,-1.00688171,0.244141,0.000000,-0.122070
7224345833,0.00175476,0.00735474,-1.00688171,0.427246,0.122070,-0.122070
7232014958,0.00128174,0.00634766,-1.00666809,0.427246,0.122070,-0.122070
7234607541,0.00128174,0.00634766,-1.00666809,0.244141,0.244141,-0.122070
7242285166,0.00138855,0.00628662,-1.00575256,0.244141,0.244141,-0.122070
7244648541,0.00138855,0.00628662,-1.00575256,0.305176,-0.122070,-0.122070
7252390375,0.00115967,0.00718689,-1.00563049,0.305176,-0.122070,-0.122070
7254982041,0.00115967,0.00718689,-1.00563049,0.305176,-0.061035,-0.122070
7262646666,0.00224304,0.00723267,-1.00601196,0.305176,-0.061035,-0.122070
7265298375,0.00224304,0.00723267,-1.00601196,0.488281,0.000000,0.000000
7273082291,0.00161743,0.00828552,-1.00636292,0.488281,0.000000,0.000000
7275439666,0.00161743,0.00828552,-1.00636292,0.427246,0.183105,-0.183105
7282930958,0.00143433,0.00686646,-1.00604248,0.427246,0.183105,-0.183105
7285504708,0.00143433,0.00686646,-1.00604248,0.244141,0.000000,-0.061035
7293116916,0.00161743,0.00683594,-1.00550842,0.244141,0.000000,-0.061035
7295719916,0.00161743,0.00683594,-1.00550842,0.366211,-0.061035,0.000000
7303163791,0.00114441,0.00683594,-1.00640869,0.366211,-0.061035,0.000000
7305731041,0.00114441,0.00683594,-1.00640869,0.305176,0.183105,0.000000
7313270250,0.00140381,0.00668335,-1.00694275,0.244141,0.183105,-0.061035
7323492916,0.00151062,0.00703430,-1.00636292,0.488281,0.183105,-0.061035
7331166250,0.00183105,0.00642395,-1.00642395,0.488281,0.183105,-0.061035
7333737166,0.00183105,0.00642395,-1.00642395,0.427246,0.122070,-0.122070
7341340041,0.00172424,0.00669861,-1.00677490,0.427246,0.122070,-0.122070
7343949416,0.00172424,0.00669861,-1.00677490,0.305176,0.000000,-0.122070
7351227916,0.00297546,0.00679016,-1.00538635,0.305176,0.000000,-0.122070
7353807833,0.00297546,0.00679016,-1.00538635,0.244141,0.122070,0.061035
7361429250,0.00257874,0.00601196,-1.00569153,0.244141,0.122070,0.061035
7364004625,0.00257874,0.00601196,-1.00569153,0.244141,0.000000,-0.122070
7371655333,0.00149536,0.00654602,-1.00599670,0.244141,0.000000,-0.122070
7374213666,0.00149536,0.00654602,-1.00599670,0.366211,0.061035,-0.061035
7381621208,0.00144958,0.00640869,-1.00590515,0.366211,0.061035,-0.061035
7384192291,0.00144958,0.00640869,-1.00590515,0.427246,0.061035,-0.122070
7391795583,0.00149536,0.00811768,-1.00584412,0.427246,0.061035,-0.122070
7394372500,0.00149536,0.00811768,-1.00584412,0.244141,0.122070,-0.183105
7401641125,0.00122070,0.00730896,-1.00642395,0.244141,0.122070,-0.183105
7404210166,0.00122070,0.00730896,-1.00642395,0.244141,0.061035,-0.183105
7411837916,0.00164795,0.00752258,-1.00610352,0.244141,0.061035,-0.183105
7414408458,0.00164795,0.00752258,-1.00610352,0.244141,0.061035,-0.122070
7421560625,0.00114441,0.00733948,-1.00602722,0.244141,0.061035,-0.122070
7424119583,0.00114441,0.00733948,-1.00602722,0.305176,0.000000,-0.061035
7431784541,0.00183105,0.00726318,-1.00567627,0.305176,0.000000,-0.061035
7434358000,0.00183105,0.00726318,-1.00567627,0.244141,0.000000,-0.122070
7442027208,0.00216675,0.00679016,-1.00585938,0.244141,0.000000,-0.122070
7444276208,0.00216675,0.00679016,-1.00585938,0.305176,0.061035,-0.122070
7452044250,0.00190735,0.00746155,-1.00611877,0.305176,0.061035,-0.122070
7454655125,0.00190735,0.00746155,-1.00611877,0.244141,0.183105,0.000000
7462402541,0.00175476,0.00764465,-1.00614929,0.244141,0.183105,0.000000
7465034875,0.00175476,0.00764465,-1.00614929,0.305176,0.122070,-0.061035
7472802416,0.00193787,0.00631714,-1.00653076,0.305176,0.122070,-0.061035
7475438333,0.00193787,0.00631714,-1.00653076,0.305176,0.061035,0.000000
7482929916,0.00125122,0.00672913,-1.00614929,0.305176,0.061035,0.000000
7485509250,0.00125122,0.00672913,-1.00614929,0.427246,0.061035,-0.122070
7493131916,0.00141907,0.00784302,-1.00622559,0.427246,0.061035,-0.122070
7495750291,0.00141907,0.00784302,-1.00622559,0.305176,0.183105,-0.061035
7503573041,0.00125122,0.00657654,-1.00630188,0.305176,0.061035,-0.061035
7511306333,0.00073242,0.00759888,-1.00535583,0.305176,0.061035,-0.061035
7513920041,0.00073242,0.00759888,-1.00535583,0.244141,0.000000,-0.122070
7521589333,0.00166321,0.00714111,-1.00512695,0.244141,0.000000,-0.122070
7524240291,0.00166321,0.00714111,-1.00512695,0.366211,0.122070,0.000000
7532055333,0.00131226,0.00758362,-1.00712585,0.366211,0.122070,0.000000
7534696541,0.00131226,0.00758362,-1.00712585,0.427246,0.000000,-0.061035
7542394791,0.00292969,0.00755310,-1.00630188,0.427246,0.000000,-0.061035
7545030375,0.00292969,0.00755310,-1.00630188,0.305176,0.122070,-0.061035
7552403333,0.00160217,0.00808716,-1.00619507,0.305176,0.122070,-0.061035
7555119250,0.00160217,0.00808716,-1.00619507,0.366211,0.061035,-0.122070
7562543791,0.00144958,0.00732422,-1.00605774,0.366211,0.061035,-0.122070
7565149750,0.00144958,0.00732422,-1.00605774,0.244141,0.122070,-0.061035
7572830000,0.00250244,0.00708008,-1.00511169,0.244141,0.122070,-0.061035
7575399541,0.00250244,0.00708008,-1.00511169,0.305176,0.183105,-0.061035
7583082791,0.00221252,0.00816345,-1.00631714,0.305176,0.183105,-0.061035
7585282083,0.00221252,0.00816345,-1.00631714,0.305176,0.000000,0.000000
7592899708,0.00122070,0.00743103,-1.00672913,0.305176,0.000000,0.000000
7595482958,0.00122070,0.00743103,-1.00672913,0.305176,-0.061035,-0.183105
7603343125,0.00164795,0.00717163,-1.00617981,0.183105,0.000000,-0.183105
7611069083,0.00170898,0.00712585,-1.00654602,0.183105,0.000000,-0.183105
7615965208,0.00170898,0.00712585,-1.00654602,0.244141,0.061035,0.000000
7621152625,0.00180054,0.00665283,-1.00578308,0.244141,0.061035,0.000000
7623737750,0.00180054,0.00665283,-1.00578308,0.427246,0.000000,-0.061035
7631420875,0.00120544,0.00743103,-1.00657654,0.427246,0.000000,-0.061035
7634011541,0.00120544,0.00743103,-1.00657654,0.366211,0.061035,-0.061035
7641254375,0.00199890,0.00819397,-1.00573730,0.366211,0.061035,-0.061035
7643847708,0.00199890,0.00819397,-1.00573730,0.427246,0.122070,-0.122070
7651120333,0.00097656,0.00730896,-1.00587463,0.427246,0.122070,-0.122070
7653730083,0.00097656,0.00730896,-1.00587463,0.244141,0.061035,-0.061035
7661374791,0.00090027,0.00746155,-1.00611877,0.244141,0.061035,-0.061035
7663959791,0.00090027,0.00746155,-1.00611877,0.183105,0.000000,-0.061035
7671661458,0.00184631,0.00680542,-1.00599670,0.183105,0.000000,-0.061035
7674233458,0.00184631,0.00680542,-1.00599670,0.427246,0.122070,0.000000
7681657958,0.00250244,0.00762939,-1.00588989,0.427246,0.122070,0.000000
7684224166,0.00250244,0.00762939,-1.00588989,0.244141,0.061035,0.000000
7691858000,0.00128174,0.00677490,-1.00616455,0.244141,0.061035,0.000000
7694425541,0.00128174,0.00677490,-1.00616455,0.305176,0.000000,-0.061035
7701962375,0.00189209,0.00665283,-1.00524902,0.305176,0.000000,-0.061035
7704527750,0.00189209,0.00665283,-1.00524902,0.244141,0.000000,0.000000
7711967791,0.00149536,0.00700378,-1.00662231,0.244141,0.000000,0.000000
7714460708,0.00149536,0.00700378,-1.00662231,0.366211,0.061035,-0.061035
7722139250,0.00044250,0.00721741,-1.00695801,0.366211,0.061035,-0.061035
7724706958,0.00044250,0.00721741,-1.00695801,0.366211,0.122070,-0.122070
7732332583,0.00086975,0.00741577,-1.00721741,0.366211,0.122070,-0.122070
7734932625,0.00086975,0.00741577,-1.00721741,0.488281,0.183105,0.061035
7742603916,0.00018311,0.00746155,-1.00688171,0.488281,0.183105,0.061035
7745176333,0.00018311,0.00746155,-1.00688171,0.366211,0.122070,0.061035
7752727125,0.00077820,0.00767517,-1.00621033,0.366211,0.122070,0.061035
7755285458,0.00077820,0.00767517,-1.00621033,0.366211,-0.061035,-0.122070
7762630583,0.00192261,0.00698853,-1.00556946,0.366211,-0.061035,-0.122070
7765210916,0.00192261,0.00698853,-1.00556946,0.244141,0.122070,-0.061035
7772834250,0.00218201,0.00732422,-1.00683594,0.244141,0.122070,-0.061035
7775393750,0.00218201,0.00732422,-1.00683594,0.366211,0.000000,-0.061035
7782723125,0.00180054,0.00762939,-1.00709534,0.366211,0.000000,-0.061035
7785306833,0.00180054,0.00762939,-1.00709534,0.244141,0.061035,-0.061035
7792918750,0.00094604,0.00660706,-1.00663757,0.244141,0.061035,-0.061035
7795484416,0.00094604,0.00660706,-1.00663757,0.427246,0.061035,0.000000
7802464208,0.00143433,0.00726318,-1.00639343,0.427246,0.061035,0.000000
7805012416,0.00143433,0.00726318,-1.00639343,0.244141,0.061035,-0.122070
7812424666,0.00115967,0.00686646,-1.00660706,0.244141,0.061035,-0.122070
7815008416,0.00115967,0.00686646,-1.00660706,0.488281,0.000000,-0.122070
7822662625,0.00151062,0.00685120,-1.00596619,0.488281,0.000000,-0.122070
7825229000,0.00151062,0.00685120,-1.00596619,0.305176,-0.061035,0.000000
7832650083,0.00202942,0.00633240,-1.00624084,0.305176,-0.061035,0.000000
7835199083,0.00202942,0.00633240,-1.00624084,0.488281,0.122070,0.000000
7842662833,0.00192261,0.00663757,-1.00599670,0.488281,0.122070,0.000000
7845227291,0.00192261,0.00663757,-1.00599670,0.305176,0.000000,-0.061035
7852844166,0.00109863,0.00740051,-1.00686646,0.305176,0.000000,-0.061035
7855420791,0.00109863,0.00740051,-1.00686646,0.305176,0.122070,0.061035
7863050708,0.00080872,0.00770569,-1.00569153,0.305176,0.122070,0.061035
7865614541,0.00080872,0.00770569,-1.00569153,0.366211,0.061035,-0.061035
7873211041,0.00183105,0.00657654,-1.00622559,0.366211,0.061035,-0.061035
7875753208,0.00183105,0.00657654,-1.00622559,0.244141,-0.061035,-0.122070
7883359333,0.00204468,0.00717163,-1.00581360,0.488281,0.061035,-0.061035
7891007791,0.00164795,0.00756836,-1.00532532,0.488281,0.061035,-0.061035
7893555916,0.00164795,0.00756836,-1.00532532,0.122070,0.061035,-0.122070
7901172041,0.00155640,0.00747681,-1.00547791,0.122070,0.061035,-0.122070
7903708541,0.00155640,0.00747681,-1.00547791,0.366211,0.122070,-0.122070
7913445291,0.00141907,0.00746155,-1.00590515,0.305176,0.061035,-0.122070
7922573458,0.00167847,0.00802612,-1.00657654,0.305176,0.061035,-0.122070
7925113125,0.00167847,0.00802612,-1.00657654,0.488281,0.122070,0.000000
7932402375,0.00228882,0.00755310,-1.00598145,0.488281,0.122070,0.000000
7934952833,0.00228882,0.00755310,-1.00598145,0.488281,0.183105,-0.061035
7942559583,0.00158691,0.00697327,-1.00517273,0.488281,0.183105,-0.061035
7945103125,0.00158691,0.00697327,-1.00517273,0.366211,0.122070,0.000000
7952288000,0.00196838,0.00573730,-1.00555420,0.366211,0.122070,0.000000
7954832958,0.00196838,0.00573730,-1.00555420,0.305176,0.122070,-0.183105
7962359166,0.00196838,0.00665283,-1.00619507,0.305176,0.122070,-0.183105
7964906708,0.00196838,0.00665283,-1.00619507,0.305176,0.061035,0.061035
7972500375,0.00170898,0.00717163,-1.00552368,0.305176,0.061035,0.061035
7975044791,0.00170898,0.00717163,-1.00552368,0.305176,0.061035,-0.061035
7982628416,0.00157166,0.00657654,-1.00587463,0.305176,0.061035,-0.061035
7985169500,0.00157166,0.00657654,-1.00587463,0.305176,0.000000,-0.122070
7992773291,0.00209045,0.00646973,-1.00653076,0.305176,0.000000,-0.122070
7995317125,0.00209045,0.00646973,-1.00653076,0.427246,0.061035,-0.122070
8002919916,0.00207520,0.00665283,-1.00675964,0.427246,0.061035,-0.122070
8005462666,0.00207520,0.00665283,-1.00675964,0.305176,0.122070,-0.061035
8013060583,0.00190735,0.00752258,-1.00544739,0.305176,0.122070,-0.061035
8015612250,0.00190735,0.00752258,-1.00544739,0.366211,0.061035,-0.061035
8023211791,0.00215149,0.00617981,-1.00573730,0.366211,0.061035,-0.061035
8025751583,0.00215149,0.00617981,-1.00573730,0.427246,0.183105,0.000000
8033414083,0.00175476,0.00674438,-1.00584412,0.366211,0.000000,-0.061035
8043296791,0.00178528,0.00772095,-1.00566101,0.366211,0.000000,-0.061035
8045861750,0.00178528,0.00772095,-1.00566101,0.427246,0.000000,-0.061035
8053482875,0.00187683,0.00769043,-1.00593567,0.305176,0.061035,-0.061035
8061081583,0.00148010,0.00669861,-1.00694275,0.305176,0.061035,-0.061035
8065700791,0.00148010,0.00669861,-1.00694275,0.305176,-0.061035,-0.183105
8072823916,0.00152588,0.00648499,-1.00637817,0.305176,-0.061035,-0.183105
8075365458,0.00152588,0.00648499,-1.00637817,0.305176,0.000000,-0.122070
8082969166,0.00181580,0.00668335,-1.00703430,0.305176,0.000000,-0.122070
8085513916,0.00181580,0.00668335,-1.00703430,0.366211,0.122070,-0.122070
8093124708,0.00196838,0.00727844,-1.00642395,0.366211,0.122070,-0.122070
8095671083,0.00196838,0.00727844,-1.00642395,0.122070,0.000000,-0.183105
8103284583,0.00155640,0.00680542,-1.00508118,0.122070,0.000000,-0.183105
8105840708,0.00155640,0.00680542,-1.00508118,0.244141,0.000000,-0.183105
8110951375,0.00123596,0.00662231,-1.00502014,0.244141,0.000000,-0.183105
8113493958,0.00123596,0.00662231,-1.00502014,0.305176,0.000000,-0.061035
8121105041,0.00180054,0.00749207,-1.00636292,0.305176,0.000000,-0.061035
8123653375,0.00180054,0.00749207,-1.00636292,0.366211,0.000000,-0.061035
8130975333,0.00271606,0.00770569,-1.00573730,0.366211,0.000000,-0.061035
8133520291,0.00271606,0.00770569,-1.00573730,0.549316,0.061035,-0.061035
8141108041,0.00140381,0.00756836,-1.00540161,0.549316,0.061035,-0.061035
8143649541,0.00140381,0.00756836,-1.00540161,0.305176,0.000000,-0.061035
8151244041,0.00128174,0.00741577,-1.00595093,0.305176,0.000000,-0.061035
8153793416,0.00128174,0.00741577,-1.00595093,0.427246,0.061035,-0.061035
8161388833,0.00199890,0.00764465,-1.00572205,0.427246,0.061035,-0.061035
8163932083,0.00199890,0.00764465,-1.00572205,0.305176,-0.061035,-0.061035
8171550041,0.00152588,0.00694275,-1.00535583,0.305176,-0.061035,-0.061035
8174092250,0.00152588,0.00694275,-1.00535583,0.305176,0.244141,0.061035
8181682208,0.00157166,0.00674438,-1.00624084,0.305176,0.244141,0.061035
8184224750,0.00157166,0.00674438,-1.00624084,0.366211,0.061035,-0.183105
8191905750,0.00151062,0.00682068,-1.00567627,0.366211,0.061035,-0.183105
8193992291,0.00151062,0.00682068,-1.00567627,0.305176,0.061035,-0.122070
8201159958,0.00222778,0.00650024,-1.00677490,0.305176,0.061035,-0.122070
8203721291,0.00222778,0.00650024,-1.00677490,0.305176,0.000000,-0.183105
8211304875,0.00161743,0.00688171,-1.00660706,0.305176,0.000000,-0.183105
8213848041,0.00161743,0.00688171,-1.00660706,0.305176,0.061035,-0.122070
8221451833,0.00047302,0.00668335,-1.00663757,0.305176,0.061035,-0.122070
8224061291,0.00047302,0.00668335,-1.00663757,0.427246,0.061035,0.000000
8231759375,0.00039673,0.00712585,-1.00621033,0.427246,0.061035,0.000000
8234350916,0.00039673,0.00712585,-1.00621033,0.183105,-0.061035,-0.061035
8242204875,0.00051880,0.00764465,-1.00634766,0.183105,-0.061035,-0.061035
8244860708,0.00051880,0.00764465,-1.00634766,0.427246,0.061035,-0.061035
8252691875,0.00146484,0.00785828,-1.00567627,0.427246,0.061035,-0.061035
8255365291,0.00146484,0.00785828,-1.00567627,0.183105,0.061035,-0.061035
8263217041,0.00129700,0.00784302,-1.00517273,0.183105,0.061035,-0.061035
8265810666,0.00129700,0.00784302,-1.00517273,0.366211,0.061035,0.000000
8273562208,0.00129700,0.00772095,-1.00662231,0.488281,0.061035,-0.183105
8281165708,0.00257874,0.00732422,-1.00552368,0.488281,0.061035,-0.183105
8283691708,0.00257874,0.00732422,-1.00552368,0.183105,0.183105,-0.061035
8291231208,0.00199890,0.00781250,-1.00601196,0.183105,0.183105,-0.061035
8293482708,0.00199890,0.00781250,-1.00601196,0.366211,0.061035,-0.061035
8301089000,0.00158691,0.00686646,-1.00511169,0.366211,0.061035,-0.061035
8303667875,0.00158691,0.00686646,-1.00511169,0.305176,0.183105,-0.183105
8313450625,0.00070190,0.00677490,-1.00534058,0.366211,0.061035,-0.122070
8321087583,0.00164795,0.00683594,-1.00573730,0.366211,0.061035,-0.122070
8323611750,0.00164795,0.00683594,-1.00573730,0.366211,0.183105,0.000000
8331184791,0.00236511,0.00714111,-1.00573730,0.366211,0.183105,0.000000
8333725833,0.00236511,0.00714111,-1.00573730,0.305176,0.061035,0.000000
8341322916,0.00169373,0.00727844,-1.00590515,0.305176,0.061035,0.000000
8343890750,0.00169373,0.00727844,-1.00590515,0.183105,0.061035,-0.122070
8351552541,0.00195312,0.00643921,-1.00650024,0.183105,0.061035,-0.122070
8354174083,0.00195312,0.00643921,-1.00650024,0.305176,-0.122070,0.000000
8361857000,0.00184631,0.00645447,-1.00708008,0.305176,-0.122070,0.000000
8364427416,0.00184631,0.00645447,-1.00708008,0.366211,0.122070,0.000000
8371640291,0.00131226,0.00729370,-1.00685120,0.366211,0.122070,0.000000
8374206416,0.00131226,0.00729370,-1.00685120,0.305176,0.061035,-0.061035
8381833833,0.00192261,0.00733948,-1.00544739,0.305176,0.061035,-0.061035
8384398625,0.00192261,0.00733948,-1.00544739,0.366211,-0.061035,-0.061035
8391629125,0.00227356,0.00730896,-1.00477600,0.366211,-0.061035,-0.061035
8394206041,0.00227356,0.00730896,-1.00477600,0.427246,0.000000,-0.061035
8401680291,0.00134277,0.00730896,-1.00578308,0.427246,0.000000,-0.061035
8404266875,0.00134277,0.00730896,-1.00578308,0.244141,-0.122070,-0.122070
8411896666,0.00184631,0.00730896,-1.00611877,0.244141,-0.122070,-0.122070
8414485833,0.00184631,0.00730896,-1.00611877,0.427246,0.122070,0.000000
8422228208,0.00202942,0.00711060,-1.00569153,0.427246,0.122070,0.000000
8424796541,0.00202942,0.00711060,-1.00569153,0.305176,0.183105,-0.061035
8431978583,0.00215149,0.00729370,-1.00608826,0.305176,0.183105,-0.061035
8434547833,0.00215149,0.00729370,-1.00608826,0.366211,0.000000,-0.122070
8441806166,0.00263977,0.00724792,-1.00665283,0.366211,0.000000,-0.122070
8444384791,0.00263977,0.00724792,-1.00665283,0.366211,-0.061035,-0.061035
8451611125,0.00195312,0.00634766,-1.00607300,0.366211,-0.061035,-0.061035
8454190583,0.00195312,0.00634766,-1.00607300,0.244141,-0.122070,0.000000
8461561916,0.00228882,0.00682068,-1.00590515,0.244141,-0.122070,0.000000
8464112875,0.00228882,0.00682068,-1.00590515,0.427246,0.122070,-0.122070
8471635916,0.00102234,0.00672913,-1.00619507,0.427246,0.122070,-0.122070
8474217875,0.00102234,0.00672913,-1.00619507,0.366211,0.061035,-0.061035
8481835625,0.00173950,0.00680542,-1.00602722,0.366211,0.061035,-0.061035
8484391416,0.00173950,0.00680542,-1.00602722,0.427246,0.061035,-0.244141
8492032541,0.00225830,0.00648499,-1.00610352,0.427246,0.061035,-0.244141
8494614875,0.00225830,0.00648499,-1.00610352,0.305176,-0.061035,-0.244141
8502221583,0.00135803,0.00695801,-1.00590515,0.305176,-0.061035,-0.244141
