timestamp_ns,accel_x,accel_y,accel_z,gyro_x,gyro_y,gyro_z
103544625,0.01260376,0.00234985,-0.99403381,0.000000,0.000000,0.000000
108000333,0.01324463,0.00379944,-0.99325562,-0.061035,0.183105,-0.122070
108003583,0.01324463,0.00379944,-0.99325562,-0.061035,0.122070,-0.183105
113377833,0.01394653,0.00630188,-0.99430847,-0.061035,0.122070,-0.183105
116099333,0.01394653,0.00630188,-0.99430847,0.122070,0.183105,-0.061035
121760000,0.01416016,0.00614929,-0.99468994,0.122070,0.183105,-0.061035
128634583,0.01416016,0.00614929,-0.99468994,0.061035,0.122070,-0.122070
131338541,0.01313782,0.00747681,-0.99349976,0.061035,0.122070,-0.122070
137008500,0.01313782,0.00747681,-0.99349976,0.000000,0.244141,0.000000
142026541,0.01354980,0.00691223,-0.99281311,0.000000,0.244141,0.000000
144537833,0.01354980,0.00691223,-0.99281311,0.183105,0.061035,-0.061035
152076041,0.01324463,0.00523376,-0.99577332,0.183105,0.061035,-0.061035
154586125,0.01324463,0.00523376,-0.99577332,-0.061035,0.122070,-0.122070
162190875,0.01382446,0.00373840,-0.99494934,-0.061035,0.122070,-0.122070
164703583,0.01382446,0.00373840,-0.99494934,0.000000,0.244141,0.061035
172226958,0.01467896,0.00238037,-0.99319458,0.000000,0.244141,0.061035
174753416,0.01467896,0.00238037,-0.99319458,0.061035,0.122070,-0.122070
182288958,0.01359558,0.00138855,-0.99522400,0.061035,0.122070,-0.122070
184824833,0.01359558,0.00138855,-0.99522400,0.000000,0.244141,-0.061035
192368666,0.01365662,0.00131226,-0.99417114,0.000000,0.244141,-0.061035
194883166,0.01365662,0.00131226,-0.99417114,0.000000,0.244141,-0.244141
202417458,0.01223755,0.00027466,-0.99302673,0.000000,0.244141,-0.244141
204933083,0.01223755,0.00027466,-0.99302673,-0.122070,0.305176,-0.061035
212494708,0.01211548,0.00027466,-0.99348450,-0.122070,0.305176,-0.061035
215016291,0.01211548,0.00027466,-0.99348450,-0.061035,0.183105,-0.061035
222557500,0.01249695,0.00190735,-0.99429321,-0.061035,0.183105,-0.061035
225089833,0.01249695,0.00190735,-0.99429321,0.061035,0.061035,-0.183105
232667375,0.01393127,0.00314331,-0.99362183,0.061035,0.061035,-0.183105
235209125,0.01393127,0.00314331,-0.99362183,-0.122070,0.000000,-0.183105
242929458,0.01367188,0.00393677,-0.99440002,-0.122070,0.000000,-0.183105
245460916,0.01367188,0.00393677,-0.99440002,-0.061035,0.183105,-0.244141
253041375,0.01333618,0.00460815,-0.99470520,-0.061035,0.183105,-0.244141
255561250,0.01333618,0.00460815,-0.99470520,-0.183105,0.244141,-0.122070
263137333,0.01400757,0.00646973,-0.99443054,-0.183105,0.244141,-0.122070
265678416,0.01400757,0.00646973,-0.99443054,-0.122070,0.183105,-0.183105
273274625,0.01345825,0.00764465,-0.99465942,-0.122070,0.183105,-0.183105
275829000,0.01345825,0.00764465,-0.99465942,-0.183105,0.244141,-0.122070
283419750,0.01374817,0.00697327,-0.99545288,-0.183105,0.244141,-0.122070
285954875,0.01374817,0.00697327,-0.99545288,-0.305176,0.122070,0.000000
293517041,0.01394653,0.00767517,-0.99459839,-0.305176,0.122070,0.000000
296077916,0.01394653,0.00767517,-0.99459839,-0.061035,0.244141,-0.122070
301123875,0.01402283,0.00654602,-0.99333191,-0.061035,0.244141,-0.122070
306158833,0.01402283,0.00654602,-0.99333191,0.000000,0.061035,0.000000
311194291,0.01403809,0.00627136,-0.99304199,0.000000,0.061035,0.000000
316228041,0.01403809,0.00627136,-0.99304199,-0.183105,0.305176,-0.122070
321264916,0.01400757,0.00398254,-0.99446106,-0.183105,0.305176,-0.122070
326296708,0.01400757,0.00398254,-0.99446106,0.000000,0.244141,-0.061035
331326791,0.01278687,0.00119019,-0.99423218,0.000000,0.244141,-0.061035
336356000,0.01278687,0.00119019,-0.99423218,-0.061035,0.244141,0.061035
341385666,0.01374817,0.00051880,-0.99291992,-0.061035,0.244141,0.061035
346417125,0.01374817,0.00051880,-0.99291992,0.061035,0.244141,-0.122070
351451541,0.01275635,0.00070190,-0.99482727,0.061035,0.244141,-0.122070
356517666,0.01275635,0.00070190,-0.99482727,0.000000,0.183105,-0.122070
361554458,0.01268005,0.00016785,-0.99356079,0.000000,0.183105,-0.122070
366667833,0.01268005,0.00016785,-0.99356079,0.061035,0.305176,-0.305176
371723125,0.01383972,0.00122070,-0.99346924,0.061035,0.305176,-0.305176
376781041,0.01383972,0.00122070,-0.99346924,0.061035,0.183105,-0.061035
381823958,0.01397705,0.00250244,-0.99266052,0.061035,0.183105,-0.061035
386853041,0.01397705,0.00250244,-0.99266052,0.122070,0.305176,-0.183105
391881541,0.01394653,0.00468445,-0.99409485,0.122070,0.305176,-0.183105
396924583,0.01394653,0.00468445,-0.99409485,0.122070,0.183105,-0.183105
401974291,0.01412964,0.00680542,-0.99479675,0.122070,0.183105,-0.183105
407021666,0.01412964,0.00680542,-0.99479675,0.244141,0.183105,-0.122070
412060958,0.01364136,0.00727844,-0.99470520,0.244141,0.183105,-0.122070
417110333,0.01364136,0.00727844,-0.99470520,0.305176,0.244141,-0.061035
422166500,0.01316833,0.00805664,-0.99414062,0.305176,0.244141,-0.061035
427244708,0.01316833,0.00805664,-0.99414062,0.183105,0.122070,-0.061035
432313958,0.01383972,0.00726318,-0.99427795,0.183105,0.122070,-0.061035
437393708,0.01383972,0.00726318,-0.99427795,0.366211,0.183105,-0.061035
442515541,0.01431274,0.00740051,-0.99432373,0.366211,0.183105,-0.061035
445087708,0.01431274,0.00740051,-0.99432373,0.366211,0.244141,-0.183105
452672791,0.01406860,0.00593567,-0.99293518,0.366211,0.244141,-0.183105
455209333,0.01406860,0.00593567,-0.99293518,0.305176,0.183105,-0.183105
462804916,0.01333618,0.00511169,-0.99395752,0.305176,0.183105,-0.183105
465355500,0.01333618,0.00511169,-0.99395752,0.244141,0.122070,-0.183105
472951625,0.01324463,0.00347900,-0.99549866,0.244141,0.122070,-0.183105
475509791,0.01324463,0.00347900,-0.99549866,0.244141,0.244141,0.000000
483146041,0.01330566,0.00413513,-0.99517822,0.244141,0.244141,0.000000
485708125,0.01330566,0.00413513,-0.99517822,0.122070,0.183105,-0.122070
493302166,0.01179504,0.00489807,-0.99458313,0.122070,0.183105,-0.122070
495840250,0.01179504,0.00489807,-0.99458313,0.122070,0.061035,-0.122070
503456916,0.01141357,0.00386047,-0.99404907,0.122070,0.061035,-0.122070
506007125,0.01141357,0.00386047,-0.99404907,0.183105,0.183105,-0.183105
513130583,0.01158142,0.00155640,-0.99349976,0.183105,0.183105,-0.183105
515574083,0.01158142,0.00155640,-0.99349976,0.244141,0.122070,-0.061035
523235625,0.01306152,0.00131226,-0.99493408,0.244141,0.122070,-0.061035
525778125,0.01306152,0.00131226,-0.99493408,0.244141,0.183105,0.000000
533332291,0.01513672,0.00207520,-0.99426270,0.244141,0.183105,0.000000
535856791,0.01513672,0.00207520,-0.99426270,0.183105,0.122070,-0.183105
543886791,0.01515198,0.00256348,-0.99339294,0.183105,0.122070,-0.183105
546424208,0.01515198,0.00256348,-0.99339294,0.183105,0.183105,0.000000
551505625,0.01467896,0.00410461,-0.99468994,0.183105,0.183105,0.000000
556600458,0.01467896,0.00410461,-0.99468994,0.061035,0.183105,-0.244141
561712083,0.01325989,0.00627136,-0.99395752,0.061035,0.183105,-0.244141
566655125,0.01325989,0.00627136,-0.99395752,0.122070,0.244141,-0.061035
571778416,0.01264954,0.00541687,-0.99369812,0.122070,0.244141,-0.061035
576848083,0.01264954,0.00541687,-0.99369812,0.183105,0.183105,-0.183105
584409166,0.01345825,0.00553894,-0.99380493,0.183105,0.183105,-0.183105
586951291,0.01345825,0.00553894,-0.99380493,0.244141,0.183105,-0.122070
592102416,0.01417542,0.00498962,-0.99438477,0.244141,0.183105,-0.122070
597143708,0.01417542,0.00498962,-0.99438477,0.244141,0.305176,-0.244141
602218416,0.01506042,0.00540161,-0.99453735,0.244141,0.305176,-0.244141
607278666,0.01506042,0.00540161,-0.99453735,0.183105,0.122070,-0.061035
612324041,0.01406860,0.00553894,-0.99502563,0.183105,0.122070,-0.061035
617389458,0.01406860,0.00553894,-0.99502563,0.183105,0.183105,-0.061035
622455125,0.01322937,0.00352478,-0.99470520,0.183105,0.183105,-0.061035
627529041,0.01322937,0.00352478,-0.99470520,0.366211,0.183105,-0.122070
633515458,0.01280212,0.00308228,-0.99475098,0.366211,0.183105,-0.122070
636109791,0.01280212,0.00308228,-0.99475098,0.183105,0.122070,-0.122070
643801333,0.01281738,0.00350952,-0.99455261,0.183105,0.122070,-0.122070
646369916,0.01281738,0.00350952,-0.99455261,0.000000,0.305176,-0.183105
654007416,0.01239014,0.00312805,-0.99476624,0.000000,0.305176,-0.183105
656534958,0.01239014,0.00312805,-0.99476624,0.244141,0.183105,-0.122070
664758041,0.01170349,0.00260925,-0.99401855,0.244141,0.183105,-0.122070
667351208,0.01170349,0.00260925,-0.99401855,0.122070,0.305176,0.061035
672097916,0.01280212,0.00306702,-0.99401855,0.122070,0.305176,0.061035
677178000,0.01280212,0.00306702,-0.99401855,0.183105,0.305176,-0.183105
684455250,0.01361084,0.00413513,-0.99305725,0.183105,0.305176,-0.183105
686989250,0.01361084,0.00413513,-0.99305725,0.183105,0.183105,0.000000
692030375,0.01388550,0.00500488,-0.99464417,0.183105,0.183105,0.000000
697078583,0.01388550,0.00500488,-0.99464417,0.122070,0.183105,-0.061035
702128750,0.01318359,0.00584412,-0.99540710,0.122070,0.183105,-0.061035
707176000,0.01318359,0.00584412,-0.99540710,0.122070,0.244141,0.000000
712243708,0.01391602,0.00587463,-0.99482727,0.122070,0.244141,0.000000
717311333,0.01391602,0.00587463,-0.99482727,0.122070,0.244141,-0.061035
722440625,0.01406860,0.00457764,-0.99440002,0.122070,0.244141,-0.061035
727526208,0.01406860,0.00457764,-0.99440002,0.183105,0.122070,-0.122070
732619500,0.01425171,0.00384521,-0.99459839,0.183105,0.122070,-0.122070
737710625,0.01425171,0.00384521,-0.99459839,0.244141,0.183105,-0.122070
742308375,0.01486206,0.00299072,-0.99368286,0.244141,0.183105,-0.122070
747414375,0.01486206,0.00299072,-0.99368286,0.122070,0.122070,-0.122070
752630541,0.01387024,0.00239563,-0.99449158,0.122070,0.122070,-0.122070
758066958,0.01387024,0.00239563,-0.99449158,0.061035,0.183105,-0.122070
762917166,0.01417542,0.00163269,-0.99346924,0.061035,0.183105,-0.122070
767680500,0.01417542,0.00163269,-0.99346924,0.122070,0.122070,-0.183105
772775500,0.01451111,0.00044250,-0.99400330,0.122070,0.122070,-0.183105
777565708,0.01451111,0.00044250,-0.99400330,0.244141,0.244141,-0.183105
782643041,0.01255798,0.00096130,-0.99559021,0.244141,0.244141,-0.183105
787736041,0.01255798,0.00096130,-0.99559021,0.000000,0.366211,-0.183105
792815125,0.01222229,0.00236511,-0.99446106,0.000000,0.366211,-0.183105
797878750,0.01222229,0.00236511,-0.99446106,0.061035,0.122070,-0.122070
802950208,0.01286316,0.00250244,-0.99501038,0.061035,0.122070,-0.122070
808012416,0.01286316,0.00250244,-0.99501038,0.000000,0.244141,-0.183105
813070791,0.01190186,0.00326538,-0.99482727,0.000000,0.244141,-0.183105
818152208,0.01190186,0.00326538,-0.99482727,0.122070,0.305176,-0.122070
823227041,0.01336670,0.00433350,-0.99418640,0.122070,0.305176,-0.122070
828310625,0.01336670,0.00433350,-0.99418640,0.183105,0.183105,-0.183105
833437416,0.01298523,0.00637817,-0.99516296,0.183105,0.183105,-0.183105
838515875,0.01298523,0.00637817,-0.99516296,0.122070,0.305176,-0.061035
843575750,0.01275635,0.00555420,-0.99478149,0.122070,0.305176,-0.061035
846112125,0.01275635,0.00555420,-0.99478149,0.183105,0.305176,-0.122070
853712166,0.01292419,0.00564575,-0.99435425,0.183105,0.305176,-0.122070
856263375,0.01292419,0.00564575,-0.99435425,0.122070,0.122070,-0.061035
863728750,0.01200867,0.00535583,-0.99430847,0.122070,0.122070,-0.061035
866278000,0.01200867,0.00535583,-0.99430847,0.122070,0.183105,-0.122070
873881083,0.01293945,0.00480652,-0.99450684,0.122070,0.183105,-0.122070
876432916,0.01293945,0.00480652,-0.99450684,0.000000,0.244141,0.000000
884020416,0.01350403,0.00483704,-0.99382019,0.000000,0.244141,0.000000
886560875,0.01350403,0.00483704,-0.99382019,0.061035,0.183105,-0.061035
894163666,0.01377869,0.00393677,-0.99394226,0.061035,0.183105,-0.061035
896706000,0.01377869,0.00393677,-0.99394226,0.000000,0.244141,0.000000
904294791,0.01397705,0.00311279,-0.99411011,0.000000,0.244141,0.000000
906834208,0.01397705,0.00311279,-0.99411011,0.000000,0.183105,-0.122070
914429083,0.01290894,0.00253296,-0.99443054,0.000000,0.183105,-0.122070
916965458,0.01290894,0.00253296,-0.99443054,0.061035,0.183105,0.061035
924602875,0.01344299,0.00248718,-0.99467468,0.061035,0.183105,0.061035
927147333,0.01344299,0.00248718,-0.99467468,0.061035,0.122070,-0.122070
934783208,0.01345825,0.00128174,-0.99536133,0.061035,0.122070,-0.122070
937337041,0.01345825,0.00128174,-0.99536133,0.122070,0.122070,-0.122070
942418333,0.01429749,0.00157166,-0.99484253,0.122070,0.122070,-0.122070
947496791,0.01429749,0.00157166,-0.99484253,0.061035,0.244141,-0.122070
952578583,0.01393127,0.00102234,-0.99494934,0.061035,0.244141,-0.122070
957659291,0.01393127,0.00102234,-0.99494934,0.061035,0.183105,-0.244141
962730958,0.01400757,0.00096130,-0.99334717,0.061035,0.183105,-0.244141
967797500,0.01400757,0.00096130,-0.99334717,0.061035,0.244141,-0.122070
972860583,0.01370239,0.00238037,-0.99362183,0.061035,0.244141,-0.122070
977920000,0.01370239,0.00238037,-0.99362183,0.061035,0.244141,-0.183105
982977333,0.01341248,0.00260925,-0.99433899,0.061035,0.244141,-0.183105
988042333,0.01341248,0.00260925,-0.99433899,0.061035,0.183105,-0.122070
993102000,0.01327515,0.00369263,-0.99519348,0.061035,0.183105,-0.122070
998192333,0.01327515,0.00369263,-0.99519348,0.000000,0.183105,-0.061035
1003267833,0.01243591,0.00410461,-0.99440002,0.000000,0.183105,-0.061035
1008345083,0.01243591,0.00410461,-0.99440002,0.122070,0.244141,-0.061035
1013408000,0.01260376,0.00466919,-0.99549866,0.122070,0.244141,-0.061035
1018477875,0.01260376,0.00466919,-0.99549866,0.000000,0.122070,-0.061035
1023563458,0.01313782,0.00645447,-0.99485779,0.000000,0.122070,-0.061035
1028185000,0.01313782,0.00645447,-0.99485779,0.122070,0.244141,-0.061035
1033258208,0.01356506,0.00613403,-0.99317932,0.122070,0.244141,-0.061035
1038340041,0.01356506,0.00613403,-0.99317932,0.183105,0.122070,-0.183105
1043414291,0.01333618,0.00500488,-0.99504089,0.183105,0.122070,-0.183105
1048489416,0.01333618,0.00500488,-0.99504089,0.061035,0.305176,-0.122070
1053562958,0.01510620,0.00520325,-0.99394226,0.061035,0.305176,-0.122070
1058683166,0.01510620,0.00520325,-0.99394226,0.061035,0.244141,-0.122070
1063746000,0.01316833,0.00502014,-0.99447632,0.061035,0.244141,-0.122070
1068807833,0.01316833,0.00502014,-0.99447632,0.061035,0.122070,-0.061035
1073961000,0.01390076,0.00460815,-0.99427795,0.061035,0.122070,-0.061035
1076506958,0.01390076,0.00460815,-0.99427795,0.183105,0.061035,-0.061035
1084109291,0.01358032,0.00329590,-0.99488831,0.183105,0.061035,-0.061035
1086649666,0.01358032,0.00329590,-0.99488831,0.000000,0.122070,-0.061035
1094237750,0.01359558,0.00186157,-0.99394226,0.000000,0.122070,-0.061035
1096845375,0.01359558,0.00186157,-0.99394226,0.000000,0.122070,-0.122070
1104448916,0.01376343,0.00254822,-0.99302673,0.000000,0.122070,-0.122070
1106986541,0.01376343,0.00254822,-0.99302673,0.183105,0.183105,-0.122070
1114588833,0.01362610,0.00225830,-0.99316406,0.183105,0.183105,-0.122070
1117130791,0.01362610,0.00225830,-0.99316406,0.122070,0.244141,-0.061035
1124729041,0.01345825,0.00276184,-0.99401855,0.122070,0.244141,-0.061035
1127266708,0.01345825,0.00276184,-0.99401855,0.000000,0.244141,-0.122070
1134872791,0.01321411,0.00334167,-0.99465942,0.000000,0.244141,-0.122070
1137415458,0.01321411,0.00334167,-0.99465942,0.183105,0.122070,-0.122070
1145026625,0.01359558,0.00271606,-0.99372864,0.183105,0.122070,-0.122070
1147570625,0.01359558,0.00271606,-0.99372864,-0.061035,0.183105,-0.122070
1155173500,0.01390076,0.00277710,-0.99462891,-0.061035,0.183105,-0.122070
1157725666,0.01390076,0.00277710,-0.99462891,0.061035,0.122070,0.000000
1165441250,0.01377869,0.00360107,-0.99417114,0.061035,0.122070,0.000000
1167978583,0.01377869,0.00360107,-0.99417114,0.061035,0.244141,-0.183105
1175570375,0.01374817,0.00335693,-0.99435425,0.061035,0.244141,-0.183105
1178106541,0.01374817,0.00335693,-0.99435425,0.000000,0.183105,-0.122070
1183169791,0.01264954,0.00219727,-0.99462891,0.000000,0.183105,-0.122070
1188261791,0.01264954,0.00219727,-0.99462891,0.183105,0.122070,-0.061035
1193330416,0.01211548,0.00314331,-0.99443054,0.183105,0.122070,-0.061035
1198395541,0.01211548,0.00314331,-0.99443054,0.061035,0.183105,-0.122070
1203458875,0.01242065,0.00395203,-0.99528503,0.061035,0.183105,-0.122070
1208520083,0.01242065,0.00395203,-0.99528503,0.061035,0.122070,-0.061035
1213585541,0.01371765,0.00401306,-0.99513245,0.061035,0.122070,-0.061035
1218439000,0.01371765,0.00401306,-0.99513245,0.183105,0.305176,-0.122070
1223502208,0.01420593,0.00428772,-0.99539185,0.183105,0.305176,-0.122070
1228565875,0.01420593,0.00428772,-0.99539185,0.183105,0.122070,-0.122070
1233537750,0.01451111,0.00450134,-0.99484253,0.183105,0.122070,-0.122070
1238622541,0.01451111,0.00450134,-0.99484253,0.000000,0.122070,-0.122070
1243737083,0.01350403,0.00479126,-0.99392700,0.000000,0.122070,-0.122070
1248856208,0.01350403,0.00479126,-0.99392700,0.061035,0.122070,-0.061035
1253913750,0.01329041,0.00317383,-0.99369812,0.061035,0.122070,-0.061035
1258957166,0.01329041,0.00317383,-0.99369812,0.000000,0.244141,-0.122070
1263999750,0.01425171,0.00370789,-0.99520874,0.000000,0.244141,-0.122070
1268806250,0.01425171,0.00370789,-0.99520874,0.061035,0.305176,-0.183105
1273855250,0.01327515,0.00424194,-0.99423218,0.061035,0.305176,-0.183105
1278685583,0.01327515,0.00424194,-0.99423218,0.122070,0.122070,-0.122070
1283748625,0.01251221,0.00534058,-0.99453735,0.122070,0.122070,-0.122070
1288810416,0.01251221,0.00534058,-0.99453735,0.122070,0.122070,-0.183105
1293873125,0.01309204,0.00541687,-0.99378967,0.122070,0.122070,-0.183105
1298947541,0.01309204,0.00541687,-0.99378967,0.183105,0.183105,0.061035
1304007458,0.01370239,0.00578308,-0.99501038,0.183105,0.183105,0.061035
1309067375,0.01370239,0.00578308,-0.99501038,-0.061035,0.183105,0.000000
1314135083,0.01325989,0.00572205,-0.99444580,-0.061035,0.183105,0.000000
1319202583,0.01325989,0.00572205,-0.99444580,-0.061035,0.244141,0.000000
1324262708,0.01330566,0.00390625,-0.99418640,-0.061035,0.244141,0.000000
1329320458,0.01330566,0.00390625,-0.99418640,-0.061035,0.244141,-0.061035
1334391958,0.01452637,0.00390625,-0.99363708,-0.061035,0.244141,-0.061035
1339491791,0.01452637,0.00390625,-0.99363708,0.122070,0.061035,0.000000
1344593958,0.01293945,0.00303650,-0.99453735,0.122070,0.061035,0.000000
1347135125,0.01293945,0.00303650,-0.99453735,0.000000,0.000000,0.000000
1354718541,0.01295471,0.00294495,-0.99453735,0.000000,0.000000,0.000000
1357256083,0.01295471,0.00294495,-0.99453735,0.122070,0.122070,-0.244141
1364833791,0.01345825,0.00302124,-0.99455261,0.122070,0.122070,-0.244141
1367367791,0.01345825,0.00302124,-0.99455261,0.122070,0.244141,-0.061035
1374968291,0.01289368,0.00247192,-0.99336243,0.122070,0.244141,-0.061035
1377513791,0.01289368,0.00247192,-0.99336243,0.061035,0.183105,0.000000
1385120625,0.01318359,0.00164795,-0.99504089,0.061035,0.183105,0.000000
1387668041,0.01318359,0.00164795,-0.99504089,0.122070,0.122070,-0.122070
1395260416,0.01365662,0.00192261,-0.99520874,0.122070,0.122070,-0.122070
1397795583,0.01365662,0.00192261,-0.99520874,0.061035,0.244141,-0.061035
1405376375,0.01428223,0.00338745,-0.99417114,0.061035,0.244141,-0.061035
1407925666,0.01428223,0.00338745,-0.99417114,0.122070,0.244141,-0.061035
1415578375,0.01345825,0.00289917,-0.99353027,0.122070,0.244141,-0.061035
1418114083,0.01345825,0.00289917,-0.99353027,0.061035,0.183105,-0.061035
1425715958,0.01327515,0.00268555,-0.99394226,0.061035,0.183105,-0.061035
1428251583,0.01327515,0.00268555,-0.99394226,0.122070,0.183105,-0.122070
1435838750,0.01347351,0.00396729,-0.99372864,0.122070,0.183105,-0.122070
1438405291,0.01347351,0.00396729,-0.99372864,0.000000,0.061035,-0.244141
1443515750,0.01359558,0.00419617,-0.99385071,0.000000,0.061035,-0.244141
1448592875,0.01359558,0.00419617,-0.99385071,0.000000,0.183105,-0.061035
1453654833,0.01292419,0.00517273,-0.99484253,0.000000,0.183105,-0.061035
1458711208,0.01292419,0.00517273,-0.99484253,0.061035,0.305176,0.061035
1463792625,0.01274109,0.00582886,-0.99497986,0.061035,0.305176,0.061035
1468856583,0.01274109,0.00582886,-0.99497986,0.061035,0.244141,0.000000
1476440875,0.01344299,0.00473022,-0.99519348,0.061035,0.244141,0.000000
1478982083,0.01344299,0.00473022,-0.99519348,0.122070,0.244141,0.061035
1484058708,0.01379395,0.00408936,-0.99488831,0.122070,0.244141,0.061035
1488855333,0.01379395,0.00408936,-0.99488831,0.000000,0.122070,-0.122070
1496485250,0.01391602,0.00419617,-0.99412537,0.000000,0.122070,-0.122070
1498692208,0.01391602,0.00419617,-0.99412537,0.183105,0.183105,0.000000
1506294875,0.01412964,0.00469971,-0.99484253,0.183105,0.183105,0.000000
1508834916,0.01412964,0.00469971,-0.99484253,0.061035,0.183105,-0.061035
1516420833,0.01396179,0.00305176,-0.99438477,0.061035,0.183105,-0.061035
1518962125,0.01396179,0.00305176,-0.99438477,0.183105,0.244141,-0.061035
1524051666,0.01385498,0.00248718,-0.99288940,0.183105,0.244141,-0.061035
1529117791,0.01385498,0.00248718,-0.99288940,0.000000,0.244141,-0.122070
1534199500,0.01354980,0.00221252,-0.99336243,0.000000,0.244141,-0.122070
1539266541,0.01354980,0.00221252,-0.99336243,0.061035,0.183105,-0.122070
1544330125,0.01423645,0.00102234,-0.99450684,0.061035,0.183105,-0.122070
1549408125,0.01423645,0.00102234,-0.99450684,0.061035,0.244141,-0.244141
1554474916,0.01385498,0.00071716,-0.99470520,0.061035,0.244141,-0.244141
1559537458,0.01385498,0.00071716,-0.99470520,0.061035,0.122070,-0.183105
1564599625,0.01379395,-0.00027466,-0.99467468,0.061035,0.122070,-0.183105
1569677208,0.01379395,-0.00027466,-0.99467468,0.122070,0.183105,-0.244141
1574740541,0.01281738,0.00013733,-0.99455261,0.122070,0.183105,-0.244141
1579801500,0.01281738,0.00013733,-0.99455261,0.122070,0.122070,-0.183105
1584861333,0.01319885,0.00260925,-0.99468994,0.122070,0.122070,-0.183105
1589929416,0.01319885,0.00260925,-0.99468994,0.061035,0.183105,-0.183105
1594996583,0.01277161,0.00454712,-0.99383545,0.061035,0.183105,-0.183105
1600073500,0.01277161,0.00454712,-0.99383545,0.183105,0.183105,-0.244141
1605142625,0.01303101,0.00497437,-0.99488831,0.183105,0.183105,-0.244141
1610208958,0.01303101,0.00497437,-0.99488831,0.122070,0.183105,-0.061035
1615289875,0.01281738,0.00582886,-0.99453735,0.122070,0.183105,-0.061035
1620350625,0.01281738,0.00582886,-0.99453735,0.183105,0.183105,-0.183105
1625443000,0.01325989,0.00729370,-0.99475098,0.183105,0.183105,-0.183105
1628029750,0.01325989,0.00729370,-0.99475098,0.122070,0.183105,-0.061035
1635643083,0.01370239,0.00733948,-0.99363708,0.122070,0.183105,-0.061035
1638184416,0.01370239,0.00733948,-0.99363708,0.000000,0.122070,-0.122070
1645783333,0.01248169,0.00651550,-0.99369812,0.000000,0.122070,-0.122070
1648328291,0.01248169,0.00651550,-0.99369812,0.000000,0.305176,-0.122070
1655918791,0.01306152,0.00526428,-0.99314880,0.000000,0.305176,-0.122070
1658453333,0.01306152,0.00526428,-0.99314880,0.183105,0.244141,-0.061035
1666046958,0.01327515,0.00486755,-0.99430847,0.183105,0.244141,-0.061035
1668581375,0.01327515,0.00486755,-0.99430847,0.183105,0.122070,-0.061035
1675714791,0.01278687,0.00225830,-0.99472046,0.183105,0.122070,-0.061035
1678257125,0.01278687,0.00225830,-0.99472046,0.061035,0.122070,-0.122070
1685845916,0.01342773,0.00173950,-0.99433899,0.061035,0.122070,-0.122070
1688386708,0.01342773,0.00173950,-0.99433899,0.244141,0.244141,-0.061035
1695990791,0.01373291,0.00195312,-0.99462891,0.244141,0.244141,-0.061035
1698527458,0.01373291,0.00195312,-0.99462891,0.122070,0.183105,-0.061035
1706173416,0.01385498,0.00163269,-0.99542236,0.122070,0.183105,-0.061035
1708718083,0.01385498,0.00163269,-0.99542236,0.122070,0.244141,-0.244141
1716298000,0.01382446,0.00239563,-0.99568176,0.122070,0.244141,-0.244141
1718833541,0.01382446,0.00239563,-0.99568176,0.000000,0.122070,-0.183105
1726411791,0.01333618,0.00273132,-0.99525452,0.000000,0.122070,-0.183105
1728957166,0.01333618,0.00273132,-0.99525452,0.122070,0.122070,-0.061035
1736540125,0.01342773,0.00418091,-0.99479675,0.122070,0.122070,-0.061035
1739093458,0.01342773,0.00418091,-0.99479675,0.122070,0.183105,-0.122070
1746699958,0.01232910,0.00503540,-0.99435425,0.122070,0.183105,-0.122070
1749238583,0.01232910,0.00503540,-0.99435425,0.061035,0.183105,-0.122070
1754292125,0.01260376,0.00405884,-0.99493408,0.061035,0.183105,-0.122070
1759368458,0.01260376,0.00405884,-0.99493408,0.244141,0.122070,-0.183105
1764448000,0.01374817,0.00495911,-0.99406433,0.244141,0.122070,-0.183105
1769526291,0.01374817,0.00495911,-0.99406433,0.122070,0.244141,-0.183105
1774592291,0.01423645,0.00468445,-0.99435425,0.122070,0.244141,-0.183105
1779650750,0.01423645,0.00468445,-0.99435425,0.122070,0.244141,-0.061035
1784711333,0.01295471,0.00276184,-0.99400330,0.122070,0.244141,-0.061035
1789769416,0.01295471,0.00276184,-0.99400330,0.000000,0.183105,-0.122070
1794827166,0.01319885,0.00267029,-0.99426270,0.000000,0.183105,-0.122070
1799883083,0.01319885,0.00267029,-0.99426270,0.122070,0.244141,-0.122070
1804940208,0.01324463,0.00245667,-0.99380493,0.122070,0.244141,-0.122070
1809998291,0.01324463,0.00245667,-0.99380493,0.061035,0.061035,0.000000
1815063625,0.01296997,0.00311279,-0.99530029,0.061035,0.061035,0.000000
1820138000,0.01296997,0.00311279,-0.99530029,0.122070,0.183105,-0.061035
1825193916,0.01351929,0.00306702,-0.99440002,0.122070,0.183105,-0.061035
1830248083,0.01351929,0.00306702,-0.99440002,0.061035,0.183105,-0.122070
1835305375,0.01431274,0.00253296,-0.99336243,0.061035,0.183105,-0.122070
1840373541,0.01431274,0.00253296,-0.99336243,0.000000,0.122070,-0.122070
1845428333,0.01210022,0.00355530,-0.99342346,0.000000,0.122070,-0.122070
1850483500,0.01210022,0.00355530,-0.99342346,0.061035,0.366211,-0.122070
1855538416,0.01322937,0.00448608,-0.99424744,0.061035,0.366211,-0.122070
1860609583,0.01322937,0.00448608,-0.99424744,0.122070,0.183105,-0.122070
1865702541,0.01382446,0.00347900,-0.99476624,0.122070,0.183105,-0.122070
1868247708,0.01382446,0.00347900,-0.99476624,0.000000,0.183105,-0.122070
1875855041,0.01426697,0.00427246,-0.99478149,0.000000,0.183105,-0.122070
1878411000,0.01426697,0.00427246,-0.99478149,0.000000,0.183105,-0.061035
1886003291,0.01408386,0.00480652,-0.99423218,0.000000,0.183105,-0.061035
1888547916,0.01408386,0.00480652,-0.99423218,0.061035,0.366211,0.000000
1896151125,0.01304626,0.00367737,-0.99446106,0.061035,0.366211,0.000000
1898704000,0.01304626,0.00367737,-0.99446106,-0.061035,0.183105,-0.122070
1906294708,0.01318359,0.00386047,-0.99430847,-0.061035,0.183105,-0.122070
1908831250,0.01318359,0.00386047,-0.99430847,0.183105,0.061035,0.000000
1916411333,0.01362610,0.00457764,-0.99545288,0.183105,0.061035,0.000000
1918946166,0.01362610,0.00457764,-0.99545288,0.000000,0.244141,-0.122070
1926546291,0.01287842,0.00355530,-0.99441528,0.000000,0.244141,-0.122070
1929089208,0.01287842,0.00355530,-0.99441528,0.061035,0.183105,-0.122070
1936687333,0.01364136,0.00373840,-0.99378967,0.061035,0.183105,-0.122070
1939229708,0.01364136,0.00373840,-0.99378967,0.122070,0.305176,-0.061035
1946808333,0.01365662,0.00338745,-0.99397278,0.122070,0.305176,-0.061035
1949352541,0.01365662,0.00338745,-0.99397278,0.061035,0.122070,-0.122070
1956945958,0.01307678,0.00309753,-0.99468994,0.061035,0.122070,-0.122070
1959506125,0.01307678,0.00309753,-0.99468994,-0.061035,0.122070,-0.183105
1967144833,0.01367188,0.00213623,-0.99504089,-0.061035,0.122070,-0.183105
1969711916,0.01367188,0.00213623,-0.99504089,0.122070,0.183105,-0.061035
1977312041,0.01405334,0.00212097,-0.99526978,0.122070,0.183105,-0.061035
1979556333,0.01405334,0.00212097,-0.99526978,0.000000,0.122070,-0.183105
1986996625,0.01295471,0.00225830,-0.99476624,0.000000,0.122070,-0.183105
1989545500,0.01295471,0.00225830,-0.99476624,0.061035,0.122070,-0.122070
1997156125,0.01232910,0.00280762,-0.99411011,0.061035,0.122070,-0.122070
1999989750,0.01232910,0.00280762,-0.99411011,0.122070,0.122070,-0.061035
2005070000,0.01434326,0.00512695,-0.99327087,0.122070,0.122070,-0.061035
2010168000,0.01434326,0.00512695,-0.99327087,0.122070,0.122070,-0.183105
2015242041,0.01382446,0.00379944,-0.99411011,0.122070,0.122070,-0.183105
2020309625,0.01382446,0.00379944,-0.99411011,0.061035,0.122070,-0.061035
2025374416,0.01289368,0.00408936,-0.99411011,0.061035,0.122070,-0.061035
2030436583,0.01289368,0.00408936,-0.99411011,0.000000,0.305176,-0.122070
2035525666,0.01264954,0.00474548,-0.99449158,0.000000,0.305176,-0.122070
2040604291,0.01264954,0.00474548,-0.99449158,0.122070,0.122070,-0.061035
2045702583,0.01370239,0.00453186,-0.99458313,0.122070,0.122070,-0.061035
2050813791,0.01370239,0.00453186,-0.99458313,0.061035,0.183105,-0.122070
2055885541,0.01351929,0.00437927,-0.99481201,0.061035,0.183105,-0.122070
2061002625,0.01351929,0.00437927,-0.99481201,0.000000,0.305176,0.000000
2066066750,0.01315308,0.00523376,-0.99476624,0.000000,0.305176,0.000000
2071137333,0.01315308,0.00523376,-0.99476624,-0.061035,0.305176,-0.122070
2076214541,0.01406860,0.00418091,-0.99470520,-0.061035,0.305176,-0.122070
2081295416,0.01406860,0.00418091,-0.99470520,0.000000,0.244141,-0.122070
2086388333,0.01440430,0.00376892,-0.99484253,0.000000,0.244141,-0.122070
2091519500,0.01440430,0.00376892,-0.99484253,0.061035,0.244141,0.000000
2096651125,0.01353455,0.00346375,-0.99382019,0.061035,0.244141,0.000000
2099205166,0.01353455,0.00346375,-0.99382019,-0.122070,0.122070,-0.122070
2106854416,0.01411438,0.00296021,-0.99395752,-0.122070,0.122070,-0.122070
2109413958,0.01411438,0.00296021,-0.99395752,0.061035,0.183105,-0.122070
2117031916,0.01379395,0.00210571,-0.99375916,0.061035,0.183105,-0.122070
2119586958,0.01379395,0.00210571,-0.99375916,0.000000,0.183105,-0.122070
2127185625,0.01290894,0.00163269,-0.99453735,0.000000,0.183105,-0.122070
2129731541,0.01290894,0.00163269,-0.99453735,-0.122070,0.061035,-0.122070
2137337750,0.01379395,0.00233459,-0.99435425,-0.122070,0.061035,-0.122070
2139884958,0.01379395,0.00233459,-0.99435425,0.122070,0.183105,-0.122070
2147490375,0.01475525,0.00244141,-0.99456787,0.122070,0.183105,-0.122070
2150039541,0.01475525,0.00244141,-0.99456787,0.000000,0.183105,-0.183105
2155132083,0.01379395,0.00224304,-0.99397278,0.000000,0.183105,-0.183105
2160205000,0.01379395,0.00224304,-0.99397278,0.000000,0.122070,-0.061035
2165273125,0.01417542,0.00328064,-0.99450684,0.000000,0.122070,-0.061035
2170335583,0.01417542,0.00328064,-0.99450684,0.061035,0.122070,-0.183105
2175397000,0.01281738,0.00370789,-0.99435425,0.061035,0.122070,-0.183105
2180469416,0.01281738,0.00370789,-0.99435425,0.000000,0.183105,-0.122070
2185557541,0.01255798,0.00457764,-0.99520874,0.000000,0.183105,-0.122070
2190621458,0.01255798,0.00457764,-0.99520874,0.122070,0.122070,-0.122070
2195681416,0.01325989,0.00506592,-0.99401855,0.122070,0.122070,-0.122070
2200754208,0.01325989,0.00506592,-0.99401855,0.183105,0.366211,-0.061035
2205814875,0.01301575,0.00389099,-0.99385071,0.183105,0.366211,-0.061035
2210873375,0.01301575,0.00389099,-0.99385071,0.061035,0.244141,-0.122070
2215945333,0.01310730,0.00502014,-0.99362183,0.061035,0.244141,-0.122070
2221010500,0.01310730,0.00502014,-0.99362183,0.122070,0.122070,-0.061035
2226071875,0.01409912,0.00456238,-0.99372864,0.122070,0.122070,-0.061035
2231147250,0.01409912,0.00456238,-0.99372864,-0.061035,0.183105,-0.122070
2236208458,0.01445007,0.00358582,-0.99488831,-0.061035,0.183105,-0.122070
2241273000,0.01445007,0.00358582,-0.99488831,0.000000,0.244141,-0.305176
2246331500,0.01307678,0.00376892,-0.99427795,0.000000,0.244141,-0.305176
2251394375,0.01307678,0.00376892,-0.99427795,0.122070,0.122070,0.000000
2256452791,0.01324463,0.00320435,-0.99386597,0.122070,0.122070,0.000000
2261515375,0.01324463,0.00320435,-0.99386597,0.122070,0.061035,-0.061035
2266630000,0.01312256,0.00328064,-0.99383545,0.122070,0.061035,-0.061035
2269171250,0.01312256,0.00328064,-0.99383545,0.000000,0.305176,-0.183105
2276754416,0.01385498,0.00332642,-0.99505615,0.000000,0.305176,-0.183105
2279289791,0.01385498,0.00332642,-0.99505615,0.000000,0.244141,0.000000
2286901708,0.01370239,0.00340271,-0.99494934,0.000000,0.244141,0.000000
2289439750,0.01370239,0.00340271,-0.99494934,0.122070,0.244141,-0.122070
2297035416,0.01354980,0.00341797,-0.99391174,0.122070,0.244141,-0.122070
2301749541,0.01354980,0.00341797,-0.99391174,0.061035,0.244141,-0.183105
2306816916,0.01388550,0.00389099,-0.99426270,0.061035,0.244141,-0.183105
2309359958,0.01388550,0.00389099,-0.99426270,0.122070,0.427246,0.000000
2316957041,0.01419067,0.00273132,-0.99446106,0.122070,0.427246,0.000000
2319501541,0.01419067,0.00273132,-0.99446106,0.061035,0.244141,-0.122070
2327123916,0.01338196,0.00267029,-0.99519348,0.061035,0.244141,-0.122070
2329666208,0.01338196,0.00267029,-0.99519348,0.122070,0.122070,-0.122070
2337248208,0.01235962,0.00308228,-0.99539185,0.122070,0.122070,-0.122070
2339784166,0.01235962,0.00308228,-0.99539185,0.122070,0.244141,-0.061035
2347362875,0.01329041,0.00297546,-0.99530029,0.122070,0.244141,-0.061035
2349908000,0.01329041,0.00297546,-0.99530029,0.061035,0.183105,0.000000
2357490250,0.01286316,0.00285339,-0.99415588,0.061035,0.183105,0.000000
2360026791,0.01286316,0.00285339,-0.99415588,0.122070,0.366211,-0.122070
2367616708,0.01316833,0.00416565,-0.99385071,0.122070,0.366211,-0.122070
2370160333,0.01316833,0.00416565,-0.99385071,0.061035,0.244141,-0.122070
2377751458,0.01310730,0.00344849,-0.99507141,0.061035,0.244141,-0.122070
2380285833,0.01310730,0.00344849,-0.99507141,0.000000,0.305176,-0.183105
2387874541,0.01344299,0.00376892,-0.99546814,0.000000,0.305176,-0.183105
2390410375,0.01344299,0.00376892,-0.99546814,0.000000,0.183105,-0.183105
2398003916,0.01324463,0.00375366,-0.99459839,0.000000,0.183105,-0.183105
2400542500,0.01324463,0.00375366,-0.99459839,0.122070,0.183105,-0.061035
2408141458,0.01344299,0.00346375,-0.99307251,0.122070,0.183105,-0.061035
2410685458,0.01344299,0.00346375,-0.99307251,0.061035,0.183105,0.000000
2418281833,0.01332092,0.00367737,-0.99499512,0.061035,0.183105,0.000000
2420815666,0.01332092,0.00367737,-0.99499512,0.000000,0.061035,-0.061035
2428400791,0.01290894,0.00369263,-0.99386597,0.000000,0.061035,-0.061035
2430938000,0.01290894,0.00369263,-0.99386597,0.000000,0.183105,-0.244141
2438541083,0.01364136,0.00462341,-0.99363708,0.000000,0.183105,-0.244141
2441088750,0.01364136,0.00462341,-0.99363708,0.000000,0.244141,-0.061035
2446186916,0.01348877,0.00389099,-0.99382019,0.000000,0.244141,-0.061035
2451247208,0.01348877,0.00389099,-0.99382019,0.183105,0.366211,-0.061035
2456317208,0.01344299,0.00506592,-0.99421692,0.183105,0.366211,-0.061035
2461387500,0.01344299,0.00506592,-0.99421692,0.000000,0.183105,-0.061035
2466454250,0.01330566,0.00411987,-0.99433899,0.000000,0.183105,-0.061035
2471518458,0.01330566,0.00411987,-0.99433899,0.122070,0.305176,-0.183105
2476574916,0.01338196,0.00364685,-0.99398804,0.122070,0.305176,-0.183105
2481644833,0.01338196,0.00364685,-0.99398804,-0.061035,0.122070,-0.061035
2486710625,0.01298523,0.00454712,-0.99386597,-0.061035,0.122070,-0.061035
2491777750,0.01298523,0.00454712,-0.99386597,0.061035,0.061035,-0.183105
2496834708,0.01304626,0.00370789,-0.99417114,0.061035,0.061035,-0.183105
2501893375,0.01304626,0.00370789,-0.99417114,0.183105,0.366211,-0.122070
2506971125,0.01293945,0.00221252,-0.99459839,0.183105,0.366211,-0.122070
2512072125,0.01293945,0.00221252,-0.99459839,0.122070,0.244141,-0.183105
2517168375,0.01387024,0.00263977,-0.99385071,0.122070,0.244141,-0.183105
2522233875,0.01387024,0.00263977,-0.99385071,0.122070,0.183105,0.000000
2527297416,0.01388550,0.00277710,-0.99325562,0.122070,0.183105,0.000000
2532361666,0.01388550,0.00277710,-0.99325562,0.000000,0.061035,0.000000
2537424250,0.01344299,0.00216675,-0.99391174,0.000000,0.061035,0.000000
2542495916,0.01344299,0.00216675,-0.99391174,0.122070,0.122070,-0.244141
2547575500,0.01275635,0.00250244,-0.99472046,0.122070,0.122070,-0.244141
2550122500,0.01275635,0.00250244,-0.99472046,0.183105,0.061035,-0.122070
2557731875,0.01280212,0.00321960,-0.99562073,0.183105,0.061035,-0.122070
2560279666,0.01280212,0.00321960,-0.99562073,0.122070,0.183105,-0.061035
2567863666,0.01329041,0.00367737,-0.99366760,0.122070,0.183105,-0.061035
2570415166,0.01329041,0.00367737,-0.99366760,0.122070,0.183105,-0.183105
2578007750,0.01373291,0.00424194,-0.99377441,0.122070,0.183105,-0.183105
2580555416,0.01373291,0.00424194,-0.99377441,0.061035,0.122070,-0.122070
2588156500,0.01359558,0.00465393,-0.99478149,0.061035,0.122070,-0.122070
2590708708,0.01359558,0.00465393,-0.99478149,0.122070,0.183105,-0.183105
2598316583,0.01383972,0.00415039,-0.99388123,0.122070,0.183105,-0.183105
2600858291,0.01383972,0.00415039,-0.99388123,0.061035,0.244141,-0.122070
2608439750,0.01394653,0.00395203,-0.99465942,0.061035,0.244141,-0.122070
2610987875,0.01394653,0.00395203,-0.99465942,0.183105,0.244141,-0.061035
2618653375,0.01211548,0.00440979,-0.99360657,0.183105,0.244141,-0.061035
2621189583,0.01211548,0.00440979,-0.99360657,0.000000,0.183105,-0.183105
2626251458,0.01268005,0.00445557,-0.99438477,0.000000,0.183105,-0.183105
2631314083,0.01268005,0.00445557,-0.99438477,-0.061035,0.183105,-0.122070
2636372166,0.01336670,0.00386047,-0.99401855,-0.061035,0.183105,-0.122070
2641429291,0.01336670,0.00386047,-0.99401855,0.061035,0.183105,-0.183105
2646485166,0.01296997,0.00415039,-0.99316406,0.061035,0.183105,-0.183105
2651564250,0.01296997,0.00415039,-0.99316406,0.183105,0.183105,-0.061035
2656643458,0.01393127,0.00372314,-0.99423218,0.183105,0.183105,-0.061035
2661699750,0.01393127,0.00372314,-0.99423218,-0.061035,0.183105,-0.061035
2666759833,0.01472473,0.00334167,-0.99447632,-0.061035,0.183105,-0.061035
2671824750,0.01472473,0.00334167,-0.99447632,0.000000,0.122070,-0.183105
2676735416,0.01420593,0.00343323,-0.99450684,0.000000,0.122070,-0.183105
2681796875,0.01420593,0.00343323,-0.99450684,0.061035,0.122070,-0.061035
2686874666,0.01277161,0.00381470,-0.99345398,0.061035,0.122070,-0.061035
2691933958,0.01277161,0.00381470,-0.99345398,0.000000,0.122070,-0.061035
2696996750,0.01321411,0.00320435,-0.99369812,0.000000,0.122070,-0.061035
2702055000,0.01321411,0.00320435,-0.99369812,0.061035,0.183105,-0.061035
2707133708,0.01342773,0.00320435,-0.99464417,0.061035,0.183105,-0.061035
2712201875,0.01342773,0.00320435,-0.99464417,0.061035,0.122070,-0.183105
2717261958,0.01359558,0.00285339,-0.99418640,0.061035,0.122070,-0.183105
2722323833,0.01359558,0.00285339,-0.99418640,0.061035,0.122070,-0.122070
2727382750,0.01271057,0.00259399,-0.99546814,0.061035,0.122070,-0.122070
2732441166,0.01271057,0.00259399,-0.99546814,0.061035,0.183105,-0.183105
2737512208,0.01358032,0.00256348,-0.99354553,0.061035,0.183105,-0.183105
2742481250,0.01358032,0.00256348,-0.99354553,0.000000,0.183105,-0.122070
2747539000,0.01356506,0.00291443,-0.99359131,0.000000,0.183105,-0.122070
2752611000,0.01356506,0.00291443,-0.99359131,0.000000,0.183105,-0.244141
2757682083,0.01347351,0.00294495,-0.99374390,0.000000,0.183105,-0.244141
2760258166,0.01347351,0.00294495,-0.99374390,0.000000,0.061035,-0.122070
2767857416,0.01428223,0.00357056,-0.99427795,0.000000,0.061035,-0.122070
2770391458,0.01428223,0.00357056,-0.99427795,0.183105,0.244141,-0.183105
2778026375,0.01324463,0.00468445,-0.99476624,0.183105,0.244141,-0.183105
2780589625,0.01324463,0.00468445,-0.99476624,0.000000,0.305176,-0.183105
2788175000,0.01362610,0.00463867,-0.99418640,0.000000,0.305176,-0.183105
2790718666,0.01362610,0.00463867,-0.99418640,0.183105,0.061035,-0.122070
2798300125,0.01281738,0.00413513,-0.99478149,0.183105,0.061035,-0.122070
2800838250,0.01281738,0.00413513,-0.99478149,0.122070,0.183105,-0.122070
2808418833,0.01370239,0.00378418,-0.99453735,0.122070,0.183105,-0.122070
2810951708,0.01370239,0.00378418,-0.99453735,0.122070,0.183105,0.122070
2818530875,0.01371765,0.00440979,-0.99414062,0.122070,0.183105,0.122070
2821069375,0.01371765,0.00440979,-0.99414062,-0.061035,0.122070,-0.183105
2828659833,0.01281738,0.00439453,-0.99345398,-0.061035,0.122070,-0.183105
2831195708,0.01281738,0.00439453,-0.99345398,0.061035,0.183105,-0.183105
2838777625,0.01156616,0.00395203,-0.99383545,0.061035,0.183105,-0.183105
2841324125,0.01156616,0.00395203,-0.99383545,0.122070,0.244141,-0.122070
2848926750,0.01318359,0.00302124,-0.99562073,0.122070,0.244141,-0.122070
2851112500,0.01318359,0.00302124,-0.99562073,0.061035,0.305176,-0.122070
2858752500,0.01380920,0.00329590,-0.99446106,0.061035,0.305176,-0.122070
2861120666,0.01380920,0.00329590,-0.99446106,0.000000,0.244141,-0.061035
2868711416,0.01370239,0.00300598,-0.99395752,0.000000,0.244141,-0.061035
2871252291,0.01370239,0.00300598,-0.99395752,0.061035,0.183105,-0.183105
2878855416,0.01435852,0.00326538,-0.99414062,0.061035,0.183105,-0.183105
2881400166,0.01435852,0.00326538,-0.99414062,0.122070,0.122070,-0.061035
2889002791,0.01298523,0.00259399,-0.99407959,0.122070,0.122070,-0.061035
2891543458,0.01298523,0.00259399,-0.99407959,0.000000,0.183105,0.000000
2898715583,0.01338196,0.00294495,-0.99438477,0.000000,0.183105,0.000000
2901251083,0.01338196,0.00294495,-0.99438477,0.061035,0.122070,-0.183105
2908910083,0.01405334,0.00286865,-0.99461365,0.061035,0.122070,-0.183105
2911452666,0.01405334,0.00286865,-0.99461365,0.061035,0.244141,-0.122070
2919046000,0.01286316,0.00268555,-0.99520874,0.061035,0.244141,-0.122070
2921584916,0.01286316,0.00268555,-0.99520874,0.061035,0.183105,-0.122070
2929177541,0.01385498,0.00300598,-0.99478149,0.061035,0.183105,-0.122070
2931712041,0.01385498,0.00300598,-0.99478149,0.122070,0.305176,-0.061035
2939303583,0.01362610,0.00387573,-0.99414062,0.122070,0.305176,-0.061035
2941853875,0.01362610,0.00387573,-0.99414062,-0.061035,0.122070,-0.122070
2947101166,0.01327515,0.00425720,-0.99433899,-0.061035,0.122070,-0.122070
2952160291,0.01327515,0.00425720,-0.99433899,0.061035,0.061035,-0.061035
2957246250,0.01281738,0.00434875,-0.99427795,0.061035,0.061035,-0.061035
2962320875,0.01281738,0.00434875,-0.99427795,0.061035,0.122070,-0.122070
2967380166,0.01412964,0.00415039,-0.99378967,0.061035,0.122070,-0.122070
2972440791,0.01412964,0.00415039,-0.99378967,0.122070,0.061035,-0.122070
2977508666,0.01391602,0.00352478,-0.99366760,0.122070,0.061035,-0.122070
2982568875,0.01391602,0.00352478,-0.99366760,0.122070,0.244141,0.000000
2987638625,0.01368713,0.00347900,-0.99452209,0.122070,0.244141,0.000000
2992709916,0.01368713,0.00347900,-0.99452209,0.061035,0.061035,-0.061035
2997772833,0.01438904,0.00273132,-0.99430847,0.061035,0.061035,-0.061035
3002832416,0.01438904,0.00273132,-0.99430847,0.122070,0.244141,-0.061035
3007891500,0.01309204,0.00256348,-0.99325562,0.122070,0.244141,-0.061035
3012953083,0.01309204,0.00256348,-0.99325562,0.122070,0.183105,0.000000
3018023958,0.01200867,0.00303650,-0.99356079,0.122070,0.183105,0.000000
3023144416,0.01200867,0.00303650,-0.99356079,-0.061035,0.305176,-0.122070
3028206041,0.01339722,0.00375366,-0.99467468,-0.061035,0.305176,-0.122070
3033270208,0.01339722,0.00375366,-0.99467468,0.122070,0.122070,-0.122070
3038346375,0.01303101,0.00357056,-0.99501038,0.122070,0.122070,-0.122070
3043410708,0.01303101,0.00357056,-0.99501038,-0.122070,0.061035,-0.061035
3048499666,0.01353455,0.00349426,-0.99406433,-0.122070,0.061035,-0.061035
3051081250,0.01353455,0.00349426,-0.99406433,0.183105,0.183105,0.061035
3058668958,0.01319885,0.00341797,-0.99514771,0.183105,0.183105,0.061035
3061222041,0.01319885,0.00341797,-0.99514771,0.183105,0.122070,-0.122070
3068813166,0.01274109,0.00357056,-0.99453735,0.183105,0.122070,-0.122070
3071347416,0.01274109,0.00357056,-0.99453735,0.122070,0.183105,-0.183105
3078927041,0.01393127,0.00291443,-0.99391174,0.122070,0.183105,-0.183105
3081475250,0.01393127,0.00291443,-0.99391174,0.122070,0.183105,-0.183105
3089071625,0.01416016,0.00308228,-0.99462891,0.122070,0.183105,-0.183105
3091636916,0.01416016,0.00308228,-0.99462891,0.122070,0.122070,0.000000
3099236708,0.01368713,0.00421143,-0.99406433,0.122070,0.122070,0.000000
3101774041,0.01368713,0.00421143,-0.99406433,0.244141,0.183105,-0.061035
3109357458,0.01341248,0.00392151,-0.99455261,0.244141,0.183105,-0.061035
3111899541,0.01341248,0.00392151,-0.99455261,0.183105,0.183105,-0.122070
3119485416,0.01322937,0.00350952,-0.99432373,0.183105,0.183105,-0.122070
3122030083,0.01322937,0.00350952,-0.99432373,0.122070,0.305176,0.061035
3129635041,0.01278687,0.00372314,-0.99418640,0.122070,0.305176,0.061035
3132182791,0.01278687,0.00372314,-0.99418640,-0.122070,0.183105,-0.183105
3139773958,0.01371765,0.00382996,-0.99496460,-0.122070,0.183105,-0.183105
3142324666,0.01371765,0.00382996,-0.99496460,0.122070,0.061035,0.000000
3147394833,0.01368713,0.00393677,-0.99432373,0.122070,0.061035,0.000000
3152457958,0.01368713,0.00393677,-0.99432373,0.061035,0.183105,-0.061035
3157527958,0.01312256,0.00303650,-0.99389648,0.061035,0.183105,-0.061035
3162610166,0.01312256,0.00303650,-0.99389648,0.122070,0.183105,0.000000
3167692958,0.01351929,0.00328064,-0.99444580,0.122070,0.183105,0.000000
3172757125,0.01351929,0.00328064,-0.99444580,0.000000,0.183105,-0.061035
3177659875,0.01280212,0.00367737,-0.99470520,0.000000,0.183105,-0.061035
3182752208,0.01280212,0.00367737,-0.99470520,0.122070,0.061035,-0.061035
3187788916,0.01315308,0.00297546,-0.99351501,0.122070,0.061035,-0.061035
3192840791,0.01315308,0.00297546,-0.99351501,0.000000,0.244141,-0.183105
3197712541,0.01373291,0.00427246,-0.99481201,0.000000,0.244141,-0.183105
3202753250,0.01373291,0.00427246,-0.99481201,0.061035,0.305176,-0.061035
3207811166,0.01429749,0.00396729,-0.99525452,0.061035,0.305176,-0.061035
3212847541,0.01429749,0.00396729,-0.99525452,0.000000,0.183105,-0.061035
3217879416,0.01322937,0.00331116,-0.99436951,0.000000,0.183105,-0.061035
3222910458,0.01322937,0.00331116,-0.99436951,0.122070,0.305176,-0.122070
3227945583,0.01272583,0.00436401,-0.99356079,0.122070,0.305176,-0.122070
3232995583,0.01272583,0.00436401,-0.99356079,-0.061035,0.122070,-0.122070
3238051750,0.01251221,0.00422668,-0.99345398,-0.061035,0.122070,-0.122070
3243123791,0.01251221,0.00422668,-0.99345398,0.000000,0.183105,0.122070
3248190708,0.01228333,0.00358582,-0.99325562,0.000000,0.183105,0.122070
3253259166,0.01228333,0.00358582,-0.99325562,0.061035,0.183105,-0.183105
3258323291,0.01342773,0.00268555,-0.99499512,0.061035,0.183105,-0.183105
3263387458,0.01342773,0.00268555,-0.99499512,0.183105,0.122070,-0.183105
3268458541,0.01426697,0.00292969,-0.99467468,0.183105,0.122070,-0.183105
3273517125,0.01426697,0.00292969,-0.99467468,0.122070,0.183105,-0.122070
3278585000,0.01423645,0.00346375,-0.99433899,0.122070,0.183105,-0.122070
3283393291,0.01423645,0.00346375,-0.99433899,0.122070,0.305176,-0.122070
3288457833,0.01329041,0.00297546,-0.99462891,0.122070,0.305176,-0.122070
3293522750,0.01329041,0.00297546,-0.99462891,0.122070,0.244141,-0.122070
3298589083,0.01399231,0.00282288,-0.99504089,0.122070,0.244141,-0.122070
3303655541,0.01399231,0.00282288,-0.99504089,-0.122070,0.061035,-0.122070
3308772875,0.01365662,0.00355530,-0.99420166,-0.122070,0.061035,-0.122070
3313834291,0.01365662,0.00355530,-0.99420166,0.122070,0.122070,-0.122070
3318904166,0.01399231,0.00354004,-0.99430847,0.122070,0.122070,-0.122070
3321485708,0.01399231,0.00354004,-0.99430847,0.122070,0.122070,-0.183105
3329088583,0.01350403,0.00366211,-0.99481201,0.122070,0.122070,-0.183105
3331622708,0.01350403,0.00366211,-0.99481201,0.061035,0.061035,-0.122070
3339202666,0.01351929,0.00303650,-0.99409485,0.061035,0.061035,-0.122070
3341748750,0.01351929,0.00303650,-0.99409485,0.000000,0.244141,-0.122070
3349336666,0.01345825,0.00280762,-0.99446106,0.000000,0.244141,-0.122070
3351876875,0.01345825,0.00280762,-0.99446106,0.122070,0.244141,0.061035
3359324333,0.01342773,0.00372314,-0.99595642,0.122070,0.244141,0.061035
3364383875,0.01342773,0.00372314,-0.99595642,0.061035,0.183105,-0.061035
3369448666,0.01435852,0.00386047,-0.99533081,0.061035,0.183105,-0.061035
3374507958,0.01435852,0.00386047,-0.99533081,0.061035,0.122070,-0.183105
3379582750,0.01322937,0.00502014,-0.99401855,0.061035,0.122070,-0.183105
3382121166,0.01322937,0.00502014,-0.99401855,0.000000,0.183105,-0.122070
3389713708,0.01335144,0.00447083,-0.99243164,0.000000,0.183105,-0.122070
3392260541,0.01335144,0.00447083,-0.99243164,-0.122070,0.183105,-0.122070
3399845375,0.01275635,0.00433350,-0.99397278,-0.122070,0.183105,-0.122070
3402388708,0.01275635,0.00433350,-0.99397278,0.061035,0.122070,-0.122070
3409970208,0.01402283,0.00437927,-0.99488831,0.061035,0.122070,-0.122070
3412505291,0.01402283,0.00437927,-0.99488831,0.061035,0.183105,-0.122070
3420088750,0.01393127,0.00459290,-0.99418640,0.061035,0.183105,-0.122070
3422624208,0.01393127,0.00459290,-0.99418640,0.122070,0.183105,-0.061035
3430222500,0.01249695,0.00381470,-0.99470520,0.122070,0.183105,-0.061035
3432762000,0.01249695,0.00381470,-0.99470520,0.000000,0.244141,-0.122070
3440405791,0.01344299,0.00364685,-0.99382019,0.000000,0.244141,-0.122070
3442977250,0.01344299,0.00364685,-0.99382019,0.061035,0.305176,0.000000
3448056083,0.01412964,0.00363159,-0.99545288,0.061035,0.305176,0.000000
3453125166,0.01412964,0.00363159,-0.99545288,-0.061035,0.183105,-0.061035
3458201416,0.01275635,0.00379944,-0.99522400,-0.061035,0.183105,-0.061035
3463281125,0.01275635,0.00379944,-0.99522400,0.000000,0.244141,-0.183105
3468350166,0.01296997,0.00274658,-0.99398804,0.000000,0.244141,-0.183105
3473413458,0.01296997,0.00274658,-0.99398804,0.061035,0.366211,-0.122070
3478471083,0.01329041,0.00276184,-0.99488831,0.061035,0.366211,-0.122070
3483554250,0.01329041,0.00276184,-0.99488831,0.183105,0.244141,0.000000
3488643416,0.01376343,0.00404358,-0.99464417,0.183105,0.244141,0.000000
3493727083,0.01376343,0.00404358,-0.99464417,0.183105,0.183105,-0.244141
3498795083,0.01350403,0.00338745,-0.99348450,0.183105,0.183105,-0.244141
3503860166,0.01350403,0.00338745,-0.99348450,0.061035,0.183105,-0.183105
3508936791,0.01327515,0.00357056,-0.99447632,0.061035,0.183105,-0.183105
3514010125,0.01327515,0.00357056,-0.99447632,0.061035,0.122070,-0.122070
3519073458,0.01316833,0.00315857,-0.99415588,0.061035,0.122070,-0.122070
3524196041,0.01316833,0.00315857,-0.99415588,0.061035,0.183105,-0.061035
3529267833,0.01362610,0.00309753,-0.99421692,0.061035,0.183105,-0.061035
3534328125,0.01362610,0.00309753,-0.99421692,0.122070,0.183105,-0.183105
3539443708,0.01301575,0.00361633,-0.99453735,0.122070,0.183105,-0.183105
3544509125,0.01301575,0.00361633,-0.99453735,0.000000,0.183105,-0.183105
3549239833,0.01240540,0.00399780,-0.99440002,0.000000,0.183105,-0.183105
3553820041,0.01240540,0.00399780,-0.99440002,-0.061035,0.122070,-0.061035
3558883833,0.01380920,0.00477600,-0.99453735,-0.061035,0.122070,-0.061035
3563940083,0.01380920,0.00477600,-0.99453735,0.122070,0.183105,-0.122070
3569004458,0.01315308,0.00465393,-0.99481201,0.122070,0.183105,-0.122070
3574066666,0.01315308,0.00465393,-0.99481201,0.183105,0.122070,-0.122070
3579136833,0.01228333,0.00450134,-0.99526978,0.183105,0.122070,-0.122070
3584203833,0.01228333,0.00450134,-0.99526978,0.061035,0.244141,-0.122070
3589263666,0.01318359,0.00355530,-0.99441528,0.061035,0.244141,-0.122070
3594323666,0.01318359,0.00355530,-0.99441528,0.122070,0.244141,-0.122070
3599384916,0.01388550,0.00320435,-0.99511719,0.122070,0.244141,-0.122070
3604443916,0.01388550,0.00320435,-0.99511719,0.061035,0.183105,-0.122070
3609511041,0.01333618,0.00358582,-0.99479675,0.061035,0.183105,-0.122070
3612077541,0.01333618,0.00358582,-0.99479675,0.122070,0.244141,-0.122070
3619672125,0.01304626,0.00279236,-0.99397278,0.122070,0.244141,-0.122070
3622212083,0.01304626,0.00279236,-0.99397278,0.122070,0.183105,0.061035
3629794708,0.01365662,0.00305176,-0.99476624,0.122070,0.183105,0.061035
3632329291,0.01365662,0.00305176,-0.99476624,0.000000,0.244141,-0.061035
3639924250,0.01338196,0.00312805,-0.99398804,0.000000,0.244141,-0.061035
3642461500,0.01338196,0.00312805,-0.99398804,0.061035,0.183105,-0.061035
3650061625,0.01335144,0.00302124,-0.99482727,0.061035,0.183105,-0.061035
3652616958,0.01335144,0.00302124,-0.99482727,0.122070,0.244141,-0.061035
3660195458,0.01373291,0.00366211,-0.99557495,0.122070,0.244141,-0.061035
3662728583,0.01373291,0.00366211,-0.99557495,0.061035,0.305176,-0.244141
3670304791,0.01303101,0.00360107,-0.99531555,0.061035,0.305176,-0.244141
3672837750,0.01303101,0.00360107,-0.99531555,0.061035,0.122070,-0.122070
3680434041,0.01258850,0.00270081,-0.99391174,0.061035,0.122070,-0.122070
3682972125,0.01258850,0.00270081,-0.99391174,0.122070,0.183105,-0.122070
3690589333,0.01324463,0.00268555,-0.99406433,0.122070,0.183105,-0.122070
3692882208,0.01324463,0.00268555,-0.99406433,0.000000,0.183105,-0.061035
3700484916,0.01289368,0.00364685,-0.99488831,0.000000,0.183105,-0.061035
3703026375,0.01289368,0.00364685,-0.99488831,0.000000,0.183105,-0.183105
3710619583,0.01286316,0.00349426,-0.99565125,0.000000,0.183105,-0.183105
3713156458,0.01286316,0.00349426,-0.99565125,0.122070,0.122070,-0.122070
3720738583,0.01387024,0.00318909,-0.99447632,0.122070,0.122070,-0.122070
3723277791,0.01387024,0.00318909,-0.99447632,0.061035,0.061035,-0.122070
3730863750,0.01412964,0.00379944,-0.99372864,0.061035,0.061035,-0.122070
3733403875,0.01412964,0.00379944,-0.99372864,0.000000,0.122070,-0.061035
3740998625,0.01422119,0.00367737,-0.99409485,0.000000,0.122070,-0.061035
3743535250,0.01422119,0.00367737,-0.99409485,0.122070,0.183105,-0.061035
3751135750,0.01383972,0.00321960,-0.99314880,0.122070,0.183105,-0.061035
3753694750,0.01383972,0.00321960,-0.99314880,0.000000,0.183105,-0.183105
3761278541,0.01364136,0.00321960,-0.99397278,0.000000,0.183105,-0.183105
3763818083,0.01364136,0.00321960,-0.99397278,0.061035,0.122070,-0.183105
3771406833,0.01350403,0.00315857,-0.99435425,0.061035,0.122070,-0.183105
3773968083,0.01350403,0.00315857,-0.99435425,0.000000,0.183105,-0.061035
3781590291,0.01374817,0.00386047,-0.99499512,0.000000,0.183105,-0.061035
3784134458,0.01374817,0.00386047,-0.99499512,0.122070,0.244141,-0.122070
3789201500,0.01307678,0.00415039,-0.99479675,0.122070,0.244141,-0.122070
3794279166,0.01307678,0.00415039,-0.99479675,0.061035,0.244141,-0.183105
3799356250,0.01329041,0.00463867,-0.99479675,0.061035,0.244141,-0.183105
3804423416,0.01329041,0.00463867,-0.99479675,0.183105,0.244141,0.000000
3809494375,0.01403809,0.00387573,-0.99407959,0.183105,0.244141,0.000000
3814552708,0.01403809,0.00387573,-0.99407959,0.122070,0.305176,-0.122070
3819624625,0.01280212,0.00387573,-0.99459839,0.122070,0.305176,-0.122070
3824681750,0.01280212,0.00387573,-0.99459839,0.122070,0.305176,-0.122070
3829736375,0.01217651,0.00390625,-0.99377441,0.122070,0.305176,-0.122070
3834792833,0.01217651,0.00390625,-0.99377441,0.061035,0.305176,-0.061035
3839849583,0.01303101,0.00389099,-0.99465942,0.061035,0.305176,-0.061035
3844904833,0.01303101,0.00389099,-0.99465942,0.061035,0.122070,-0.061035
3849961166,0.01356506,0.00389099,-0.99407959,0.061035,0.122070,-0.061035
3855017000,0.01356506,0.00389099,-0.99407959,0.122070,0.244141,-0.061035
3860096500,0.01240540,0.00369263,-0.99392700,0.122070,0.244141,-0.061035
3865186583,0.01240540,0.00369263,-0.99392700,0.122070,0.305176,-0.061035
3870258208,0.01339722,0.00346375,-0.99400330,0.122070,0.305176,-0.061035
3875343666,0.01339722,0.00346375,-0.99400330,0.000000,0.183105,-0.061035
3880420583,0.01373291,0.00389099,-0.99406433,0.000000,0.183105,-0.061035
3885490333,0.01373291,0.00389099,-0.99406433,0.061035,0.244141,-0.061035
3890587291,0.01316833,0.00320435,-0.99465942,0.061035,0.244141,-0.061035
3893124375,0.01316833,0.00320435,-0.99465942,0.183105,0.183105,-0.244141
3900715250,0.01235962,0.00317383,-0.99420166,0.183105,0.183105,-0.244141
3903253083,0.01235962,0.00317383,-0.99420166,0.061035,0.061035,-0.122070
3910827541,0.01287842,0.00340271,-0.99299622,0.061035,0.061035,-0.122070
3913368166,0.01287842,0.00340271,-0.99299622,0.061035,0.122070,-0.183105
3920893750,0.01295471,0.00314331,-0.99555969,0.061035,0.122070,-0.183105
3923430916,0.01295471,0.00314331,-0.99555969,0.122070,0.061035,-0.183105
3931015916,0.01281738,0.00320435,-0.99470520,0.122070,0.061035,-0.183105
3933561291,0.01281738,0.00320435,-0.99470520,-0.061035,0.305176,-0.061035
3941162708,0.01289368,0.00350952,-0.99382019,-0.061035,0.305176,-0.061035
3943699750,0.01289368,0.00350952,-0.99382019,0.061035,0.244141,-0.122070
3951290333,0.01329041,0.00346375,-0.99496460,0.061035,0.244141,-0.122070
3953831833,0.01329041,0.00346375,-0.99496460,0.000000,0.305176,-0.122070
3961440291,0.01325989,0.00312805,-0.99688721,0.000000,0.305176,-0.122070
3963982583,0.01325989,0.00312805,-0.99688721,0.061035,0.183105,-0.122070
3971567750,0.01377869,0.00381470,-0.99481201,0.061035,0.183105,-0.122070
3974116666,0.01377869,0.00381470,-0.99481201,0.122070,0.244141,-0.183105
3981382416,0.01411438,0.00521851,-0.99365234,0.122070,0.244141,-0.183105
3983921166,0.01411438,0.00521851,-0.99365234,0.061035,0.122070,-0.061035
3991209375,0.01354980,0.00573730,-0.99508667,0.061035,0.122070,-0.061035
3993751500,0.01354980,0.00573730,-0.99508667,-0.061035,0.244141,-0.061035
4001337000,0.01335144,0.00561523,-0.99401855,-0.061035,0.244141,-0.061035
4003873750,0.01335144,0.00561523,-0.99401855,0.000000,0.122070,-0.122070
4011454750,0.01466370,0.00334167,-0.99412537,0.000000,0.122070,-0.122070
4013990583,0.01466370,0.00334167,-0.99412537,0.000000,0.122070,-0.183105
4021630625,0.01336670,0.00289917,-0.99342346,0.000000,0.122070,-0.183105
4024167375,0.01336670,0.00289917,-0.99342346,0.122070,0.122070,-0.122070
4031767708,0.01298523,0.00317383,-0.99325562,0.122070,0.122070,-0.122070
4034312250,0.01298523,0.00317383,-0.99325562,0.122070,0.305176,-0.122070
4039398291,0.01321411,0.00196838,-0.99409485,0.122070,0.305176,-0.122070
4044457833,0.01321411,0.00196838,-0.99409485,0.122070,0.305176,-0.122070
4051716375,0.01393127,0.00285339,-0.99429321,0.122070,0.305176,-0.122070
4054257916,0.01393127,0.00285339,-0.99429321,0.244141,0.244141,-0.122070
4061843541,0.01342773,0.00242615,-0.99377441,0.244141,0.244141,-0.122070
4064383125,0.01342773,0.00242615,-0.99377441,0.122070,0.122070,-0.122070
4069481458,0.01284790,0.00263977,-0.99433899,0.122070,0.122070,-0.122070
4074564041,0.01284790,0.00263977,-0.99433899,0.000000,0.183105,-0.183105
4079637458,0.01298523,0.00294495,-0.99450684,0.000000,0.183105,-0.183105
4084704666,0.01298523,0.00294495,-0.99450684,0.061035,0.244141,-0.305176
4089765541,0.01278687,0.00366211,-0.99482727,0.061035,0.244141,-0.305176
4094825125,0.01278687,0.00366211,-0.99482727,0.061035,0.244141,-0.183105
4099896416,0.01371765,0.00433350,-0.99464417,0.061035,0.244141,-0.183105
4104957958,0.01371765,0.00433350,-0.99464417,0.122070,0.244141,-0.061035
4110024250,0.01202393,0.00386047,-0.99389648,0.122070,0.244141,-0.061035
4115081958,0.01202393,0.00386047,-0.99389648,0.061035,0.183105,-0.122070
4120152333,0.01251221,0.00415039,-0.99523926,0.061035,0.183105,-0.122070
4125226000,0.01251221,0.00415039,-0.99523926,0.122070,0.183105,-0.244141
4130292208,0.01242065,0.00389099,-0.99505615,0.122070,0.183105,-0.244141
4135350500,0.01242065,0.00389099,-0.99505615,0.122070,0.244141,-0.122070
4140410291,0.01271057,0.00453186,-0.99464417,0.122070,0.244141,-0.122070
4145466625,0.01271057,0.00453186,-0.99464417,0.000000,0.183105,-0.061035
4150520250,0.01358032,0.00344849,-0.99406433,0.000000,0.183105,-0.061035
4155588958,0.01358032,0.00344849,-0.99406433,0.183105,0.122070,-0.122070
4160657250,0.01347351,0.00288391,-0.99418640,0.183105,0.122070,-0.122070
4165719791,0.01347351,0.00288391,-0.99418640,0.244141,0.244141,-0.061035
4170776916,0.01365662,0.00273132,-0.99319458,0.244141,0.244141,-0.061035
4175835708,0.01365662,0.00273132,-0.99319458,0.305176,0.244141,-0.122070
4180900000,0.01553345,0.00155640,-0.99320984,0.305176,0.244141,-0.122070
4183444291,0.01553345,0.00155640,-0.99320984,1.281738,0.427246,-0.305176
4191040166,0.01356506,0.00178528,-0.99659729,1.281738,0.427246,-0.305176
4193587708,0.01356506,0.00178528,-0.99659729,-0.427246,0.305176,-0.183105
4201175416,0.01480103,0.00091553,-0.98374939,-0.427246,0.305176,-0.183105
4203719750,0.01480103,0.00091553,-0.98374939,0.061035,0.305176,-0.244141
4211318166,0.01374817,0.00181580,-1.01240540,0.061035,0.305176,-0.244141
4213844375,0.01374817,0.00181580,-1.01240540,-0.183105,0.000000,-0.122070
4221000500,0.01339722,0.00289917,-0.98739624,-0.183105,0.000000,-0.122070
4223562791,0.01339722,0.00289917,-0.98739624,0.061035,0.000000,-0.122070
4231155500,0.01391602,0.00505066,-0.99897766,0.061035,0.000000,-0.122070
4233693458,0.01391602,0.00505066,-0.99897766,-0.122070,0.000000,-0.061035
4241273375,0.01390076,0.00668335,-0.99238586,-0.122070,0.000000,-0.061035
4243819666,0.01390076,0.00668335,-0.99238586,-0.122070,0.183105,-0.122070
4251412375,0.01284790,0.00839233,-0.99446106,-0.122070,0.183105,-0.122070
4256484958,0.01284790,0.00839233,-0.99446106,-0.061035,0.122070,-0.061035
4261591416,0.01263428,0.00827026,-0.99493408,-0.061035,0.122070,-0.061035
4264134750,0.01263428,0.00827026,-0.99493408,0.061035,0.366211,0.000000
4271730083,0.01251221,0.00607300,-0.99412537,0.061035,0.366211,0.000000
4274264041,0.01251221,0.00607300,-0.99412537,0.122070,0.122070,0.000000
4281851500,0.01319885,0.00370789,-0.99256897,0.122070,0.122070,0.000000
4284389958,0.01319885,0.00370789,-0.99256897,0.000000,0.061035,-0.061035
4291982041,0.01425171,0.00080872,-0.99896240,0.000000,0.061035,-0.061035
4294519041,0.01425171,0.00080872,-0.99896240,0.000000,0.305176,-0.183105
4302118041,0.01448059,-0.00241089,-0.98953247,0.000000,0.305176,-0.183105
4304658916,0.01448059,-0.00241089,-0.98953247,0.061035,0.183105,-0.122070
4312239000,0.01499939,-0.00157166,-0.98980713,0.061035,0.183105,-0.122070
4314775291,0.01499939,-0.00157166,-0.98980713,0.122070,0.305176,0.000000
4322366541,0.01473999,-0.00024414,-0.99650574,0.122070,0.305176,0.000000
4324932416,0.01473999,-0.00024414,-0.99650574,0.000000,0.122070,-0.122070
4332554375,0.01361084,0.00126648,-0.99591064,0.000000,0.122070,-0.122070
4335093083,0.01361084,0.00126648,-0.99591064,0.061035,0.244141,-0.122070
4340156125,0.01318359,0.00344849,-0.99414062,0.061035,0.244141,-0.122070
4345214583,0.01318359,0.00344849,-0.99414062,0.122070,0.122070,-0.244141
4350300875,0.01223755,0.00547791,-0.99444580,0.122070,0.122070,-0.244141
4355274833,0.01223755,0.00547791,-0.99444580,-0.061035,0.061035,-0.183105
4360336500,0.01188660,0.00686646,-0.99420166,-0.061035,0.061035,-0.183105
4365398166,0.01188660,0.00686646,-0.99420166,0.061035,0.305176,0.000000
4370458500,0.01167297,0.00776672,-0.99444580,0.061035,0.305176,0.000000
4375554791,0.01167297,0.00776672,-0.99444580,0.183105,0.122070,-0.122070
4380242208,0.01188660,0.00805664,-0.99378967,0.183105,0.122070,-0.122070
4385380750,0.01188660,0.00805664,-0.99378967,0.183105,0.244141,-0.061035
4390475083,0.01185608,0.00651550,-0.99432373,0.183105,0.244141,-0.061035
4395548541,0.01185608,0.00651550,-0.99432373,-0.061035,0.244141,-0.061035
4400625875,0.01260376,0.00521851,-0.99540710,-0.061035,0.244141,-0.061035
4405698666,0.01260376,0.00521851,-0.99540710,0.122070,0.183105,-0.122070
4410761750,0.01467896,0.00410461,-0.99520874,0.122070,0.183105,-0.122070
4415823916,0.01467896,0.00410461,-0.99520874,0.000000,0.122070,-0.061035
4420891500,0.01533508,0.00227356,-0.99493408,0.000000,0.122070,-0.061035
4425951208,0.01533508,0.00227356,-0.99493408,0.061035,0.244141,-0.122070
4431013291,0.01448059,0.00152588,-0.99458313,0.061035,0.244141,-0.122070
4436074958,0.01448059,0.00152588,-0.99458313,0.000000,0.183105,-0.122070
4441132750,0.01361084,0.00054932,-0.99403381,0.000000,0.183105,-0.122070
4446228583,0.01361084,0.00054932,-0.99403381,-0.061035,0.122070,-0.244141
4451297166,0.01388550,0.00070190,-0.99324036,-0.061035,0.122070,-0.244141
4456363291,0.01388550,0.00070190,-0.99324036,-0.061035,0.061035,-0.122070
4461477708,0.01332092,0.00216675,-0.99407959,-0.061035,0.061035,-0.122070
4464032541,0.01332092,0.00216675,-0.99407959,0.122070,0.366211,-0.122070
4471679666,0.01275635,0.00288391,-0.99539185,0.122070,0.366211,-0.122070
4474221416,0.01275635,0.00288391,-0.99539185,0.000000,0.183105,-0.122070
4481806791,0.01329041,0.00314331,-0.99414062,0.000000,0.183105,-0.122070
4484341666,0.01329041,0.00314331,-0.99414062,0.000000,0.122070,-0.305176
4491917166,0.01403809,0.00376892,-0.99316406,0.000000,0.122070,-0.305176
4494463000,0.01403809,0.00376892,-0.99316406,-0.061035,0.122070,0.000000
4502058458,0.01364136,0.00343323,-0.99461365,-0.061035,0.122070,0.000000
4504599916,0.01364136,0.00343323,-0.99461365,0.000000,0.183105,-0.183105
4512421875,0.01428223,0.00454712,-0.99452209,0.000000,0.183105,-0.183105
4514963708,0.01428223,0.00454712,-0.99452209,0.122070,0.183105,0.000000
4522552375,0.01452637,0.00544739,-0.99476624,0.122070,0.183105,0.000000
4525087000,0.01452637,0.00544739,-0.99476624,-0.061035,0.244141,-0.122070
4532691291,0.01472473,0.00497437,-0.99510193,-0.061035,0.244141,-0.122070
4535225500,0.01472473,0.00497437,-0.99510193,0.061035,0.183105,-0.122070
4542801458,0.01452637,0.00486755,-0.99395752,0.061035,0.183105,-0.122070
4545337375,0.01452637,0.00486755,-0.99395752,0.000000,0.122070,-0.122070
4552929625,0.01316833,0.00511169,-0.99440002,0.000000,0.122070,-0.122070
4555467458,0.01316833,0.00511169,-0.99440002,0.061035,0.122070,-0.122070
4560554000,0.01374817,0.00402832,-0.99548340,0.061035,0.122070,-0.122070
4565620666,0.01374817,0.00402832,-0.99548340,0.061035,0.183105,0.122070
4570676583,0.01303101,0.00318909,-0.99426270,0.061035,0.183105,0.122070
4575733750,0.01303101,0.00318909,-0.99426270,0.061035,0.122070,-0.122070
4580803625,0.01356506,0.00286865,-0.99394226,0.061035,0.122070,-0.122070
4585863958,0.01356506,0.00286865,-0.99394226,0.000000,0.305176,-0.122070
4593444875,0.01281738,0.00282288,-0.99459839,0.000000,0.305176,-0.122070
4595979875,0.01281738,0.00282288,-0.99459839,0.000000,0.122070,-0.244141
4603592500,0.01313782,0.00209045,-0.99531555,0.000000,0.122070,-0.244141
4606140958,0.01313782,0.00209045,-0.99531555,0.122070,0.305176,-0.061035
4611201791,0.01327515,0.00137329,-0.99476624,0.122070,0.305176,-0.061035
4616279625,0.01327515,0.00137329,-0.99476624,-0.061035,0.061035,-0.183105
4621336875,0.01409912,0.00131226,-0.99363708,-0.061035,0.061035,-0.183105
4626394625,0.01409912,0.00131226,-0.99363708,0.061035,0.183105,-0.183105
4631452583,0.01422119,0.00245667,-0.99395752,0.061035,0.183105,-0.183105
4636510000,0.01422119,0.00245667,-0.99395752,0.122070,0.061035,-0.122070
4641564083,0.01379395,0.00328064,-0.99540710,0.122070,0.061035,-0.122070
4646649333,0.01379395,0.00328064,-0.99540710,0.000000,0.305176,-0.183105
4651777000,0.01240540,0.00384521,-0.99392700,0.000000,0.305176,-0.183105
4656841333,0.01240540,0.00384521,-0.99392700,0.061035,0.244141,-0.061035
4661914666,0.01419067,0.00445557,-0.99317932,0.061035,0.244141,-0.061035
4666980583,0.01419067,0.00445557,-0.99317932,-0.061035,0.122070,-0.122070
4672052666,0.01382446,0.00459290,-0.99465942,-0.061035,0.122070,-0.122070
4676765875,0.01382446,0.00459290,-0.99465942,0.183105,0.183105,-0.244141
4681832541,0.01293945,0.00527954,-0.99479675,0.183105,0.183105,-0.244141
4686893791,0.01293945,0.00527954,-0.99479675,0.122070,0.305176,0.061035
4692018416,0.01255798,0.00463867,-0.99572754,0.122070,0.305176,0.061035
4697081541,0.01255798,0.00463867,-0.99572754,0.122070,0.061035,-0.061035
4702138166,0.01315308,0.00366211,-0.99447632,0.122070,0.061035,-0.061035
4707212125,0.01315308,0.00366211,-0.99447632,0.061035,0.244141,-0.061035
4712272708,0.01400757,0.00367737,-0.99407959,0.061035,0.244141,-0.061035
4717329541,0.01400757,0.00367737,-0.99407959,0.122070,0.305176,0.000000
4722395000,0.01306152,0.00256348,-0.99441528,0.122070,0.305176,0.000000
4727452583,0.01306152,0.00256348,-0.99441528,0.183105,0.244141,0.000000
4732559583,0.01388550,0.00205994,-0.99458313,0.183105,0.244141,0.000000
4735096250,0.01388550,0.00205994,-0.99458313,0.183105,0.183105,-0.061035
4742682000,0.01391602,0.00244141,-0.99424744,0.183105,0.183105,-0.061035
4745217333,0.01391602,0.00244141,-0.99424744,0.061035,0.122070,-0.183105
4752797583,0.01301575,0.00238037,-0.99427795,0.061035,0.122070,-0.183105
4755333125,0.01301575,0.00238037,-0.99427795,0.183105,0.183105,-0.244141
4762911166,0.01281738,0.00299072,-0.99353027,0.183105,0.183105,-0.244141
4765445458,0.01281738,0.00299072,-0.99353027,0.061035,0.122070,-0.122070
4773118041,0.01367188,0.00292969,-0.99331665,0.061035,0.122070,-0.122070
4775657000,0.01367188,0.00292969,-0.99331665,0.061035,0.183105,-0.122070
4783251125,0.01296997,0.00309753,-0.99468994,0.061035,0.183105,-0.122070
4785786291,0.01296997,0.00309753,-0.99468994,0.122070,0.305176,-0.122070
4793374791,0.01249695,0.00343323,-0.99418640,0.122070,0.305176,-0.122070
4795927875,0.01249695,0.00343323,-0.99418640,0.061035,0.122070,-0.183105
4803525458,0.01356506,0.00378418,-0.99450684,0.061035,0.122070,-0.183105
4806066125,0.01356506,0.00378418,-0.99450684,0.183105,0.366211,-0.061035
4811128125,0.01390076,0.00424194,-0.99426270,0.183105,0.366211,-0.061035
4816190500,0.01390076,0.00424194,-0.99426270,0.183105,0.244141,-0.061035
4821262250,0.01417542,0.00555420,-0.99310303,0.183105,0.244141,-0.061035
4826319583,0.01417542,0.00555420,-0.99310303,0.305176,0.244141,-0.183105
4831387916,0.01469421,0.00524902,-0.99307251,0.305176,0.244141,-0.183105
4836449500,0.01469421,0.00524902,-0.99307251,0.183105,0.122070,-0.122070
4841524291,0.01400757,0.00375366,-0.99322510,0.183105,0.122070,-0.122070
4846584708,0.01400757,0.00375366,-0.99322510,0.976562,0.366211,-0.183105
4851643208,0.01425171,0.00288391,-0.99871826,0.976562,0.366211,-0.183105
4856704541,0.01425171,0.00288391,-0.99871826,-0.427246,0.305176,-0.061035
4861754916,0.01313782,0.00231934,-0.98500061,-0.427246,0.305176,-0.061035
4866836708,0.01313782,0.00231934,-0.98500061,0.427246,0.305176,-0.122070
4871923750,0.01261902,0.00209045,-1.00866699,0.427246,0.305176,-0.122070
4876988500,0.01261902,0.00209045,-1.00866699,-0.183105,0.122070,-0.122070
4882059416,0.01429749,0.00326538,-0.98631287,-0.183105,0.122070,-0.122070
4887172125,0.01429749,0.00326538,-0.98631287,0.061035,0.183105,-0.244141
4892242416,0.01315308,0.00378418,-0.99951172,0.061035,0.183105,-0.244141
4896985541,0.01315308,0.00378418,-0.99951172,-0.061035,0.183105,-0.183105
4902051500,0.01249695,0.00407410,-0.99255371,-0.061035,0.183105,-0.183105
4907110625,0.01249695,0.00407410,-0.99255371,-0.183105,0.244141,0.000000
4912170000,0.01425171,0.00407410,-0.99531555,-0.183105,0.244141,0.000000
4917229000,0.01425171,0.00407410,-0.99531555,0.000000,0.244141,0.000000
4921944750,0.01417542,0.00527954,-0.99536133,0.000000,0.244141,0.000000
4927002291,0.01417542,0.00527954,-0.99536133,0.000000,0.305176,-0.061035
4932060708,0.01284790,0.00515747,-0.99311829,0.000000,0.305176,-0.061035
4937172458,0.01284790,0.00515747,-0.99311829,0.061035,0.000000,-0.305176
4942234916,0.01356506,0.00396729,-0.99380493,0.061035,0.000000,-0.305176
4947290458,0.01356506,0.00396729,-0.99380493,0.122070,0.183105,-0.061035
4952348375,0.01292419,0.00361633,-0.99421692,0.122070,0.183105,-0.061035
4957409875,0.01292419,0.00361633,-0.99421692,-0.610352,0.183105,-0.061035
4962470250,0.01380920,0.00321960,-0.99269104,-0.610352,0.183105,-0.061035
4967093000,0.01380920,0.00321960,-0.99269104,0.061035,0.183105,-0.122070
4972159166,0.01502991,0.00309753,-1.00047302,0.061035,0.183105,-0.122070
4977033625,0.01502991,0.00309753,-1.00047302,0.122070,0.183105,0.000000
4982102041,0.01393127,0.00390625,-0.98573303,0.122070,0.183105,0.000000
4987184791,0.01393127,0.00390625,-0.98573303,0.244141,0.183105,-0.183105
4992242166,0.01295471,0.00268555,-0.99572754,0.244141,0.183105,-0.183105
4997297916,0.01295471,0.00268555,-0.99572754,-0.122070,0.244141,-0.122070
5002363750,0.01255798,0.00184631,-0.99383545,-0.122070,0.244141,-0.122070
5007444333,0.01255798,0.00184631,-0.99383545,0.122070,0.244141,-0.122070
5012504166,0.01150513,0.00364685,-0.99565125,0.122070,0.244141,-0.122070
5017578791,0.01150513,0.00364685,-0.99565125,0.000000,0.122070,-0.061035
5022654166,0.01327515,0.00340271,-0.99479675,0.000000,0.122070,-0.061035
5027730541,0.01327515,0.00340271,-0.99479675,0.183105,0.244141,-0.122070
5032797291,0.01324463,0.00192261,-0.99455261,0.183105,0.244141,-0.122070
5035370916,0.01324463,0.00192261,-0.99455261,0.122070,0.244141,0.000000
5042981583,0.01319885,0.00296021,-0.99443054,0.122070,0.244141,0.000000
5045520208,0.01319885,0.00296021,-0.99443054,0.000000,0.122070,-0.183105
5053103625,0.01339722,0.00370789,-0.99441528,0.000000,0.122070,-0.183105
5055654166,0.01339722,0.00370789,-0.99441528,0.061035,0.305176,-0.122070
5063286875,0.01367188,0.00411987,-0.99411011,0.061035,0.305176,-0.122070
5065820333,0.01367188,0.00411987,-0.99411011,0.183105,0.183105,-0.061035
5073400708,0.01376343,0.00503540,-0.99351501,0.183105,0.183105,-0.061035
5075938666,0.01376343,0.00503540,-0.99351501,0.061035,0.122070,-0.183105
5083515750,0.01412964,0.00463867,-0.99488831,0.061035,0.122070,-0.183105
5086050750,0.01412964,0.00463867,-0.99488831,0.183105,0.122070,-0.122070
5093645875,0.01309204,0.00419617,-0.99502563,0.183105,0.122070,-0.122070
5096179916,0.01309204,0.00419617,-0.99502563,0.061035,0.183105,-0.122070
5103757916,0.01435852,0.00480652,-0.99427795,0.061035,0.183105,-0.122070
5106294500,0.01435852,0.00480652,-0.99427795,0.061035,0.122070,-0.061035
5113964375,0.01300049,0.00346375,-0.99453735,0.061035,0.122070,-0.061035
5116500208,0.01300049,0.00346375,-0.99453735,0.061035,0.183105,-0.061035
5124080833,0.01257324,0.00280762,-0.99363708,0.061035,0.183105,-0.061035
5126614541,0.01257324,0.00280762,-0.99363708,0.061035,0.244141,-0.061035
5134223833,0.01356506,0.00241089,-0.99392700,0.061035,0.244141,-0.061035
5136761541,0.01356506,0.00241089,-0.99392700,0.061035,0.244141,-0.061035
5144362250,0.01330566,0.00186157,-0.99555969,0.061035,0.244141,-0.061035
5146902666,0.01330566,0.00186157,-0.99555969,0.061035,0.122070,-0.183105
5154554375,0.01322937,0.00230408,-0.99581909,0.061035,0.122070,-0.183105
5157090458,0.01322937,0.00230408,-0.99581909,0.122070,0.244141,0.000000
5162147250,0.01383972,0.00300598,-0.99369812,0.122070,0.244141,0.000000
5167205333,0.01383972,0.00300598,-0.99369812,0.122070,0.305176,-0.061035
5172264083,0.01341248,0.00395203,-0.99342346,0.122070,0.305176,-0.061035
5177321083,0.01341248,0.00395203,-0.99342346,0.122070,0.061035,-0.061035
5182377375,0.01286316,0.00428772,-0.99435425,0.122070,0.061035,-0.061035
5187443416,0.01286316,0.00428772,-0.99435425,0.061035,0.122070,-0.122070
5192514958,0.01354980,0.00384521,-0.99490356,0.061035,0.122070,-0.122070
5197570291,0.01354980,0.00384521,-0.99490356,0.122070,0.183105,-0.183105
5202627375,0.01397705,0.00463867,-0.99549866,0.122070,0.183105,-0.183105
5207685125,0.01397705,0.00463867,-0.99549866,0.122070,0.305176,-0.061035
5212740541,0.01333618,0.00488281,-0.99559021,0.122070,0.305176,-0.061035
5217798875,0.01333618,0.00488281,-0.99559021,0.061035,0.122070,-0.061035
5222854208,0.01254272,0.00437927,-0.99493408,0.061035,0.122070,-0.061035
5227912125,0.01254272,0.00437927,-0.99493408,0.183105,0.305176,-0.061035
5232968291,0.01387024,0.00361633,-0.99539185,0.183105,0.305176,-0.061035
5238028583,0.01387024,0.00361633,-0.99539185,0.061035,0.122070,-0.244141
5243089000,0.01475525,0.00329590,-0.99436951,0.061035,0.122070,-0.244141
5248166458,0.01475525,0.00329590,-0.99436951,0.000000,0.183105,-0.122070
5253232583,0.01406860,0.00321960,-0.99440002,0.000000,0.183105,-0.122070
5258314541,0.01406860,0.00321960,-0.99440002,-0.061035,0.183105,-0.122070
5263415416,0.01446533,0.00317383,-0.99484253,-0.061035,0.183105,-0.122070
5268495750,0.01446533,0.00317383,-0.99484253,0.061035,0.183105,-0.122070
5273562291,0.01313782,0.00357056,-0.99391174,0.061035,0.183105,-0.122070
5276098750,0.01313782,0.00357056,-0.99391174,0.122070,0.122070,-0.061035
5283683458,0.01260376,0.00274658,-0.99462891,0.122070,0.122070,-0.061035
5286218583,0.01260376,0.00274658,-0.99462891,0.183105,0.183105,-0.122070
5293800208,0.01283264,0.00357056,-0.99473572,0.183105,0.183105,-0.122070
5296334916,0.01283264,0.00357056,-0.99473572,0.061035,0.183105,-0.122070
5303921916,0.01329041,0.00363159,-0.99478149,0.061035,0.183105,-0.122070
5306464875,0.01329041,0.00363159,-0.99478149,-0.061035,0.183105,-0.061035
5314048833,0.01429749,0.00393677,-0.99404907,-0.061035,0.183105,-0.061035
5316594166,0.01429749,0.00393677,-0.99404907,0.061035,0.244141,-0.122070
5324179875,0.01240540,0.00418091,-0.99340820,0.061035,0.244141,-0.122070
5326721916,0.01240540,0.00418091,-0.99340820,0.122070,0.183105,-0.061035
5334298250,0.01298523,0.00373840,-0.99554443,0.122070,0.183105,-0.061035
5336831541,0.01298523,0.00373840,-0.99554443,0.244141,0.244141,-0.061035
5344407375,0.01388550,0.00418091,-0.99418640,0.244141,0.244141,-0.061035
5346941708,0.01388550,0.00418091,-0.99418640,0.061035,0.122070,0.000000
5354600416,0.01399231,0.00335693,-0.99371338,0.061035,0.122070,0.000000
5357135958,0.01399231,0.00335693,-0.99371338,0.122070,0.244141,-0.061035
5364732875,0.01374817,0.00379944,-0.99288940,0.122070,0.244141,-0.061035
5367286916,0.01374817,0.00379944,-0.99288940,0.122070,0.183105,-0.061035
5372366750,0.01425171,0.00367737,-0.99493408,0.122070,0.183105,-0.061035
5377453541,0.01425171,0.00367737,-0.99493408,0.061035,0.183105,-0.122070
5382550250,0.01426697,0.00314331,-0.99436951,0.061035,0.183105,-0.122070
5387636625,0.01426697,0.00314331,-0.99436951,0.122070,0.183105,-0.061035
5392699041,0.01361084,0.00289917,-0.99525452,0.122070,0.183105,-0.061035
5397761166,0.01361084,0.00289917,-0.99525452,0.122070,0.183105,-0.122070
5402820416,0.01275635,0.00317383,-0.99508667,0.122070,0.183105,-0.122070
5407892375,0.01275635,0.00317383,-0.99508667,0.061035,0.122070,-0.122070
5412953500,0.01324463,0.00340271,-0.99429321,0.061035,0.122070,-0.122070
5418012250,0.01324463,0.00340271,-0.99429321,0.061035,0.061035,-0.122070
5423070333,0.01226807,0.00416565,-0.99406433,0.061035,0.061035,-0.122070
5428126750,0.01226807,0.00416565,-0.99406433,0.122070,0.244141,-0.122070
5433211958,0.01319885,0.00401306,-0.99411011,0.122070,0.244141,-0.122070
5438270875,0.01319885,0.00401306,-0.99411011,0.366211,0.183105,-0.122070
5443329375,0.01342773,0.00418091,-0.99229431,0.366211,0.183105,-0.122070
5448387625,0.01342773,0.00418091,-0.99229431,0.244141,0.122070,-0.183105
5453445500,0.01367188,0.00328064,-0.99136353,0.244141,0.122070,-0.183105
5458504333,0.01367188,0.00328064,-0.99136353,0.854492,0.305176,0.000000
5463563666,0.01339722,0.00225830,-0.99913025,0.854492,0.305176,0.000000
5468629583,0.01339722,0.00225830,-0.99913025,-0.427246,0.305176,-0.061035
5473709166,0.01315308,0.00213623,-0.98211670,-0.427246,0.305176,-0.061035
5478776791,0.01315308,0.00213623,-0.98211670,0.366211,0.183105,-0.183105
5483861666,0.01382446,0.00183105,-1.01147461,0.366211,0.183105,-0.183105
5486402375,0.01382446,0.00183105,-1.01147461,0.122070,0.122070,-0.122070
5493984750,0.01437378,0.00286865,-0.98617554,0.122070,0.122070,-0.122070
5496531416,0.01437378,0.00286865,-0.98617554,0.000000,0.061035,-0.061035
5504110125,0.01336670,0.00495911,-1.00169373,0.000000,0.061035,-0.061035
5506645750,0.01336670,0.00495911,-1.00169373,-0.305176,0.122070,-0.122070
5514237750,0.01277161,0.00581360,-0.99134827,-0.305176,0.122070,-0.122070
5516772666,0.01277161,0.00581360,-0.99134827,-0.061035,0.244141,-0.061035
5523953458,0.01393127,0.00685120,-0.99548340,-0.061035,0.244141,-0.061035
5526505125,0.01393127,0.00685120,-0.99548340,0.000000,0.061035,-0.061035
5534103500,0.01382446,0.00665283,-0.99501038,0.000000,0.061035,-0.061035
5536640000,0.01382446,0.00665283,-0.99501038,0.000000,0.183105,-0.122070
5544220541,0.01226807,0.00579834,-0.99401855,0.000000,0.183105,-0.122070
5546761958,0.01226807,0.00579834,-0.99401855,0.061035,0.244141,0.000000
5554375750,0.01300049,0.00389099,-0.99435425,0.061035,0.244141,0.000000
5556915208,0.01300049,0.00389099,-0.99435425,0.000000,0.122070,-0.061035
5564506083,0.01370239,0.00169373,-0.99325562,0.000000,0.122070,-0.061035
5567046166,0.01370239,0.00169373,-0.99325562,-0.671387,0.183105,0.000000
5574644458,0.01519775,-0.00030518,-0.99008179,-0.671387,0.183105,0.000000
5577196166,0.01519775,-0.00030518,-0.99008179,0.183105,0.061035,-0.122070
5584788125,0.01606750,-0.00123596,-1.00187683,0.183105,0.061035,-0.122070
5587325666,0.01606750,-0.00123596,-1.00187683,0.122070,0.061035,-0.183105
5594905875,0.01402283,-0.00030518,-0.98330688,0.122070,0.061035,-0.183105
5597439041,0.01402283,-0.00030518,-0.98330688,0.000000,0.122070,-0.122070
5605019750,0.01339722,0.00102234,-0.99754333,0.000000,0.122070,-0.122070
5607566166,0.01339722,0.00102234,-0.99754333,0.000000,0.244141,-0.122070
5615169833,0.01405334,0.00187683,-0.99284363,0.000000,0.244141,-0.122070
5617495750,0.01405334,0.00187683,-0.99284363,0.061035,0.305176,-0.183105
5625085791,0.01255798,0.00498962,-0.99707031,0.061035,0.305176,-0.183105
5627644583,0.01255798,0.00498962,-0.99707031,0.000000,0.061035,-0.122070
5635279041,0.01292419,0.00622559,-0.99574280,0.000000,0.061035,-0.122070
5637815541,0.01292419,0.00622559,-0.99574280,0.061035,0.244141,0.000000
5645402208,0.01286316,0.00596619,-0.99490356,0.061035,0.244141,0.000000
5647944375,0.01286316,0.00596619,-0.99490356,0.061035,0.244141,-0.061035
5655550458,0.01271057,0.00587463,-0.99401855,0.061035,0.244141,-0.061035
5658089500,0.01271057,0.00587463,-0.99401855,0.061035,0.122070,-0.122070
5663146458,0.01203918,0.00593567,-0.99345398,0.061035,0.122070,-0.122070
5668204833,0.01203918,0.00593567,-0.99345398,0.061035,0.122070,-0.061035
5673262458,0.01295471,0.00537109,-0.99484253,0.061035,0.122070,-0.061035
5678329083,0.01295471,0.00537109,-0.99484253,-0.061035,0.122070,-0.122070
5683401375,0.01329041,0.00428772,-0.99546814,-0.061035,0.122070,-0.122070
5688460750,0.01329041,0.00428772,-0.99546814,0.244141,0.122070,-0.122070
5693516875,0.01406860,0.00216675,-0.99426270,0.244141,0.122070,-0.122070
5698574458,0.01406860,0.00216675,-0.99426270,0.000000,0.305176,-0.061035
5703630291,0.01445007,0.00215149,-0.99443054,0.000000,0.305176,-0.061035
5708687625,0.01445007,0.00215149,-0.99443054,0.000000,0.183105,-0.122070
5713755166,0.01394653,0.00093079,-0.99465942,0.000000,0.183105,-0.122070
5718809541,0.01394653,0.00093079,-0.99465942,0.183105,0.244141,-0.122070
5723868833,0.01338196,0.00111389,-0.99459839,0.183105,0.244141,-0.122070
5728922750,0.01338196,0.00111389,-0.99459839,0.122070,0.183105,-0.183105
5733977416,0.01362610,0.00161743,-0.99465942,0.122070,0.183105,-0.183105
5739041500,0.01362610,0.00161743,-0.99465942,0.061035,0.061035,-0.122070
5744093666,0.01336670,0.00247192,-0.99424744,0.061035,0.061035,-0.122070
5749147291,0.01336670,0.00247192,-0.99424744,0.122070,0.305176,-0.122070
5754209500,0.01228333,0.00338745,-0.99438477,0.122070,0.305176,-0.122070
5759264416,0.01228333,0.00338745,-0.99438477,0.000000,0.122070,-0.183105
5764330166,0.01290894,0.00428772,-0.99436951,0.000000,0.122070,-0.183105
5769398333,0.01290894,0.00428772,-0.99436951,-0.061035,0.183105,-0.061035
5774506250,0.01269531,0.00451660,-0.99369812,-0.061035,0.183105,-0.061035
5777046583,0.01269531,0.00451660,-0.99369812,0.061035,0.183105,0.000000
5784625541,0.01484680,0.00460815,-0.99319458,0.061035,0.183105,0.000000
5787161750,0.01484680,0.00460815,-0.99319458,0.122070,0.244141,-0.122070
5794738041,0.01391602,0.00440979,-0.99430847,0.122070,0.244141,-0.122070
5797287875,0.01391602,0.00440979,-0.99430847,0.000000,0.244141,0.000000
5804884041,0.01367188,0.00503540,-0.99502563,0.000000,0.244141,0.000000
5807421208,0.01367188,0.00503540,-0.99502563,0.183105,0.122070,-0.122070
5815032333,0.01342773,0.00480652,-0.99502563,0.183105,0.122070,-0.122070
5817588708,0.01342773,0.00480652,-0.99502563,-0.061035,0.244141,-0.122070
5825182166,0.01181030,0.00370789,-0.99513245,-0.061035,0.244141,-0.122070
5827722875,0.01181030,0.00370789,-0.99513245,0.061035,0.183105,-0.183105
5835303750,0.01296997,0.00389099,-0.99443054,0.061035,0.183105,-0.183105
5837838625,0.01296997,0.00389099,-0.99443054,0.183105,0.183105,-0.183105
5845416708,0.01260376,0.00308228,-0.99401855,0.183105,0.183105,-0.183105
5847958208,0.01260376,0.00308228,-0.99401855,0.000000,0.305176,-0.122070
5855535541,0.01275635,0.00161743,-0.99443054,0.000000,0.305176,-0.122070
5858067458,0.01275635,0.00161743,-0.99443054,0.061035,0.183105,-0.122070
5865651666,0.01400757,0.00305176,-0.99423218,0.061035,0.183105,-0.122070
5868184375,0.01400757,0.00305176,-0.99423218,0.061035,0.244141,-0.183105
5875775333,0.01446533,0.00268555,-0.99388123,0.061035,0.244141,-0.183105
5878315416,0.01446533,0.00268555,-0.99388123,0.122070,0.183105,-0.061035
5885494500,0.01354980,0.00239563,-0.99443054,0.122070,0.183105,-0.061035
5888029375,0.01354980,0.00239563,-0.99443054,0.061035,0.183105,-0.061035
5895611750,0.01402283,0.00332642,-0.99444580,0.061035,0.183105,-0.061035
5898147666,0.01402283,0.00332642,-0.99444580,0.061035,0.122070,-0.122070
5905739041,0.01200867,0.00358582,-0.99507141,0.061035,0.122070,-0.122070
5908275375,0.01200867,0.00358582,-0.99507141,-0.061035,0.244141,-0.122070
5915882375,0.01197815,0.00350952,-0.99394226,-0.061035,0.244141,-0.122070
5918423250,0.01197815,0.00350952,-0.99394226,0.183105,0.183105,-0.061035
5926018291,0.01304626,0.00482178,-0.99465942,0.183105,0.183105,-0.061035
5928588500,0.01304626,0.00482178,-0.99465942,0.061035,0.183105,-0.061035
5936186041,0.01278687,0.00531006,-0.99510193,0.061035,0.183105,-0.061035
5938724666,0.01278687,0.00531006,-0.99510193,0.061035,0.305176,-0.122070
5946307958,0.01347351,0.00601196,-0.99426270,0.061035,0.305176,-0.122070
5948845583,0.01347351,0.00601196,-0.99426270,0.183105,0.122070,-0.061035
5956429125,0.01274109,0.00540161,-0.99363708,0.183105,0.122070,-0.061035
5958969791,0.01274109,0.00540161,-0.99363708,0.122070,0.244141,-0.122070
5964062875,0.01303101,0.00398254,-0.99404907,0.122070,0.244141,-0.122070
5969130291,0.01303101,0.00398254,-0.99404907,-0.061035,0.183105,0.000000
5974199916,0.01321411,0.00379944,-0.99433899,-0.061035,0.183105,0.000000
5979263833,0.01321411,0.00379944,-0.99433899,0.061035,0.305176,-0.122070
5986460125,0.01228333,0.00332642,-0.99433899,0.061035,0.305176,-0.122070
5988998166,0.01228333,0.00332642,-0.99433899,0.000000,0.244141,-0.061035
5994111166,0.01307678,0.00209045,-0.99584961,0.000000,0.244141,-0.061035
5999168208,0.01307678,0.00209045,-0.99584961,0.061035,0.183105,-0.061035
6004236125,0.01272583,0.00222778,-0.99411011,0.061035,0.183105,-0.061035
6009295791,0.01272583,0.00222778,-0.99411011,0.061035,0.183105,-0.183105
6014356250,0.01290894,0.00242615,-0.99420166,0.061035,0.183105,-0.183105
6019424833,0.01290894,0.00242615,-0.99420166,0.061035,0.183105,-0.122070
6024480041,0.01277161,0.00241089,-0.99411011,0.061035,0.183105,-0.122070
6029535833,0.01277161,0.00241089,-0.99411011,0.183105,0.183105,-0.061035
6034603291,0.01365662,0.00231934,-0.99440002,0.183105,0.183105,-0.061035
6039680375,0.01365662,0.00231934,-0.99440002,0.061035,0.122070,-0.122070
6044742583,0.01184082,0.00343323,-0.99398804,0.061035,0.122070,-0.122070
6049803875,0.01184082,0.00343323,-0.99398804,0.366211,0.305176,-0.061035
6054866708,0.01246643,0.00376892,-0.99061584,0.366211,0.305176,-0.061035
6059935666,0.01246643,0.00376892,-0.99061584,0.610352,0.549316,0.000000
6065014333,0.01348877,0.00447083,-0.99279785,0.610352,0.549316,0.000000
6070081541,0.01348877,0.00447083,-0.99279785,-0.122070,0.244141,-0.122070
6075144833,0.01287842,0.00358582,-0.98823547,-0.122070,0.244141,-0.122070
6080226666,0.01287842,0.00358582,-0.98823547,0.366211,0.183105,-0.122070
6085298625,0.01292419,0.00227356,-1.01132202,0.366211,0.183105,-0.122070
6090361791,0.01292419,0.00227356,-1.01132202,0.061035,0.366211,-0.122070
6095430791,0.01261902,0.00476074,-0.98847961,0.061035,0.366211,-0.122070
6097995541,0.01261902,0.00476074,-0.98847961,0.000000,0.244141,0.000000
6105606625,0.01258850,0.00587463,-1.00000000,0.000000,0.244141,0.000000
6108159916,0.01258850,0.00587463,-1.00000000,-0.183105,0.122070,-0.122070
6115760791,0.01405334,0.00386047,-0.99295044,-0.183105,0.122070,-0.122070
6118301333,0.01405334,0.00386047,-0.99295044,0.061035,0.183105,-0.183105
6125893833,0.01441956,0.00375366,-0.99794006,0.061035,0.183105,-0.183105
6128434916,0.01441956,0.00375366,-0.99794006,-0.061035,0.122070,-0.061035
6136017458,0.01515198,0.00476074,-0.99197388,-0.061035,0.122070,-0.061035
6138552291,0.01515198,0.00476074,-0.99197388,-0.122070,0.122070,-0.122070
6146179791,0.01316833,0.00474548,-0.99397278,-0.122070,0.122070,-0.122070
6148723208,0.01316833,0.00474548,-0.99397278,-0.061035,0.061035,-0.061035
6156309333,0.01251221,0.00483704,-0.99530029,-0.061035,0.061035,-0.061035
6158856833,0.01251221,0.00483704,-0.99530029,-0.122070,0.183105,-0.183105
6166461750,0.01266479,0.00393677,-0.99446106,-0.122070,0.183105,-0.183105
6169000708,0.01266479,0.00393677,-0.99446106,0.000000,0.183105,-0.122070
6176594625,0.01412964,0.00256348,-0.99232483,0.000000,0.183105,-0.122070
6179135666,0.01412964,0.00256348,-0.99232483,0.061035,0.122070,0.000000
6184210625,0.01377869,0.00035095,-0.99273682,0.061035,0.122070,0.000000
6189283916,0.01377869,0.00035095,-0.99273682,0.122070,0.244141,-0.122070
6194364375,0.01498413,-0.00076294,-0.99374390,0.122070,0.244141,-0.122070
6199421500,0.01498413,-0.00076294,-0.99374390,0.122070,0.305176,-0.183105
6204493416,0.01574707,-0.00135803,-0.99377441,0.122070,0.305176,-0.183105
6209638375,0.01574707,-0.00135803,-0.99377441,0.061035,-0.061035,-0.183105
6214711000,0.01368713,0.00009155,-0.99148560,0.061035,-0.061035,-0.183105
6219778125,0.01368713,0.00009155,-0.99148560,0.122070,0.183105,-0.061035
6224835958,0.01333618,0.00224304,-1.00390625,0.122070,0.183105,-0.061035
6229948666,0.01333618,0.00224304,-1.00390625,0.000000,0.244141,-0.122070
6235029041,0.01296997,0.00392151,-0.98718262,0.000000,0.244141,-0.122070
6240110125,0.01296997,0.00392151,-0.98718262,0.000000,0.244141,-0.183105
6245178041,0.01217651,0.00563049,-0.99645996,0.000000,0.244141,-0.183105
6250242833,0.01217651,0.00563049,-0.99645996,0.061035,0.122070,-0.061035
6255301541,0.01214600,0.00717163,-0.99240112,0.061035,0.122070,-0.061035
6260360583,0.01214600,0.00717163,-0.99240112,0.061035,0.000000,-0.122070
6265414375,0.01306152,0.00744629,-0.99855042,0.061035,0.000000,-0.122070
6270473041,0.01306152,0.00744629,-0.99855042,-0.061035,0.183105,-0.122070
6275535916,0.01260376,0.00706482,-0.99395752,-0.061035,0.183105,-0.122070
6278079750,0.01260376,0.00706482,-0.99395752,0.061035,0.305176,-0.061035
6285696791,0.01284790,0.00604248,-0.99308777,0.061035,0.305176,-0.061035
6288235333,0.01284790,0.00604248,-0.99308777,0.061035,0.305176,0.000000
6295816708,0.01260376,0.00468445,-0.99441528,0.061035,0.305176,0.000000
6298353083,0.01260376,0.00468445,-0.99441528,0.122070,0.183105,-0.061035
6305985791,0.01310730,0.00378418,-0.99482727,0.122070,0.183105,-0.061035
6308527500,0.01310730,0.00378418,-0.99482727,0.000000,0.183105,0.000000
6316127458,0.01382446,0.00183105,-0.99429321,0.000000,0.183105,0.000000
6318664583,0.01382446,0.00183105,-0.99429321,0.244141,0.122070,-0.122070
6326253750,0.01420593,0.00105286,-0.99412537,0.244141,0.122070,-0.122070
6328798708,0.01420593,0.00105286,-0.99412537,-0.061035,0.183105,-0.122070
6336383333,0.01409912,0.00207520,-0.99499512,-0.061035,0.183105,-0.122070
6338919083,0.01409912,0.00207520,-0.99499512,0.061035,0.244141,-0.061035
6346512875,0.01226807,0.00123596,-0.99459839,0.061035,0.244141,-0.061035
6349047333,0.01226807,0.00123596,-0.99459839,-0.061035,0.061035,-0.061035
6356637791,0.01292419,0.00202942,-0.99340820,-0.061035,0.061035,-0.061035
6359194333,0.01292419,0.00202942,-0.99340820,0.061035,0.183105,-0.122070
6366790208,0.01290894,0.00367737,-0.99365234,0.061035,0.183105,-0.122070
6369344583,0.01290894,0.00367737,-0.99365234,0.183105,0.122070,-0.122070
6376968208,0.01290894,0.00434875,-0.99404907,0.183105,0.122070,-0.122070
6379516500,0.01290894,0.00434875,-0.99404907,0.244141,0.183105,0.000000
6387110083,0.01300049,0.00479126,-0.99320984,0.244141,0.183105,0.000000
6389666916,0.01300049,0.00479126,-0.99320984,0.122070,0.183105,-0.061035
6397277583,0.01321411,0.00370789,-0.99440002,0.122070,0.183105,-0.061035
6399824916,0.01321411,0.00370789,-0.99440002,0.122070,0.183105,-0.122070
6407424416,0.01431274,0.00401306,-0.99377441,0.122070,0.183105,-0.122070
6409966541,0.01431274,0.00401306,-0.99377441,0.061035,0.183105,-0.061035
6417559875,0.01403809,0.00424194,-0.99470520,0.061035,0.183105,-0.061035
6420104500,0.01403809,0.00424194,-0.99470520,0.122070,0.061035,-0.061035
6425173750,0.01304626,0.00437927,-0.99473572,0.122070,0.061035,-0.061035
6430238958,0.01304626,0.00437927,-0.99473572,0.244141,0.183105,-0.061035
6435297041,0.01396179,0.00370789,-0.99473572,0.244141,0.183105,-0.061035
6440362375,0.01396179,0.00370789,-0.99473572,-0.061035,0.244141,0.000000
6445418000,0.01368713,0.00401306,-0.99577332,-0.061035,0.244141,0.000000
6450475250,0.01368713,0.00401306,-0.99577332,0.000000,0.000000,-0.122070
6455532541,0.01423645,0.00382996,-0.99395752,0.000000,0.000000,-0.122070
6460589333,0.01423645,0.00382996,-0.99395752,0.061035,0.244141,-0.122070
6465663291,0.01399231,0.00358582,-0.99377441,0.061035,0.244141,-0.122070
6470744000,0.01399231,0.00358582,-0.99377441,0.061035,0.183105,-0.061035
6475828458,0.01396179,0.00341797,-0.99517822,0.061035,0.183105,-0.061035
6480903458,0.01396179,0.00341797,-0.99517822,0.122070,0.122070,0.000000
6485998458,0.01367188,0.00273132,-0.99462891,0.122070,0.122070,0.000000
6491081708,0.01367188,0.00273132,-0.99462891,0.061035,0.122070,-0.122070
6496156250,0.01370239,0.00193787,-0.99482727,0.061035,0.122070,-0.122070
6501223000,0.01370239,0.00193787,-0.99482727,0.061035,0.122070,-0.061035
6506295000,0.01324463,0.00267029,-0.99452209,0.061035,0.122070,-0.061035
6511379583,0.01324463,0.00267029,-0.99452209,-0.061035,0.244141,-0.061035
6516452166,0.01393127,0.00309753,-0.99237061,-0.061035,0.244141,-0.061035
6519014875,0.01393127,0.00309753,-0.99237061,0.061035,0.183105,-0.122070
6526608000,0.01370239,0.00308228,-0.99501038,0.061035,0.183105,-0.122070
6529146416,0.01370239,0.00308228,-0.99501038,0.122070,0.305176,-0.061035
6536747416,0.01359558,0.00395203,-0.99392700,0.122070,0.305176,-0.061035
6539284583,0.01359558,0.00395203,-0.99392700,0.183105,0.183105,-0.244141
6546862416,0.01339722,0.00479126,-0.99424744,0.183105,0.183105,-0.244141
6549398458,0.01339722,0.00479126,-0.99424744,0.122070,0.244141,-0.122070
6556996000,0.01396179,0.00476074,-0.99342346,0.122070,0.244141,-0.122070
6559529291,0.01396179,0.00476074,-0.99342346,0.122070,0.244141,-0.122070
6567107250,0.01344299,0.00534058,-0.99366760,0.122070,0.244141,-0.122070
6569654125,0.01344299,0.00534058,-0.99366760,0.061035,0.122070,-0.122070
6577167291,0.01254272,0.00488281,-0.99317932,0.061035,0.122070,-0.122070
6579715833,0.01254272,0.00488281,-0.99317932,0.000000,0.183105,-0.122070
6587320041,0.01330566,0.00436401,-0.99424744,0.000000,0.183105,-0.122070
6589861958,0.01330566,0.00436401,-0.99424744,0.122070,0.244141,-0.122070
6597473833,0.01354980,0.00410461,-0.99476624,0.122070,0.244141,-0.122070
6600016541,0.01354980,0.00410461,-0.99476624,0.000000,0.183105,-0.183105
6607624416,0.01422119,0.00318909,-0.99473572,0.000000,0.183105,-0.183105
6610157916,0.01422119,0.00318909,-0.99473572,0.122070,0.183105,-0.122070
6615371208,0.01293945,0.00267029,-0.99404907,0.122070,0.183105,-0.122070
6620436041,0.01293945,0.00267029,-0.99404907,0.122070,0.244141,-0.061035
6625528875,0.01406860,0.00209045,-0.99430847,0.122070,0.244141,-0.061035
6630591625,0.01406860,0.00209045,-0.99430847,0.183105,0.122070,-0.122070
6635650500,0.01399231,0.00215149,-0.99372864,0.183105,0.122070,-0.122070
6640327750,0.01399231,0.00215149,-0.99372864,0.305176,0.122070,-0.183105
6645389666,0.01289368,0.00190735,-0.99299622,0.305176,0.122070,-0.183105
6650449958,0.01289368,0.00190735,-0.99299622,-0.244141,0.000000,-0.183105
6655511166,0.01344299,0.00228882,-0.99240112,-0.244141,0.000000,-0.183105
6660599750,0.01344299,0.00228882,-0.99240112,1.037598,0.122070,-0.122070
6665662458,0.01451111,0.00321960,-0.99163818,1.037598,0.122070,-0.122070
6670732666,0.01451111,0.00321960,-0.99163818,0.122070,0.122070,-0.244141
6675797000,0.01408386,0.00161743,-0.99464417,0.122070,0.122070,-0.244141
6680880541,0.01408386,0.00161743,-0.99464417,0.122070,0.366211,-0.061035
6685968916,0.01315308,0.00396729,-1.00172424,0.122070,0.366211,-0.061035
6691034333,0.01315308,0.00396729,-1.00172424,0.122070,0.305176,-0.122070
6696105708,0.01240540,0.00576782,-0.99191284,0.122070,0.305176,-0.122070
6701165791,0.01240540,0.00576782,-0.99191284,0.244141,0.244141,-0.061035
6706224958,0.01220703,0.00619507,-0.99478149,0.244141,0.244141,-0.061035
6711284000,0.01220703,0.00619507,-0.99478149,0.061035,0.061035,-0.183105
6716180125,0.01379395,0.00646973,-0.99720764,0.061035,0.061035,-0.183105
6721241291,0.01379395,0.00646973,-0.99720764,-0.061035,0.122070,-0.061035
6726306875,0.01428223,0.00630188,-0.99578857,-0.061035,0.122070,-0.061035
6731412583,0.01428223,0.00630188,-0.99578857,0.000000,0.244141,0.000000
6736473958,0.01431274,0.00556946,-0.99539185,0.000000,0.244141,0.000000
6741545208,0.01431274,0.00556946,-0.99539185,-0.122070,0.122070,-0.183105
6746633583,0.01440430,0.00354004,-0.99351501,-0.122070,0.122070,-0.183105
6749187666,0.01440430,0.00354004,-0.99351501,0.122070,0.183105,-0.122070
6756792041,0.01423645,0.00386047,-0.99472046,0.122070,0.183105,-0.122070
6759328666,0.01423645,0.00386047,-0.99472046,0.000000,0.244141,-0.122070
6766914500,0.01377869,0.00292969,-0.99267578,0.000000,0.244141,-0.122070
6769463416,0.01377869,0.00292969,-0.99267578,0.000000,0.183105,-0.122070
6777069541,0.01296997,0.00025940,-0.99235535,0.000000,0.183105,-0.122070
6779618833,0.01296997,0.00025940,-0.99235535,0.000000,0.122070,-0.061035
6787231666,0.01400757,-0.00022888,-0.99339294,0.000000,0.122070,-0.061035
6789772666,0.01400757,-0.00022888,-0.99339294,0.549316,0.244141,-0.122070
6797374916,0.01420593,-0.00117493,-0.99316406,0.549316,0.244141,-0.122070
6799926166,0.01420593,-0.00117493,-0.99316406,-0.549316,0.305176,-0.122070
6807517791,0.01432800,-0.00061035,-0.99380493,-0.549316,0.305176,-0.122070
6810055541,0.01432800,-0.00061035,-0.99380493,0.061035,0.122070,-0.183105
6817668375,0.01428223,0.00196838,-0.99906921,0.061035,0.122070,-0.183105
6820209166,0.01428223,0.00196838,-0.99906921,0.122070,0.183105,-0.122070
6827795958,0.01249695,0.00411987,-0.98689270,0.122070,0.183105,-0.122070
6830338083,0.01249695,0.00411987,-0.98689270,0.000000,0.122070,-0.183105
6837916750,0.01181030,0.00564575,-0.99758911,0.000000,0.122070,-0.183105
6840451500,0.01181030,0.00564575,-0.99758911,0.183105,0.183105,-0.122070
6848029375,0.01260376,0.00587463,-0.99485779,0.183105,0.183105,-0.122070
6850585125,0.01260376,0.00587463,-0.99485779,0.061035,0.366211,-0.061035
6858120750,0.01322937,0.00671387,-0.99478149,0.061035,0.366211,-0.061035
6860669875,0.01322937,0.00671387,-0.99478149,0.061035,0.244141,-0.061035
6868271833,0.01327515,0.00605774,-0.99385071,0.061035,0.244141,-0.061035
6870853500,0.01327515,0.00605774,-0.99385071,0.122070,0.305176,0.061035
6878445458,0.01362610,0.00495911,-0.99324036,0.122070,0.305176,0.061035
6880980583,0.01362610,0.00495911,-0.99324036,0.000000,0.183105,0.061035
6886066916,0.01318359,0.00428772,-0.99349976,0.000000,0.183105,0.061035
6891145458,0.01318359,0.00428772,-0.99349976,0.122070,0.183105,-0.061035
6896209500,0.01310730,0.00392151,-0.99446106,0.122070,0.183105,-0.061035
6901291416,0.01310730,0.00392151,-0.99446106,0.122070,0.122070,-0.122070
6906348958,0.01321411,0.00247192,-0.99490356,0.122070,0.122070,-0.122070
6911421875,0.01321411,0.00247192,-0.99490356,-0.061035,0.183105,0.000000
6919021291,0.01411438,0.00148010,-0.99479675,-0.061035,0.183105,0.000000
6921558416,0.01411438,0.00148010,-0.99479675,-0.061035,0.244141,-0.183105
6926635375,0.01425171,0.00202942,-0.99353027,-0.061035,0.244141,-0.183105
6931702000,0.01425171,0.00202942,-0.99353027,0.183105,0.244141,-0.183105
6936755875,0.01347351,0.00198364,-0.99324036,0.183105,0.244141,-0.183105
6941812083,0.01347351,0.00198364,-0.99324036,0.000000,0.183105,-0.183105
6946886375,0.01432800,0.00233459,-0.99429321,0.000000,0.183105,-0.183105
6951951750,0.01432800,0.00233459,-0.99429321,0.122070,0.122070,-0.061035
6957021791,0.01242065,0.00294495,-0.99337769,0.122070,0.122070,-0.061035
6962087458,0.01242065,0.00294495,-0.99337769,0.061035,0.122070,-0.061035
6967160000,0.01362610,0.00317383,-0.99345398,0.061035,0.122070,-0.061035
6972255875,0.01362610,0.00317383,-0.99345398,0.122070,0.305176,-0.122070
6977319875,0.01220703,0.00387573,-0.99528503,0.122070,0.305176,-0.122070
6982376333,0.01220703,0.00387573,-0.99528503,0.061035,0.183105,-0.061035
6987093291,0.01243591,0.00422668,-0.99481201,0.061035,0.183105,-0.061035
6992153416,0.01243591,0.00422668,-0.99481201,0.061035,0.183105,-0.183105
6997284000,0.01448059,0.00408936,-0.99531555,0.061035,0.183105,-0.183105
7002348166,0.01448059,0.00408936,-0.99531555,0.061035,0.183105,-0.183105
7007412625,0.01448059,0.00440979,-0.99487305,0.061035,0.183105,-0.183105
7012115791,0.01448059,0.00440979,-0.99487305,0.122070,0.122070,-0.061035
7017208000,0.01309204,0.00384521,-0.99502563,0.122070,0.122070,-0.061035
7022296625,0.01309204,0.00384521,-0.99502563,0.061035,0.122070,-0.183105
7027375333,0.01393127,0.00346375,-0.99522400,0.061035,0.122070,-0.183105
7032434000,0.01393127,0.00346375,-0.99522400,0.122070,0.122070,-0.183105
7037502250,0.01434326,0.00413513,-0.99426270,0.122070,0.122070,-0.183105
7042594250,0.01434326,0.00413513,-0.99426270,0.122070,0.183105,-0.061035
7047688125,0.01380920,0.00361633,-0.99278259,0.122070,0.183105,-0.061035
7050225416,0.01380920,0.00361633,-0.99278259,0.000000,0.244141,-0.122070
7057813166,0.01269531,0.00357056,-0.99391174,0.000000,0.244141,-0.122070
7060347666,0.01269531,0.00357056,-0.99391174,0.061035,0.122070,-0.122070
7067927291,0.01402283,0.00303650,-0.99458313,0.061035,0.122070,-0.122070
7070461041,0.01402283,0.00303650,-0.99458313,0.122070,0.183105,0.061035
7078040708,0.01286316,0.00337219,-0.99404907,0.122070,0.183105,0.061035
7080574708,0.01286316,0.00337219,-0.99404907,-0.122070,0.061035,-0.061035
7088157291,0.01293945,0.00306702,-0.99493408,-0.122070,0.061035,-0.061035
7090692833,0.01293945,0.00306702,-0.99493408,0.061035,0.244141,-0.183105
7098270125,0.01284790,0.00260925,-0.99423218,0.061035,0.244141,-0.183105
7100803416,0.01284790,0.00260925,-0.99423218,0.061035,0.183105,-0.183105
7108394333,0.01350403,0.00315857,-0.99351501,0.061035,0.183105,-0.183105
7110927375,0.01350403,0.00315857,-0.99351501,0.061035,0.305176,0.000000
7118509916,0.01417542,0.00415039,-0.99440002,0.061035,0.305176,0.000000
7121046500,0.01417542,0.00415039,-0.99440002,-0.061035,0.305176,-0.183105
7128632458,0.01382446,0.00367737,-0.99493408,-0.061035,0.305176,-0.183105
7131166750,0.01382446,0.00367737,-0.99493408,0.122070,0.244141,-0.061035
7138780541,0.01361084,0.00450134,-0.99378967,0.122070,0.244141,-0.061035
7141337916,0.01361084,0.00450134,-0.99378967,0.061035,0.183105,-0.122070
7146399250,0.01371765,0.00416565,-0.99324036,0.061035,0.183105,-0.122070
7151461083,0.01371765,0.00416565,-0.99324036,0.061035,0.122070,-0.061035
7156520750,0.01419067,0.00389099,-0.99299622,0.061035,0.122070,-0.061035
7161577916,0.01419067,0.00389099,-0.99299622,0.061035,0.366211,-0.122070
7166655666,0.01408386,0.00415039,-0.99438477,0.061035,0.366211,-0.122070
7171722625,0.01408386,0.00415039,-0.99438477,0.183105,0.183105,-0.061035
7176790541,0.01399231,0.00382996,-0.99475098,0.183105,0.183105,-0.061035
7181849083,0.01399231,0.00382996,-0.99475098,-0.061035,0.061035,-0.244141
7186916208,0.01362610,0.00355530,-0.99325562,-0.061035,0.061035,-0.244141
7191735708,0.01362610,0.00355530,-0.99325562,0.061035,0.244141,0.000000
7196796500,0.01359558,0.00402832,-0.99499512,0.061035,0.244141,0.000000
7201878125,0.01359558,0.00402832,-0.99499512,0.183105,0.244141,-0.122070
7206948291,0.01316833,0.00315857,-0.99559021,0.183105,0.244141,-0.122070
7212013208,0.01316833,0.00315857,-0.99559021,0.122070,0.122070,-0.244141
7217072208,0.01268005,0.00262451,-0.99320984,0.122070,0.122070,-0.244141
7222149583,0.01268005,0.00262451,-0.99320984,0.305176,0.244141,-0.061035
7227211708,0.01232910,0.00340271,-0.99197388,0.305176,0.244141,-0.061035
7232270166,0.01232910,0.00340271,-0.99197388,0.000000,0.183105,-0.183105
7237328625,0.01239014,0.00279236,-0.99203491,0.000000,0.183105,-0.183105
7242389250,0.01239014,0.00279236,-0.99203491,1.220703,0.488281,-0.122070
7247507583,0.01380920,0.00238037,-0.99714661,1.220703,0.488281,-0.122070
7252574000,0.01380920,0.00238037,-0.99714661,-0.244141,0.244141,-0.061035
7257634916,0.01382446,0.00198364,-0.98461914,-0.244141,0.244141,-0.061035
7262247250,0.01382446,0.00198364,-0.98461914,0.305176,0.305176,-0.122070
7267325041,0.01342773,0.00154114,-1.00897217,0.305176,0.305176,-0.122070
7272440875,0.01342773,0.00154114,-1.00897217,-0.061035,0.244141,-0.061035
7277517958,0.01239014,0.00402832,-0.98875427,-0.061035,0.244141,-0.061035
7282577041,0.01239014,0.00402832,-0.98875427,0.000000,0.122070,0.000000
7287648416,0.01293945,0.00524902,-0.99934387,0.000000,0.122070,0.000000
7292716708,0.01293945,0.00524902,-0.99934387,-0.122070,0.122070,-0.183105
7297772541,0.01304626,0.00544739,-0.99264526,-0.122070,0.122070,-0.183105
7302832291,0.01304626,0.00544739,-0.99264526,0.000000,0.122070,-0.061035
7307582250,0.01438904,0.00630188,-0.99542236,0.000000,0.122070,-0.061035
7312649041,0.01438904,0.00630188,-0.99542236,0.000000,0.122070,-0.122070
7317716416,0.01327515,0.00642395,-0.99359131,0.000000,0.122070,-0.122070
7322776291,0.01327515,0.00642395,-0.99359131,-0.061035,0.183105,-0.061035
7327849875,0.01271057,0.00564575,-0.99275208,-0.061035,0.183105,-0.061035
7332859416,0.01271057,0.00564575,-0.99275208,0.061035,0.122070,-0.122070
7338000958,0.01332092,0.00431824,-0.99552917,0.061035,0.122070,-0.122070
7340544416,0.01332092,0.00431824,-0.99552917,0.061035,0.183105,0.000000
7348142041,0.01353455,0.00384521,-0.99330139,0.061035,0.183105,0.000000
7350686958,0.01353455,0.00384521,-0.99330139,0.000000,0.183105,0.000000
7358285416,0.01313782,0.00135803,-0.99331665,0.000000,0.183105,0.000000
7360840625,0.01313782,0.00135803,-0.99331665,0.000000,0.244141,0.000000
7368429125,0.01351929,0.00000000,-0.99433899,0.000000,0.244141,0.000000
7373619500,0.01351929,0.00000000,-0.99433899,0.061035,0.061035,-0.122070
7378701375,0.01574707,-0.00004578,-0.98997498,0.061035,0.061035,-0.122070
7381241833,0.01574707,-0.00004578,-0.98997498,0.305176,0.000000,-0.061035
7388835083,0.01524353,0.00106812,-1.00242615,0.305176,0.000000,-0.061035
7391388166,0.01524353,0.00106812,-1.00242615,0.183105,0.244141,-0.122070
7398981541,0.01440430,0.00172424,-0.98625183,0.183105,0.244141,-0.122070
7401516833,0.01440430,0.00172424,-0.98625183,0.122070,0.305176,-0.183105
7409096166,0.01397705,0.00260925,-0.99676514,0.122070,0.305176,-0.183105
7411644041,0.01397705,0.00260925,-0.99676514,0.061035,0.061035,-0.122070
7419239708,0.01354980,0.00482178,-0.99310303,0.061035,0.061035,-0.122070
7421784041,0.01354980,0.00482178,-0.99310303,0.122070,0.183105,-0.183105
7429375416,0.01304626,0.00599670,-0.99650574,0.122070,0.183105,-0.183105
7431911666,0.01304626,0.00599670,-0.99650574,0.000000,0.122070,-0.061035
7439523791,0.01290894,0.00540161,-0.99501038,0.000000,0.122070,-0.061035
7442064750,0.01290894,0.00540161,-0.99501038,0.000000,0.366211,-0.122070
7449512875,0.01225281,0.00439453,-0.99423218,0.000000,0.366211,-0.122070
7452057458,0.01225281,0.00439453,-0.99423218,0.122070,0.122070,-0.122070
7459477958,0.01361084,0.00422668,-0.99444580,0.122070,0.122070,-0.122070
7462020708,0.01361084,0.00422668,-0.99444580,0.061035,0.244141,-0.122070
7467087083,0.01367188,0.00506592,-0.99465942,0.061035,0.244141,-0.122070
7472146666,0.01367188,0.00506592,-0.99465942,0.122070,0.122070,0.000000
7477219416,0.01252747,0.00401306,-0.99401855,0.122070,0.122070,0.000000
7482276708,0.01252747,0.00401306,-0.99401855,0.061035,0.244141,-0.061035
7487337875,0.01411438,0.00306702,-0.99407959,0.061035,0.244141,-0.061035
7492393583,0.01411438,0.00306702,-0.99407959,-0.061035,0.122070,-0.122070
7497462458,0.01425171,0.00311279,-0.99467468,-0.061035,0.122070,-0.122070
7502532041,0.01425171,0.00311279,-0.99467468,0.122070,0.305176,-0.122070
7507592250,0.01380920,0.00164795,-0.99397278,0.122070,0.305176,-0.122070
7512672166,0.01380920,0.00164795,-0.99397278,0.122070,0.183105,-0.122070
7517736000,0.01412964,0.00198364,-0.99475098,0.122070,0.183105,-0.122070
7522828958,0.01412964,0.00198364,-0.99475098,0.122070,0.183105,-0.122070
7527891625,0.01300049,0.00218201,-0.99404907,0.122070,0.183105,-0.122070
7532966708,0.01300049,0.00218201,-0.99404907,0.061035,0.305176,-0.122070
7538027291,0.01272583,0.00370789,-0.99475098,0.061035,0.305176,-0.122070
7543082750,0.01272583,0.00370789,-0.99475098,-0.061035,0.183105,-0.122070
7548154541,0.01364136,0.00437927,-0.99433899,-0.061035,0.183105,-0.122070
7553225000,0.01364136,0.00437927,-0.99433899,0.000000,0.305176,-0.061035
7558286333,0.01367188,0.00483704,-0.99470520,0.000000,0.305176,-0.061035
7563346083,0.01367188,0.00483704,-0.99470520,0.122070,0.183105,-0.122070
7568424916,0.01364136,0.00424194,-0.99497986,0.122070,0.183105,-0.122070
7573504833,0.01364136,0.00424194,-0.99497986,-0.183105,0.183105,-0.061035
7578580125,0.01345825,0.00442505,-0.99455261,-0.183105,0.183105,-0.061035
7581136666,0.01345825,0.00442505,-0.99455261,0.122070,0.244141,-0.122070
7588734625,0.01356506,0.00419617,-0.99267578,0.122070,0.244141,-0.122070
7591136250,0.01356506,0.00419617,-0.99267578,0.122070,0.183105,-0.183105
7598722000,0.01431274,0.00335693,-0.99349976,0.122070,0.183105,-0.183105
7601255125,0.01431274,0.00335693,-0.99349976,0.061035,0.244141,-0.122070
7608832958,0.01393127,0.00392151,-0.99411011,0.061035,0.244141,-0.122070
7611366125,0.01393127,0.00392151,-0.99411011,0.122070,0.244141,-0.122070
7618993500,0.01345825,0.00363159,-0.99383545,0.122070,0.244141,-0.122070
7621533458,0.01345825,0.00363159,-0.99383545,0.000000,0.244141,-0.183105
7629118625,0.01235962,0.00268555,-0.99385071,0.000000,0.244141,-0.183105
7631654375,0.01235962,0.00268555,-0.99385071,0.000000,0.183105,-0.061035
7639236166,0.01364136,0.00196838,-0.99238586,0.000000,0.183105,-0.061035
7641769125,0.01364136,0.00196838,-0.99238586,0.061035,0.122070,-0.061035
7649380958,0.01425171,0.00320435,-0.99391174,0.061035,0.122070,-0.061035
7651937916,0.01425171,0.00320435,-0.99391174,0.122070,0.122070,-0.061035
7659539833,0.01383972,0.00305176,-0.99507141,0.122070,0.122070,-0.061035
7662097208,0.01383972,0.00305176,-0.99507141,0.061035,0.183105,-0.122070
7669696916,0.01260376,0.00230408,-0.99346924,0.061035,0.183105,-0.122070
7672234250,0.01260376,0.00230408,-0.99346924,0.061035,0.183105,0.000000
7679817833,0.01359558,0.00271606,-0.99407959,0.061035,0.183105,0.000000
7682355541,0.01359558,0.00271606,-0.99407959,0.061035,0.183105,-0.122070
7689983875,0.01339722,0.00384521,-0.99485779,0.061035,0.183105,-0.122070
7692526416,0.01339722,0.00384521,-0.99485779,0.000000,0.244141,-0.061035
7700118291,0.01327515,0.00334167,-0.99401855,0.000000,0.244141,-0.061035
7702655666,0.01327515,0.00334167,-0.99401855,0.000000,0.244141,-0.244141
7710259750,0.01371765,0.00415039,-0.99568176,0.000000,0.244141,-0.244141
7712796791,0.01371765,0.00415039,-0.99568176,0.061035,0.122070,-0.061035
7720374875,0.01399231,0.00436401,-0.99552917,0.061035,0.122070,-0.061035
7722909000,0.01399231,0.00436401,-0.99552917,0.000000,0.305176,0.061035
7730511250,0.01332092,0.00480652,-0.99526978,0.000000,0.305176,0.061035
7733062833,0.01332092,0.00480652,-0.99526978,0.122070,0.305176,-0.122070
7738125083,0.01281738,0.00486755,-0.99374390,0.122070,0.305176,-0.122070
7743189291,0.01281738,0.00486755,-0.99374390,-0.061035,0.244141,-0.061035
7748258750,0.01345825,0.00442505,-0.99389648,-0.061035,0.244141,-0.061035
7753320000,0.01345825,0.00442505,-0.99389648,0.000000,0.183105,-0.061035
7758376708,0.01274109,0.00375366,-0.99383545,0.000000,0.183105,-0.061035
7763436000,0.01274109,0.00375366,-0.99383545,0.122070,0.305176,-0.061035
7768490083,0.01251221,0.00335693,-0.99302673,0.122070,0.305176,-0.061035
7773557500,0.01251221,0.00335693,-0.99302673,-0.061035,0.244141,-0.183105
7778626416,0.01354980,0.00227356,-0.99327087,-0.061035,0.244141,-0.183105
7783682250,0.01354980,0.00227356,-0.99327087,0.122070,0.183105,0.000000
7788744083,0.01429749,0.00204468,-0.99444580,0.122070,0.183105,0.000000
7793837208,0.01429749,0.00204468,-0.99444580,0.244141,0.305176,-0.061035
7799870750,0.01316833,0.00268555,-0.99284363,0.244141,0.305176,-0.061035
7802439708,0.01316833,0.00268555,-0.99284363,0.122070,0.366211,-0.122070
7810097458,0.01371765,0.00193787,-0.99266052,0.122070,0.366211,-0.122070
7812640458,0.01371765,0.00193787,-0.99266052,0.671387,0.793457,-0.122070
7820247041,0.01377869,0.00100708,-0.99349976,0.671387,0.793457,-0.122070
7822808833,0.01377869,0.00100708,-0.99349976,-0.244141,0.244141,-0.122070
7830022250,0.01420593,0.00117493,-0.98173523,-0.244141,0.244141,-0.122070
7832549666,0.01420593,0.00117493,-0.98173523,0.244141,0.061035,-0.061035
7840093250,0.01313782,0.00192261,-1.01632690,0.244141,0.061035,-0.061035
7842610416,0.01313782,0.00192261,-1.01632690,-0.122070,0.061035,-0.061035
7850157625,0.01293945,0.00453186,-0.98959351,-0.122070,0.061035,-0.061035
7852679416,0.01293945,0.00453186,-0.98959351,-0.061035,0.183105,-0.061035
7860236250,0.01226807,0.00720215,-1.00218201,-0.061035,0.183105,-0.061035
7862761291,0.01226807,0.00720215,-1.00218201,-0.122070,0.122070,-0.122070
7870311666,0.01237488,0.00836182,-0.99058533,-0.122070,0.122070,-0.122070
7872855833,0.01237488,0.00836182,-0.99058533,0.183105,0.183105,0.000000
7880488208,0.01310730,0.00831604,-0.99526978,0.183105,0.183105,0.000000
7883018458,0.01310730,0.00831604,-0.99526978,0.000000,0.122070,-0.122070
7890271375,0.01385498,0.00733948,-0.99356079,0.000000,0.122070,-0.122070
7892807791,0.01385498,0.00733948,-0.99356079,0.122070,0.244141,0.000000
7900409541,0.01344299,0.00511169,-0.99302673,0.122070,0.244141,0.000000
7902968125,0.01344299,0.00511169,-0.99302673,-0.183105,0.061035,-0.122070
7908099833,0.01303101,0.00285339,-0.99594116,-0.183105,0.061035,-0.122070
7913179833,0.01303101,0.00285339,-0.99594116,-0.183105,0.183105,-0.061035
7918241375,0.01304626,0.00151062,-0.99710083,-0.183105,0.183105,-0.061035
7923301041,0.01304626,0.00151062,-0.99710083,0.000000,0.244141,-0.061035
7928364291,0.01333618,0.00057983,-0.99371338,0.000000,0.244141,-0.061035
7933427666,0.01333618,0.00057983,-0.99371338,-0.122070,0.183105,-0.061035
7938521625,0.01364136,-0.00022888,-0.99436951,-0.122070,0.183105,-0.061035
7943600416,0.01364136,-0.00022888,-0.99436951,0.183105,0.122070,-0.122070
7948803666,0.01402283,-0.00050354,-0.99375916,0.183105,0.122070,-0.122070
7953868166,0.01402283,-0.00050354,-0.99375916,-0.732422,0.183105,-0.183105
7958987208,0.01481628,-0.00035095,-0.99079895,-0.732422,0.183105,-0.183105
7964080291,0.01481628,-0.00035095,-0.99079895,0.122070,0.122070,-0.122070
7969158375,0.01348877,0.00129700,-1.00253296,0.122070,0.122070,-0.122070
7974244708,0.01348877,0.00129700,-1.00253296,-0.122070,0.000000,-0.122070
7979323458,0.01287842,0.00323486,-0.98310852,-0.122070,0.000000,-0.122070
7984404000,0.01287842,0.00323486,-0.98310852,0.183105,0.183105,-0.122070
7989495541,0.01156616,0.00442505,-0.99925232,0.183105,0.183105,-0.122070
7992032791,0.01156616,0.00442505,-0.99925232,0.000000,0.305176,-0.122070
7999623291,0.01263428,0.00569153,-0.99356079,0.000000,0.305176,-0.122070
8002160625,0.01263428,0.00569153,-0.99356079,0.000000,0.305176,-0.061035
8009773125,0.01329041,0.00656128,-0.99536133,0.000000,0.305176,-0.061035
8012309500,0.01329041,0.00656128,-0.99536133,0.061035,0.061035,-0.122070
8019889166,0.01281738,0.00689697,-0.99449158,0.061035,0.061035,-0.122070
8024537791,0.01281738,0.00689697,-0.99449158,0.122070,0.305176,-0.183105
8029603041,0.01338196,0.00633240,-0.99382019,0.122070,0.305176,-0.183105
8032137000,0.01338196,0.00633240,-0.99382019,0.122070,0.183105,-0.183105
8039715375,0.01258850,0.00636292,-0.99438477,0.122070,0.183105,-0.183105
8042252000,0.01258850,0.00636292,-0.99438477,0.061035,0.183105,-0.122070
8049828291,0.01408386,0.00553894,-0.99435425,0.061035,0.183105,-0.122070
8052361166,0.01408386,0.00553894,-0.99435425,0.000000,0.183105,-0.183105
8059965041,0.01409912,0.00418091,-0.99523926,0.000000,0.183105,-0.183105
8062501125,0.01409912,0.00418091,-0.99523926,0.061035,0.061035,-0.244141
8070085041,0.01286316,0.00276184,-0.99470520,0.061035,0.061035,-0.244141
8072623041,0.01286316,0.00276184,-0.99470520,0.061035,0.183105,-0.122070
8080235333,0.01335144,0.00173950,-0.99476624,0.061035,0.183105,-0.122070
8082784500,0.01335144,0.00173950,-0.99476624,0.061035,0.122070,-0.244141
8090178875,0.01329041,0.00090027,-0.99417114,0.061035,0.122070,-0.244141
8092722833,0.01329041,0.00090027,-0.99417114,-0.122070,0.061035,-0.122070
8100356791,0.01321411,0.00117493,-0.99368286,-0.122070,0.061035,-0.122070
8102903000,0.01321411,0.00117493,-0.99368286,0.122070,0.366211,-0.244141
8110510166,0.01261902,0.00215149,-0.99455261,0.122070,0.366211,-0.244141
8113046833,0.01261902,0.00215149,-0.99455261,0.061035,0.244141,-0.122070
8120644333,0.01306152,0.00221252,-0.99465942,0.061035,0.244141,-0.122070
8123182958,0.01306152,0.00221252,-0.99465942,0.000000,0.183105,-0.122070
8130774458,0.01298523,0.00282288,-0.99542236,0.000000,0.183105,-0.122070
8133311375,0.01298523,0.00282288,-0.99542236,0.061035,0.183105,-0.061035
8140889333,0.01379395,0.00447083,-0.99546814,0.061035,0.183105,-0.061035
8143422708,0.01379395,0.00447083,-0.99546814,0.000000,0.061035,-0.061035
8151030375,0.01356506,0.00469971,-0.99502563,0.000000,0.061035,-0.061035
8153573333,0.01356506,0.00469971,-0.99502563,0.061035,0.183105,-0.122070
8161159000,0.01318359,0.00463867,-0.99259949,0.061035,0.183105,-0.122070
8163699875,0.01318359,0.00463867,-0.99259949,0.000000,0.305176,-0.061035
8171313458,0.01417542,0.00572205,-0.99424744,0.000000,0.305176,-0.061035
8173901625,0.01417542,0.00572205,-0.99424744,0.061035,0.244141,-0.061035
8181510916,0.01350403,0.00555420,-0.99491882,0.061035,0.244141,-0.061035
8184043583,0.01350403,0.00555420,-0.99491882,0.122070,0.244141,-0.183105
8189104333,0.01264954,0.00419617,-0.99371338,0.122070,0.244141,-0.183105
8194015166,0.01264954,0.00419617,-0.99371338,0.122070,0.183105,0.000000
8199113333,0.01182556,0.00323486,-0.99363708,0.122070,0.183105,0.000000
8204190916,0.01182556,0.00323486,-0.99363708,-0.061035,0.183105,-0.122070
8209247541,0.01284790,0.00273132,-0.99537659,-0.061035,0.183105,-0.122070
8214304333,0.01284790,0.00273132,-0.99537659,0.061035,0.244141,-0.061035
8219360750,0.01298523,0.00312805,-0.99446106,0.061035,0.244141,-0.061035
