timestamp_ns,accel_x,accel_y,accel_z,gyro_x,gyro_y,gyro_z
88198458,0.00241089,0.00856018,-1.00622559,0.000000,0.000000,0.000000
96792958,0.00241089,0.00856018,-1.00622559,0.488281,0.122070,-0.183105
104042625,0.00117493,0.00839233,-1.00708008,0.488281,0.122070,-0.183105
107668833,0.00199890,0.00834656,-1.00459290,0.305176,0.000000,-0.061035
113137208,0.00199890,0.00834656,-1.00459290,0.488281,0.000000,0.061035
115840041,0.00131226,0.00912476,-1.00558472,0.488281,0.000000,0.061035
121292125,0.00131226,0.00912476,-1.00558472,0.366211,0.122070,0.000000
124007958,0.00115967,0.00898743,-1.00535583,0.366211,0.122070,0.000000
133908875,0.00115967,0.00898743,-1.00535583,0.183105,-0.061035,-0.061035
136588375,0.00178528,0.00758362,-1.00625610,0.183105,-0.061035,-0.061035
141609791,0.00178528,0.00758362,-1.00625610,0.305176,0.122070,-0.061035
144146375,0.00180054,0.00737000,-1.00656128,0.305176,0.122070,-0.061035
151682375,0.00180054,0.00737000,-1.00656128,0.366211,0.000000,-0.122070
154204750,0.00195312,0.00631714,-1.00650024,0.366211,0.000000,-0.122070
161737250,0.00195312,0.00631714,-1.00650024,0.244141,0.000000,0.000000
164251875,0.00195312,0.00688171,-1.00482178,0.244141,0.000000,0.000000
171771958,0.00195312,0.00688171,-1.00482178,0.183105,0.061035,-0.122070
174281583,0.00180054,0.00727844,-1.00582886,0.183105,0.061035,-0.122070
181807750,0.00180054,0.00727844,-1.00582886,0.305176,0.122070,-0.183105
184329041,0.00178528,0.00723267,-1.00561523,0.305176,0.122070,-0.183105
191883208,0.00178528,0.00723267,-1.00561523,0.183105,0.122070,-0.183105
194420666,0.00222778,0.00688171,-1.00436401,0.183105,0.122070,-0.183105
201976208,0.00222778,0.00688171,-1.00436401,0.244141,-0.061035,-0.061035
204504625,0.00144958,0.00717163,-1.00578308,0.244141,-0.061035,-0.061035
211664500,0.00144958,0.00717163,-1.00578308,0.305176,0.122070,-0.061035
214202500,0.00086975,0.00752258,-1.00598145,0.305176,0.122070,-0.061035
221762583,0.00086975,0.00752258,-1.00598145,0.183105,0.061035,-0.061035
224302958,0.00146484,0.00834656,-1.00616455,0.183105,0.061035,-0.061035
231858458,0.00146484,0.00834656,-1.00616455,0.305176,-0.061035,-0.122070
234404916,0.00090027,0.00805664,-1.00628662,0.305176,-0.061035,-0.122070
241966416,0.00090027,0.00805664,-1.00628662,0.305176,0.122070,-0.122070
244530083,0.00083923,0.00926208,-1.00639343,0.305176,0.122070,-0.122070
252054541,0.00083923,0.00926208,-1.00639343,0.305176,0.000000,-0.122070
254569541,0.00003052,0.00863647,-1.00643921,0.305176,0.000000,-0.122070
261646500,0.00003052,0.00863647,-1.00643921,0.488281,0.061035,-0.061035
264182250,0.00131226,0.00819397,-1.00596619,0.488281,0.061035,-0.061035
271731958,0.00131226,0.00819397,-1.00596619,0.366211,-0.061035,-0.061035
274262041,0.00157166,0.00804138,-1.00529480,0.366211,-0.061035,-0.061035
281810541,0.00157166,0.00804138,-1.00529480,0.488281,0.122070,-0.122070
284340208,0.00125122,0.00842285,-1.00578308,0.488281,0.122070,-0.122070
291888666,0.00125122,0.00842285,-1.00578308,0.183105,0.000000,-0.061035
294426375,0.00149536,0.00674438,-1.00613403,0.183105,0.000000,-0.061035
301984250,0.00149536,0.00674438,-1.00613403,0.244141,0.183105,-0.183105
304514416,0.00204468,0.00668335,-1.00561523,0.244141,0.183105,-0.183105
312068875,0.00204468,0.00668335,-1.00561523,0.427246,-0.183105,-0.061035
314495750,0.00173950,0.00688171,-1.00572205,0.427246,-0.183105,-0.061035
322043791,0.00173950,0.00688171,-1.00572205,0.366211,-0.061035,-0.122070
324571500,0.00061035,0.00515747,-1.00650024,0.366211,-0.061035,-0.122070
332118833,0.00061035,0.00515747,-1.00650024,0.305176,0.000000,0.000000
334636250,0.00173950,0.00561523,-1.00614929,0.305176,0.000000,0.000000
341723000,0.00173950,0.00561523,-1.00614929,0.305176,0.061035,0.061035
344259000,0.00209045,0.00720215,-1.00611877,0.305176,0.061035,0.061035
351482708,0.00209045,0.00720215,-1.00611877,0.244141,0.061035,-0.061035
354012541,0.00193787,0.00762939,-1.00593567,0.244141,0.061035,-0.061035
361575625,0.00193787,0.00762939,-1.00593567,0.183105,0.061035,-0.061035
364113250,0.00250244,0.00730896,-1.00650024,0.183105,0.061035,-0.061035
371669541,0.00250244,0.00730896,-1.00650024,0.366211,0.061035,-0.122070
374192000,0.00143433,0.00813293,-1.00561523,0.366211,0.061035,-0.122070
381428833,0.00143433,0.00813293,-1.00561523,0.305176,-0.061035,-0.122070
383953541,0.00201416,0.00846863,-1.00531006,0.305176,-0.061035,-0.122070
391512958,0.00201416,0.00846863,-1.00531006,0.305176,0.122070,-0.122070
394058625,0.00152588,0.00863647,-1.00575256,0.305176,0.122070,-0.122070
401759375,0.00152588,0.00863647,-1.00575256,0.244141,0.000000,-0.122070
404318541,0.00111389,0.00801086,-1.00582886,0.244141,0.000000,-0.122070
411929666,0.00111389,0.00801086,-1.00582886,0.366211,0.122070,0.000000
414501375,0.00091553,0.00805664,-1.00541687,0.366211,0.122070,0.000000
421612500,0.00091553,0.00805664,-1.00541687,0.305176,0.061035,0.061035
424182708,0.00141907,0.00828552,-1.00593567,0.305176,0.061035,0.061035
431488458,0.00141907,0.00828552,-1.00593567,0.244141,0.122070,-0.061035
434049875,0.00169373,0.00738525,-1.00608826,0.244141,0.122070,-0.061035
441691958,0.00169373,0.00738525,-1.00608826,0.366211,0.122070,-0.122070
444232291,0.00167847,0.00646973,-1.00646973,0.366211,0.122070,-0.122070
451934125,0.00167847,0.00646973,-1.00646973,0.244141,0.000000,-0.061035
454518208,0.00178528,0.00737000,-1.00622559,0.244141,0.000000,-0.061035
462239375,0.00178528,0.00737000,-1.00622559,0.305176,0.122070,-0.122070
464307291,0.00114441,0.00668335,-1.00633240,0.305176,0.122070,-0.122070
471961333,0.00114441,0.00668335,-1.00633240,0.366211,-0.061035,0.000000
474519583,0.00175476,0.00675964,-1.00621033,0.366211,-0.061035,0.000000
482080333,0.00175476,0.00675964,-1.00621033,0.183105,0.061035,-0.061035
484631791,0.00163269,0.00614929,-1.00605774,0.183105,0.061035,-0.061035
492215333,0.00163269,0.00614929,-1.00605774,0.427246,0.061035,-0.061035
494763708,0.00192261,0.00660706,-1.00569153,0.427246,0.061035,-0.061035
502452000,0.00192261,0.00660706,-1.00569153,0.305176,0.061035,-0.061035
505043875,0.00157166,0.00750732,-1.00636292,0.305176,0.061035,-0.061035
512651000,0.00157166,0.00750732,-1.00636292,0.305176,0.122070,-0.061035
515219208,0.00216675,0.00677490,-1.00585938,0.305176,0.122070,-0.061035
522834958,0.00216675,0.00677490,-1.00585938,0.305176,0.061035,-0.122070
525016666,0.00181580,0.00765991,-1.00643921,0.305176,0.061035,-0.122070
532627083,0.00181580,0.00765991,-1.00643921,0.366211,0.061035,-0.061035
535181541,0.00093079,0.00831604,-1.00639343,0.366211,0.061035,-0.061035
542788875,0.00093079,0.00831604,-1.00639343,0.305176,0.000000,-0.061035
545328208,0.00186157,0.00839233,-1.00695801,0.305176,0.000000,-0.061035
550445750,0.00186157,0.00839233,-1.00695801,0.366211,0.061035,-0.061035
552991500,0.00122070,0.00860596,-1.00559998,0.366211,0.061035,-0.061035
560575625,0.00122070,0.00860596,-1.00559998,0.305176,0.000000,-0.122070
563111708,0.00094604,0.00851440,-1.00617981,0.305176,0.000000,-0.122070
570784083,0.00094604,0.00851440,-1.00617981,0.061035,0.000000,-0.183105
576064416,0.00128174,0.00877380,-1.00592041,0.061035,0.000000,-0.183105
581472958,0.00128174,0.00877380,-1.00592041,0.427246,0.061035,-0.061035
586256416,0.00123596,0.00770569,-1.00663757,0.427246,0.061035,-0.061035
591657583,0.00123596,0.00770569,-1.00663757,0.305176,0.061035,-0.061035
594283708,0.00117493,0.00770569,-1.00714111,0.305176,0.061035,-0.061035
602044000,0.00117493,0.00770569,-1.00714111,0.305176,-0.061035,-0.122070
604691833,0.00106812,0.00656128,-1.00608826,0.305176,-0.061035,-0.122070
612404125,0.00106812,0.00656128,-1.00608826,0.183105,0.000000,-0.061035
614975958,0.00123596,0.00677490,-1.00476074,0.183105,0.000000,-0.061035
622720458,0.00123596,0.00677490,-1.00476074,0.244141,-0.061035,-0.122070
625369625,0.00086975,0.00646973,-1.00585938,0.244141,-0.061035,-0.122070
630552041,0.00086975,0.00646973,-1.00585938,0.305176,0.061035,0.000000
633113333,0.00193787,0.00695801,-1.00613403,0.305176,0.061035,0.000000
642987541,0.00216675,0.00688171,-1.00601196,0.244141,0.122070,-0.122070
650605250,0.00216675,0.00688171,-1.00601196,0.122070,0.183105,-0.122070
653176833,0.00321960,0.00740051,-1.00556946,0.122070,0.183105,-0.122070
662770583,0.00321960,0.00740051,-1.00556946,0.061035,0.061035,-0.122070
665343666,0.00186157,0.00724792,-1.00633240,0.061035,0.061035,-0.122070
672661958,0.00186157,0.00724792,-1.00633240,0.122070,0.061035,-0.061035
675264958,0.00094604,0.00704956,-1.00700378,0.122070,0.061035,-0.061035
682943000,0.00094604,0.00704956,-1.00700378,0.305176,0.122070,0.000000
685513166,0.00076294,0.00900269,-1.00587463,0.305176,0.122070,0.000000
690635583,0.00076294,0.00900269,-1.00587463,0.183105,0.000000,-0.122070
693224458,0.00138855,0.00978088,-1.00376892,0.183105,0.000000,-0.122070
700819125,0.00138855,0.00978088,-1.00376892,0.305176,0.000000,-0.122070
703404000,0.00117493,0.00834656,-1.00485229,0.305176,0.000000,-0.122070
711129500,0.00117493,0.00834656,-1.00485229,0.488281,0.122070,-0.122070
713712791,0.00048828,0.00895691,-1.00552368,0.488281,0.122070,-0.122070
721432041,0.00048828,0.00895691,-1.00552368,0.427246,0.000000,-0.183105
724039750,0.00068665,0.00825500,-1.00524902,0.427246,0.000000,-0.183105
731697958,0.00068665,0.00825500,-1.00524902,0.305176,0.000000,-0.122070
734283750,0.00108337,0.00666809,-1.00660706,0.305176,0.000000,-0.122070
741936041,0.00108337,0.00666809,-1.00660706,0.427246,0.122070,0.000000
744496166,0.00180054,0.00758362,-1.00646973,0.427246,0.122070,0.000000
752121541,0.00180054,0.00758362,-1.00646973,0.366211,0.061035,-0.061035
754779291,0.00247192,0.00956726,-1.00643921,0.366211,0.061035,-0.061035
762421500,0.00247192,0.00956726,-1.00643921,0.366211,0.000000,-0.061035
764976208,0.00346375,0.00782776,-1.00663757,0.366211,0.000000,-0.061035
772679166,0.00346375,0.00782776,-1.00663757,0.305176,0.061035,-0.122070
775263291,0.00201416,0.00685120,-1.00590515,0.305176,0.061035,-0.122070
782790041,0.00201416,0.00685120,-1.00590515,0.244141,0.061035,-0.122070
785363208,0.00228882,0.00688171,-1.00669861,0.244141,0.061035,-0.122070
790574333,0.00228882,0.00688171,-1.00669861,0.305176,0.061035,-0.122070
793148250,0.00270081,0.00738525,-1.00674438,0.305176,0.061035,-0.122070
800765125,0.00270081,0.00738525,-1.00674438,0.244141,0.000000,-0.183105
803374958,0.00105286,0.00784302,-1.00566101,0.244141,0.000000,-0.183105
811037375,0.00105286,0.00784302,-1.00566101,0.122070,0.061035,0.000000
813625791,0.00080872,0.00755310,-1.00619507,0.122070,0.061035,0.000000
820945250,0.00080872,0.00755310,-1.00619507,0.366211,0.122070,-0.122070
823507541,0.00070190,0.00782776,-1.00663757,0.366211,0.122070,-0.122070
831126416,0.00070190,0.00782776,-1.00663757,0.427246,0.061035,-0.061035
833680208,0.00157166,0.00845337,-1.00646973,0.427246,0.061035,-0.061035
840860000,0.00157166,0.00845337,-1.00646973,0.305176,0.061035,-0.122070
843419666,0.00141907,0.00904846,-1.00537109,0.305176,0.061035,-0.122070
850730666,0.00141907,0.00904846,-1.00537109,0.244141,0.122070,-0.122070
853336875,0.00062561,0.00802612,-1.00630188,0.244141,0.122070,-0.122070
860994791,0.00062561,0.00802612,-1.00630188,0.244141,0.000000,0.000000
863076333,0.00117493,0.00782776,-1.00602722,0.244141,0.000000,0.000000
872216708,0.00117493,0.00782776,-1.00602722,0.244141,0.061035,0.000000
874498375,0.00109863,0.00804138,-1.00657654,0.244141,0.061035,0.000000
881989416,0.00109863,0.00804138,-1.00657654,0.244141,0.122070,-0.061035
884500000,0.00109863,0.00845337,-1.00526428,0.244141,0.122070,-0.061035
892035333,0.00109863,0.00845337,-1.00526428,0.244141,0.122070,-0.183105
894549458,0.00137329,0.00758362,-1.00592041,0.244141,0.122070,-0.183105
902079958,0.00137329,0.00758362,-1.00592041,0.305176,0.000000,-0.122070
904597333,0.00190735,0.00727844,-1.00523376,0.305176,0.000000,-0.122070
912154916,0.00190735,0.00727844,-1.00523376,0.427246,0.122070,-0.061035
914672541,0.00225830,0.00767517,-1.00601196,0.427246,0.122070,-0.061035
922211208,0.00225830,0.00767517,-1.00601196,0.427246,0.061035,0.000000
924727208,0.00148010,0.00730896,-1.00579834,0.427246,0.061035,0.000000
932259041,0.00148010,0.00730896,-1.00579834,0.305176,0.122070,-0.244141
934770750,0.00126648,0.00703430,-1.00727844,0.305176,0.122070,-0.244141
942344791,0.00126648,0.00703430,-1.00727844,0.183105,-0.061035,0.000000
944866708,0.00233459,0.00793457,-1.00587463,0.183105,-0.061035,0.000000
952428625,0.00233459,0.00793457,-1.00587463,0.305176,-0.061035,-0.122070
954951333,0.00132751,0.00755310,-1.00561523,0.305176,-0.061035,-0.122070
962516500,0.00132751,0.00755310,-1.00561523,0.366211,0.000000,-0.183105
965036583,0.00128174,0.00738525,-1.00604248,0.366211,0.000000,-0.183105
972613333,0.00128174,0.00738525,-1.00604248,0.244141,0.000000,-0.122070
975145916,0.00090027,0.00755310,-1.00637817,0.244141,0.000000,-0.122070
982717958,0.00090027,0.00755310,-1.00637817,0.427246,0.061035,-0.122070
985257750,0.00041199,0.00796509,-1.00584412,0.427246,0.061035,-0.122070
992833000,0.00041199,0.00796509,-1.00584412,0.366211,0.061035,-0.183105
995368875,0.00141907,0.00814819,-1.00576782,0.366211,0.061035,-0.183105
1000454375,0.00141907,0.00814819,-1.00576782,0.244141,-0.061035,0.000000
1002974041,0.00102234,0.00837708,-1.00634766,0.244141,-0.061035,0.000000
1010528583,0.00102234,0.00837708,-1.00634766,0.305176,0.000000,-0.183105
1013048041,0.00039673,0.00744629,-1.00683594,0.305176,0.000000,-0.183105
1020588791,0.00039673,0.00744629,-1.00683594,0.366211,0.000000,-0.061035
1023107708,0.00071716,0.00791931,-1.00593567,0.366211,0.000000,-0.061035
1030717833,0.00071716,0.00791931,-1.00593567,0.427246,0.061035,-0.122070
1035551958,0.00056458,0.00814819,-1.00668335,0.427246,0.061035,-0.122070
1040613000,0.00056458,0.00814819,-1.00668335,0.305176,0.122070,-0.061035
1043141083,0.00112915,0.00846863,-1.00598145,0.305176,0.122070,-0.061035
1050691125,0.00112915,0.00846863,-1.00598145,0.366211,0.000000,-0.061035
1055423000,0.00114441,0.00785828,-1.00674438,0.366211,0.000000,-0.061035
1060515375,0.00114441,0.00785828,-1.00674438,0.244141,0.061035,-0.183105
1063043916,0.00157166,0.00639343,-1.00608826,0.244141,0.061035,-0.183105
1070624500,0.00157166,0.00639343,-1.00608826,0.305176,0.061035,-0.122070
1075710750,0.00155640,0.00700378,-1.00666809,0.305176,0.061035,-0.122070
1080786458,0.00155640,0.00700378,-1.00666809,0.305176,0.061035,-0.122070
1083340958,0.00120544,0.00778198,-1.00633240,0.305176,0.061035,-0.122070
1090956416,0.00120544,0.00778198,-1.00633240,0.244141,0.000000,-0.122070
1093506541,0.00117493,0.00691223,-1.00694275,0.244141,0.000000,-0.122070
1100808000,0.00117493,0.00691223,-1.00694275,0.366211,0.183105,-0.183105
1103369333,0.00077820,0.00776672,-1.00648499,0.366211,0.183105,-0.183105
1110971791,0.00077820,0.00776672,-1.00648499,0.427246,0.061035,-0.122070
1113515333,0.00152588,0.00781250,-1.00579834,0.427246,0.061035,-0.122070
1121170833,0.00152588,0.00781250,-1.00579834,0.305176,0.000000,-0.122070
1123730708,0.00201416,0.00749207,-1.00627136,0.305176,0.000000,-0.122070
1131354916,0.00201416,0.00749207,-1.00627136,0.427246,0.122070,0.000000
1133932250,0.00184631,0.00825500,-1.00717163,0.427246,0.122070,0.000000
1141597541,0.00184631,0.00825500,-1.00717163,0.366211,0.000000,0.000000
1143961416,0.00117493,0.00807190,-1.00553894,0.366211,0.000000,0.000000
1150941416,0.00117493,0.00807190,-1.00553894,0.366211,-0.061035,-0.122070
1153527250,0.00111389,0.00856018,-1.00588989,0.366211,-0.061035,-0.122070
1161149416,0.00111389,0.00856018,-1.00588989,0.244141,0.000000,-0.122070
1163699541,0.00076294,0.00852966,-1.00642395,0.244141,0.000000,-0.122070
1171331583,0.00076294,0.00852966,-1.00642395,0.427246,0.061035,0.061035
1173798541,0.00111389,0.00740051,-1.00701904,0.427246,0.061035,0.061035
1181428583,0.00111389,0.00740051,-1.00701904,0.305176,0.000000,-0.244141
1183991250,0.00144958,0.00711060,-1.00668335,0.305176,0.000000,-0.244141
1191247125,0.00144958,0.00711060,-1.00668335,0.244141,0.122070,-0.183105
1193796958,0.00178528,0.00741577,-1.00688171,0.244141,0.122070,-0.183105
1201420750,0.00178528,0.00741577,-1.00688171,0.366211,0.122070,0.000000
1203993291,0.00079346,0.00607300,-1.00595093,0.366211,0.122070,0.000000
1211300291,0.00079346,0.00607300,-1.00595093,0.305176,0.122070,-0.183105
1213850041,0.00091553,0.00726318,-1.00645447,0.305176,0.122070,-0.183105
1221530250,0.00091553,0.00726318,-1.00645447,0.366211,-0.122070,-0.061035
1224123000,0.00215149,0.00834656,-1.00579834,0.366211,-0.122070,-0.061035
1231412583,0.00215149,0.00834656,-1.00579834,0.244141,0.000000,-0.244141
1233994916,0.00129700,0.00711060,-1.00529480,0.244141,0.000000,-0.244141
1241551458,0.00129700,0.00711060,-1.00529480,0.183105,0.000000,-0.122070
1244154708,0.00093079,0.00770569,-1.00495911,0.183105,0.000000,-0.122070
1251869958,0.00093079,0.00770569,-1.00495911,0.305176,0.061035,0.000000
1254471916,0.00146484,0.00872803,-1.00668335,0.305176,0.061035,0.000000
1262133416,0.00146484,0.00872803,-1.00668335,0.366211,0.122070,-0.183105
1264703708,0.00146484,0.00888062,-1.00709534,0.366211,0.122070,-0.183105
1272407666,0.00146484,0.00888062,-1.00709534,0.366211,0.000000,-0.122070
1274939208,0.00144958,0.00799561,-1.00598145,0.366211,0.000000,-0.122070
1282220125,0.00144958,0.00799561,-1.00598145,0.244141,0.122070,-0.061035
1284962416,0.00144958,0.00891113,-1.00523376,0.244141,0.122070,-0.061035
1292694875,0.00144958,0.00891113,-1.00523376,0.366211,0.061035,-0.122070
1295208708,0.00131226,0.00775146,-1.00596619,0.366211,0.061035,-0.122070
1302922916,0.00131226,0.00775146,-1.00596619,0.244141,0.000000,-0.183105
1305166750,0.00190735,0.00765991,-1.00630188,0.244141,0.000000,-0.183105
1312846583,0.00190735,0.00765991,-1.00630188,0.305176,0.000000,-0.061035
1315448416,0.00186157,0.00712585,-1.00576782,0.305176,0.000000,-0.061035
1320569958,0.00186157,0.00712585,-1.00576782,0.366211,0.122070,-0.122070
1325701833,0.00183105,0.00802612,-1.00520325,0.366211,0.122070,-0.122070
1330833083,0.00183105,0.00802612,-1.00520325,0.305176,0.183105,-0.061035
1336002666,0.00146484,0.00726318,-1.00628662,0.305176,0.183105,-0.061035
1341171666,0.00146484,0.00726318,-1.00628662,0.366211,0.000000,-0.183105
1343751458,0.00114441,0.00715637,-1.00683594,0.366211,0.000000,-0.183105
1351409916,0.00114441,0.00715637,-1.00683594,0.244141,0.061035,-0.061035
1353995041,0.00225830,0.00796509,-1.00675964,0.244141,0.061035,-0.061035
1361624750,0.00225830,0.00796509,-1.00675964,0.244141,0.061035,-0.183105
1364187375,0.00173950,0.00708008,-1.00750732,0.244141,0.061035,-0.183105
1371430500,0.00173950,0.00708008,-1.00750732,0.366211,0.183105,0.000000
1374017083,0.00187683,0.00724792,-1.00656128,0.366211,0.183105,0.000000
1381343875,0.00187683,0.00724792,-1.00656128,0.427246,0.061035,-0.122070
1383919708,0.00210571,0.00732422,-1.00740051,0.427246,0.061035,-0.122070
1391567708,0.00210571,0.00732422,-1.00740051,0.305176,0.000000,-0.183105
1394133000,0.00146484,0.00759888,-1.00602722,0.305176,0.000000,-0.183105
1401781791,0.00146484,0.00759888,-1.00602722,0.244141,0.000000,-0.061035
1404367958,0.00170898,0.00782776,-1.00585938,0.244141,0.000000,-0.061035
1411997208,0.00170898,0.00782776,-1.00585938,0.305176,-0.061035,-0.183105
1414447958,0.00202942,0.00750732,-1.00588989,0.305176,-0.061035,-0.183105
1421795458,0.00202942,0.00750732,-1.00588989,0.427246,0.183105,-0.061035
1424343291,0.00117493,0.00750732,-1.00622559,0.427246,0.183105,-0.061035
1431921791,0.00117493,0.00750732,-1.00622559,0.244141,0.061035,0.000000
1434461625,0.00158691,0.00848389,-1.00543213,0.244141,0.061035,0.000000
1441718458,0.00158691,0.00848389,-1.00543213,0.244141,0.061035,-0.061035
1444267583,0.00100708,0.00765991,-1.00675964,0.244141,0.061035,-0.061035
1451633958,0.00100708,0.00765991,-1.00675964,0.366211,0.061035,-0.061035
1454180041,0.00198364,0.00805664,-1.00645447,0.366211,0.061035,-0.061035
1461789583,0.00198364,0.00805664,-1.00645447,0.305176,0.061035,0.000000
1464346083,0.00106812,0.00801086,-1.00628662,0.305176,0.061035,0.000000
1471951041,0.00106812,0.00801086,-1.00628662,0.305176,0.061035,-0.061035
1474503541,0.00141907,0.00857544,-1.00593567,0.305176,0.061035,-0.061035
1482132416,0.00141907,0.00857544,-1.00593567,0.244141,0.000000,-0.061035
1484686416,0.00167847,0.00810242,-1.00662231,0.244141,0.000000,-0.061035
1491802708,0.00167847,0.00810242,-1.00662231,0.244141,0.061035,-0.122070
1494368125,0.00115967,0.00695801,-1.00585938,0.244141,0.061035,-0.122070
1501973041,0.00115967,0.00695801,-1.00585938,0.244141,0.061035,-0.061035
1504521875,0.00108337,0.00643921,-1.00666809,0.244141,0.061035,-0.061035
1511688083,0.00108337,0.00643921,-1.00666809,0.366211,-0.122070,-0.061035
1514228458,0.00074768,0.00643921,-1.00593567,0.366211,-0.122070,-0.061035
1521838833,0.00074768,0.00643921,-1.00593567,0.488281,0.122070,-0.061035
1524335458,0.00077820,0.00718689,-1.00566101,0.488281,0.122070,-0.061035
1531932875,0.00077820,0.00718689,-1.00566101,0.366211,-0.061035,-0.122070
1534474291,0.00109863,0.00695801,-1.00634766,0.366211,-0.061035,-0.122070
1541933041,0.00109863,0.00695801,-1.00634766,0.122070,0.061035,-0.061035
1544476625,0.00073242,0.00650024,-1.00703430,0.122070,0.061035,-0.061035
1552075458,0.00073242,0.00650024,-1.00703430,0.183105,0.183105,-0.122070
1554615666,0.00137329,0.00810242,-1.00541687,0.183105,0.183105,-0.122070
1562204041,0.00137329,0.00810242,-1.00541687,0.305176,0.061035,-0.061035
1564760083,0.00064087,0.00781250,-1.00581360,0.305176,0.061035,-0.061035
1572385500,0.00064087,0.00781250,-1.00581360,0.366211,0.122070,-0.183105
1574929791,0.00097656,0.00843811,-1.00569153,0.366211,0.122070,-0.183105
1581647041,0.00097656,0.00843811,-1.00569153,0.305176,0.061035,0.000000
1584194333,0.00053406,0.00773621,-1.00653076,0.305176,0.061035,0.000000
1591806458,0.00053406,0.00773621,-1.00653076,0.427246,-0.122070,-0.061035
1594350333,0.00180054,0.00805664,-1.00582886,0.427246,-0.122070,-0.061035
1601961875,0.00180054,0.00805664,-1.00582886,0.427246,0.183105,-0.061035
1604525166,0.00158691,0.00842285,-1.00735474,0.427246,0.183105,-0.061035
1612055625,0.00158691,0.00842285,-1.00735474,0.244141,0.061035,0.000000
1614602625,0.00151062,0.00764465,-1.00659180,0.244141,0.061035,0.000000
1622197875,0.00151062,0.00764465,-1.00659180,0.305176,0.061035,-0.122070
1624760791,0.00143433,0.00749207,-1.00665283,0.305176,0.061035,-0.122070
1632360166,0.00143433,0.00749207,-1.00665283,0.366211,0.122070,-0.061035
1634902083,0.00204468,0.00706482,-1.00604248,0.366211,0.122070,-0.061035
1642486666,0.00204468,0.00706482,-1.00604248,0.305176,0.122070,-0.061035
1645028416,0.00183105,0.00743103,-1.00549316,0.305176,0.122070,-0.061035
1652653791,0.00183105,0.00743103,-1.00549316,0.366211,0.061035,-0.061035
1655202291,0.00140381,0.00848389,-1.00657654,0.366211,0.061035,-0.061035
1662796625,0.00140381,0.00848389,-1.00657654,0.305176,0.122070,-0.122070
1665339166,0.00172424,0.00711060,-1.00689697,0.305176,0.122070,-0.122070
1672947833,0.00172424,0.00711060,-1.00689697,0.366211,0.000000,-0.061035
1675491333,0.00198364,0.00692749,-1.00683594,0.366211,0.000000,-0.061035
1683094958,0.00198364,0.00692749,-1.00683594,0.549316,0.122070,-0.183105
1685633458,0.00114441,0.00741577,-1.00657654,0.549316,0.122070,-0.183105
1690685291,0.00114441,0.00741577,-1.00657654,0.305176,0.122070,0.000000
1695740500,0.00082397,0.00726318,-1.00619507,0.305176,0.122070,0.000000
1700822166,0.00082397,0.00726318,-1.00619507,0.366211,0.000000,-0.061035
1705929041,0.00135803,0.00732422,-1.00570679,0.366211,0.000000,-0.061035
1711016000,0.00135803,0.00732422,-1.00570679,0.366211,-0.183105,-0.061035
1713554458,0.00140381,0.00785828,-1.00610352,0.366211,-0.183105,-0.061035
1720835666,0.00140381,0.00785828,-1.00610352,0.427246,0.000000,-0.122070
1725894083,0.00158691,0.00765991,-1.00549316,0.427246,0.000000,-0.122070
1730608125,0.00158691,0.00765991,-1.00549316,0.305176,0.000000,-0.122070
1735679666,0.00201416,0.00753784,-1.00561523,0.305176,0.000000,-0.122070
1740743291,0.00201416,0.00753784,-1.00561523,0.244141,0.061035,-0.122070
1745803041,0.00279236,0.00758362,-1.00724792,0.244141,0.061035,-0.122070
1750866125,0.00279236,0.00758362,-1.00724792,0.305176,0.000000,-0.061035
1755929083,0.00199890,0.00703430,-1.00671387,0.305176,0.000000,-0.061035
1760736750,0.00199890,0.00703430,-1.00671387,0.427246,0.122070,-0.122070
1765823166,0.00074768,0.00729370,-1.00700378,0.427246,0.122070,-0.122070
1770947500,0.00074768,0.00729370,-1.00700378,0.427246,0.061035,-0.122070
1775632750,0.00064087,0.00708008,-1.00602722,0.427246,0.061035,-0.122070
1780721875,0.00064087,0.00708008,-1.00602722,0.427246,0.061035,-0.122070
1785808625,0.00132751,0.00729370,-1.00621033,0.427246,0.061035,-0.122070
1790886166,0.00132751,0.00729370,-1.00621033,0.366211,0.122070,-0.061035
1795978458,0.00141907,0.00750732,-1.00585938,0.366211,0.122070,-0.061035
1800839166,0.00141907,0.00750732,-1.00585938,0.244141,0.000000,0.000000
1805514041,0.00212097,0.00807190,-1.00619507,0.244141,0.000000,0.000000
1810585791,0.00212097,0.00807190,-1.00619507,0.366211,0.000000,-0.061035
1815587666,0.00215149,0.00804138,-1.00677490,0.366211,0.000000,-0.061035
1820640208,0.00215149,0.00804138,-1.00677490,0.366211,0.000000,-0.061035
1825725375,0.00163269,0.00805664,-1.00494385,0.366211,0.000000,-0.061035
1830842083,0.00163269,0.00805664,-1.00494385,0.427246,-0.122070,-0.183105
1835739750,0.00114441,0.00808716,-1.00694275,0.427246,-0.122070,-0.183105
1840651125,0.00114441,0.00808716,-1.00694275,0.488281,-0.061035,-0.122070
1845730375,0.00149536,0.00787354,-1.00610352,0.488281,-0.061035,-0.122070
1850711416,0.00149536,0.00787354,-1.00610352,0.549316,0.000000,0.000000
1855799083,0.00074768,0.00711060,-1.00576782,0.549316,0.000000,0.000000
1860874375,0.00074768,0.00711060,-1.00576782,0.793457,0.061035,0.000000
1865994458,0.00016785,0.00671387,-1.00509644,0.793457,0.061035,0.000000
1871073291,0.00016785,0.00671387,-1.00509644,0.671387,0.000000,-0.061035
1876145791,0.00181580,0.00749207,-1.00399780,0.671387,0.000000,-0.061035
1881220750,0.00181580,0.00749207,-1.00399780,0.549316,0.183105,-0.122070
1883767041,0.00202942,0.00819397,-1.00622559,0.549316,0.183105,-0.122070
1891360083,0.00202942,0.00819397,-1.00622559,0.366211,-0.122070,-0.122070
1893902291,0.00028992,0.00888062,-1.00732422,0.366211,-0.122070,-0.122070
1901513875,0.00028992,0.00888062,-1.00732422,0.244141,0.000000,-0.122070
1904064416,0.00112915,0.00942993,-1.00785828,0.244141,0.000000,-0.122070
1911729916,0.00112915,0.00942993,-1.00785828,0.366211,0.183105,-0.061035
1914284791,0.00198364,0.00831604,-1.00582886,0.366211,0.183105,-0.061035
1921901416,0.00198364,0.00831604,-1.00582886,0.305176,0.122070,-0.061035
1924454041,0.00137329,0.00802612,-1.00572205,0.305176,0.122070,-0.061035
1932024958,0.00137329,0.00802612,-1.00572205,0.305176,0.122070,-0.061035
1934559041,0.00144958,0.00648499,-1.00622559,0.305176,0.122070,-0.061035
1942143166,0.00144958,0.00648499,-1.00622559,0.305176,0.061035,-0.061035
1944688166,0.00146484,0.00502014,-1.00489807,0.305176,0.061035,-0.061035
1952304041,0.00146484,0.00502014,-1.00489807,0.366211,0.122070,-0.122070
1954867166,0.00135803,0.00465393,-1.00457764,0.366211,0.122070,-0.122070
1962470791,0.00135803,0.00465393,-1.00457764,0.366211,0.183105,-0.122070
1965035916,0.00131226,0.00451660,-1.00595093,0.366211,0.183105,-0.122070
1972307458,0.00131226,0.00451660,-1.00595093,0.427246,0.183105,-0.122070
1974857208,0.00077820,0.00622559,-1.00605774,0.427246,0.183105,-0.122070
1982490333,0.00077820,0.00622559,-1.00605774,0.488281,0.183105,0.000000
1985067708,0.00204468,0.00816345,-1.00419617,0.488281,0.183105,0.000000
1992472291,0.00204468,0.00816345,-1.00419617,0.610352,0.061035,-0.122070
1995025208,0.00276184,0.00732422,-1.00639343,0.610352,0.061035,-0.122070
2002667041,0.00276184,0.00732422,-1.00639343,0.488281,0.122070,0.000000
2005218625,0.00291443,0.00756836,-1.00427246,0.488281,0.122070,0.000000
2012806875,0.00291443,0.00756836,-1.00427246,0.427246,0.122070,0.000000
2015336916,0.00286865,0.00837708,-1.00971985,0.427246,0.122070,0.000000
2022908250,0.00286865,0.00837708,-1.00971985,0.488281,0.061035,-0.122070
2025455166,0.00146484,0.00730896,-1.00971985,0.488281,0.061035,-0.122070
2032961958,0.00146484,0.00730896,-1.00971985,0.305176,0.000000,-0.061035
2035500166,0.00187683,0.00746155,-1.00585938,0.305176,0.000000,-0.061035
2043098333,0.00187683,0.00746155,-1.00585938,0.488281,0.061035,-0.122070
2045384000,0.00148010,0.00817871,-1.00445557,0.488281,0.061035,-0.122070
2052844041,0.00148010,0.00817871,-1.00445557,0.366211,0.122070,-0.122070
2055392041,0.00067139,0.00755310,-1.00529480,0.366211,0.122070,-0.122070
2062828708,0.00067139,0.00755310,-1.00529480,0.427246,0.000000,0.000000
2065390750,0.00053406,0.00755310,-1.00692749,0.427246,0.000000,0.000000
2072611958,0.00053406,0.00755310,-1.00692749,0.671387,0.122070,-0.183105
2075161083,0.00198364,0.00761414,-1.00572205,0.671387,0.122070,-0.183105
2082729250,0.00198364,0.00761414,-1.00572205,0.183105,0.061035,-0.122070
2085125875,0.00067139,0.00744629,-1.00573730,0.183105,0.061035,-0.122070
2092692000,0.00067139,0.00744629,-1.00573730,0.244141,0.000000,-0.061035
2095221750,0.00082397,0.00677490,-1.00796509,0.244141,0.000000,-0.061035
2102763125,0.00082397,0.00677490,-1.00796509,0.366211,0.000000,0.061035
2105122958,0.00155640,0.00737000,-1.00761414,0.366211,0.000000,0.061035
2112874625,0.00155640,0.00737000,-1.00761414,0.305176,0.122070,-0.183105
2115416916,0.00057983,0.00749207,-1.00634766,0.305176,0.122070,-0.183105
2122994916,0.00057983,0.00749207,-1.00634766,0.183105,0.061035,-0.183105
2125549708,0.00151062,0.00764465,-1.00544739,0.183105,0.061035,-0.183105
2133195625,0.00151062,0.00764465,-1.00544739,0.305176,0.183105,-0.061035
2135749000,0.00207520,0.00695801,-1.00669861,0.305176,0.183105,-0.061035
2140834583,0.00207520,0.00695801,-1.00669861,0.366211,0.122070,0.061035
2145908166,0.00251770,0.00656128,-1.00616455,0.366211,0.122070,0.061035
2151015166,0.00251770,0.00656128,-1.00616455,0.305176,0.183105,-0.122070
2153564916,0.00288391,0.00596619,-1.00604248,0.305176,0.183105,-0.122070
2161196583,0.00288391,0.00596619,-1.00604248,0.305176,0.061035,-0.122070
2163739625,0.00228882,0.00646973,-1.00593567,0.305176,0.061035,-0.122070
2171373416,0.00228882,0.00646973,-1.00593567,0.305176,0.061035,-0.305176
2173933041,0.00241089,0.00744629,-1.00772095,0.305176,0.061035,-0.305176
2181548958,0.00241089,0.00744629,-1.00772095,0.366211,-0.061035,0.000000
2184162833,0.00181580,0.00700378,-1.00700378,0.366211,-0.061035,0.000000
2191811375,0.00181580,0.00700378,-1.00700378,0.305176,-0.061035,-0.244141
2194393166,0.00169373,0.00784302,-1.00567627,0.305176,-0.061035,-0.244141
2201750125,0.00169373,0.00784302,-1.00567627,0.366211,0.061035,-0.122070
2204382583,0.00166321,0.00796509,-1.00755310,0.366211,0.061035,-0.122070
2212089000,0.00166321,0.00796509,-1.00755310,0.244141,0.183105,-0.061035
2214692083,0.00131226,0.00827026,-1.00737000,0.244141,0.183105,-0.061035
2222372208,0.00131226,0.00827026,-1.00737000,0.366211,0.061035,-0.061035
2224979750,0.00090027,0.00804138,-1.00694275,0.366211,0.061035,-0.061035
2232443708,0.00090027,0.00804138,-1.00694275,0.427246,-0.122070,-0.061035
2235047000,0.00048828,0.00749207,-1.00543213,0.427246,-0.122070,-0.061035
2242675041,0.00048828,0.00749207,-1.00543213,0.305176,0.061035,-0.122070
2245223791,0.00070190,0.00724792,-1.00485229,0.305176,0.061035,-0.122070
2252897541,0.00070190,0.00724792,-1.00485229,0.305176,0.183105,0.000000
2255549625,0.00028992,0.00660706,-1.01081848,0.305176,0.183105,0.000000
2260779916,0.00028992,0.00660706,-1.01081848,0.305176,0.122070,-0.122070
2265943875,0.00068665,0.00605774,-1.00773621,0.305176,0.122070,-0.122070
2271085833,0.00068665,0.00605774,-1.00773621,0.366211,-0.061035,0.000000
2273687708,0.00096130,0.00680542,-1.00428772,0.366211,-0.061035,0.000000
2281403041,0.00096130,0.00680542,-1.00428772,0.366211,0.061035,-0.061035
2283785083,0.00181580,0.00761414,-1.00512695,0.366211,0.061035,-0.061035
2290925125,0.00181580,0.00761414,-1.00512695,0.305176,0.183105,-0.122070
2293591833,0.00386047,0.00805664,-1.00750732,0.305176,0.183105,-0.122070
2300799666,0.00386047,0.00805664,-1.00750732,0.244141,-0.122070,-0.122070
2305997083,0.00331116,0.00831604,-1.00680542,0.244141,-0.122070,-0.122070
2311111708,0.00331116,0.00831604,-1.00680542,0.305176,0.061035,-0.122070
2313676250,0.00280762,0.00770569,-1.00489807,0.305176,0.061035,-0.122070
2321300916,0.00280762,0.00770569,-1.00489807,0.427246,0.000000,-0.122070
2323868916,0.00205994,0.00660706,-1.00531006,0.427246,0.000000,-0.122070
2331500625,0.00205994,0.00660706,-1.00531006,0.183105,-0.061035,-0.122070
2334061541,0.00190735,0.00636292,-1.00669861,0.183105,-0.061035,-0.122070
2341744833,0.00190735,0.00636292,-1.00669861,0.244141,0.122070,-0.183105
2344309250,0.00051880,0.00662231,-1.00579834,0.244141,0.122070,-0.183105
2352017583,0.00051880,0.00662231,-1.00579834,0.244141,0.000000,-0.122070
2354266250,0.00103760,0.00700378,-1.00572205,0.244141,0.000000,-0.122070
2361926750,0.00103760,0.00700378,-1.00572205,0.305176,0.061035,-0.061035
2364506250,0.00193787,0.00682068,-1.00602722,0.305176,0.061035,-0.061035
2372195208,0.00193787,0.00682068,-1.00602722,0.305176,-0.061035,-0.061035
2374768625,0.00175476,0.00830078,-1.00550842,0.305176,-0.061035,-0.061035
2382382750,0.00175476,0.00830078,-1.00550842,0.366211,-0.122070,-0.122070
2384936416,0.00074768,0.00730896,-1.00547791,0.366211,-0.122070,-0.122070
2392451833,0.00074768,0.00730896,-1.00547791,0.183105,-0.061035,-0.061035
2394927541,0.00030518,0.00689697,-1.00636292,0.183105,-0.061035,-0.061035
2402223541,0.00030518,0.00689697,-1.00636292,0.244141,-0.122070,-0.122070
2404793833,0.00035095,0.00691223,-1.00807190,0.244141,-0.122070,-0.122070
2412413083,0.00035095,0.00691223,-1.00807190,0.366211,0.122070,-0.122070
2414971625,0.00051880,0.00691223,-1.00608826,0.366211,0.122070,-0.122070
2422561250,0.00051880,0.00691223,-1.00608826,0.366211,0.061035,0.000000
2425159375,0.00102234,0.00646973,-1.00631714,0.366211,0.061035,0.000000
2432699541,0.00102234,0.00646973,-1.00631714,0.305176,-0.122070,-0.122070
2435024291,0.00256348,0.00599670,-1.00685120,0.305176,-0.122070,-0.122070
2442485625,0.00256348,0.00599670,-1.00685120,0.305176,0.122070,-0.122070
2445028791,0.00317383,0.00683594,-1.00779724,0.305176,0.122070,-0.122070
2452665166,0.00317383,0.00683594,-1.00779724,0.244141,0.061035,-0.122070
2455217708,0.00312805,0.00715637,-1.00517273,0.244141,0.061035,-0.122070
2462863250,0.00312805,0.00715637,-1.00517273,0.244141,0.061035,-0.061035
2465471666,0.00311279,0.00662231,-1.00485229,0.244141,0.061035,-0.061035
2473229916,0.00311279,0.00662231,-1.00485229,0.305176,0.061035,0.000000
2475917041,0.00331116,0.00701904,-1.00588989,0.305176,0.061035,0.000000
2481060625,0.00331116,0.00701904,-1.00588989,0.366211,0.061035,-0.122070
2485735583,0.00242615,0.00712585,-1.00630188,0.366211,0.061035,-0.122070
2490856041,0.00242615,0.00712585,-1.00630188,0.305176,-0.061035,-0.122070
2495734291,0.00157166,0.00772095,-1.00592041,0.305176,-0.061035,-0.122070
2500887916,0.00157166,0.00772095,-1.00592041,0.244141,0.000000,-0.244141
2506108250,0.00030518,0.00762939,-1.00500488,0.244141,0.000000,-0.244141
2511239958,0.00030518,0.00762939,-1.00500488,0.366211,-0.061035,-0.122070
2513803791,0.00073242,0.00765991,-1.00566101,0.366211,-0.061035,-0.122070
2521449208,0.00073242,0.00765991,-1.00566101,0.427246,0.000000,-0.061035
2524040166,0.00048828,0.00689697,-1.00654602,0.427246,0.000000,-0.061035
2531673000,0.00048828,0.00689697,-1.00654602,0.244141,0.000000,-0.122070
2534236083,0.00079346,0.00729370,-1.00389099,0.244141,0.000000,-0.122070
2541434125,0.00079346,0.00729370,-1.00389099,0.122070,-0.061035,0.061035
2543985333,0.00068665,0.00660706,-1.01091003,0.122070,-0.061035,0.061035
2551264708,0.00068665,0.00660706,-1.01091003,0.366211,0.122070,-0.061035
2553544958,0.00051880,0.00646973,-1.00694275,0.366211,0.122070,-0.061035
2561132125,0.00051880,0.00646973,-1.00694275,0.305176,0.061035,0.000000
2563676875,0.00245667,0.00669861,-1.00357056,0.305176,0.061035,0.000000
2570822250,0.00245667,0.00669861,-1.00357056,0.366211,0.000000,-0.061035
2575909791,0.00178528,0.00700378,-1.00233459,0.366211,0.000000,-0.061035
2581031333,0.00178528,0.00700378,-1.00233459,0.366211,0.000000,-0.061035
2583583291,0.00292969,0.00645447,-1.00665283,0.366211,0.000000,-0.061035
2591192208,0.00292969,0.00645447,-1.00665283,0.366211,0.000000,-0.061035
2593735875,0.00315857,0.00706482,-1.00738525,0.366211,0.000000,-0.061035
2601334291,0.00315857,0.00706482,-1.00738525,0.305176,0.061035,-0.061035
2603878541,0.00254822,0.00576782,-1.00532532,0.305176,0.061035,-0.061035
2611485666,0.00254822,0.00576782,-1.00532532,0.244141,0.000000,-0.183105
2614041250,0.00221252,0.00553894,-1.00546265,0.244141,0.000000,-0.183105
2621648291,0.00221252,0.00553894,-1.00546265,0.366211,0.061035,-0.122070
2624202125,0.00140381,0.00599670,-1.00627136,0.366211,0.061035,-0.122070
2631801666,0.00140381,0.00599670,-1.00627136,0.305176,0.122070,0.000000
2634346750,0.00119019,0.00718689,-1.00624084,0.305176,0.122070,0.000000
2641967000,0.00119019,0.00718689,-1.00624084,0.305176,0.061035,0.000000
2644516416,0.00164795,0.00692749,-1.00634766,0.305176,0.061035,0.000000
2652098250,0.00164795,0.00692749,-1.00634766,0.183105,0.061035,-0.122070
2654639625,0.00196838,0.00798035,-1.00717163,0.183105,0.061035,-0.122070
2662237583,0.00196838,0.00798035,-1.00717163,0.244141,-0.061035,-0.122070
2664786875,0.00025940,0.00836182,-1.00564575,0.244141,-0.061035,-0.122070
2672454666,0.00025940,0.00836182,-1.00564575,0.366211,-0.061035,-0.122070
2675038500,0.00065613,0.00796509,-1.00552368,0.366211,-0.061035,-0.122070
2682523833,0.00065613,0.00796509,-1.00552368,0.305176,-0.061035,-0.061035
2685130791,0.00064087,0.00775146,-1.00579834,0.305176,-0.061035,-0.061035
2692799708,0.00064087,0.00775146,-1.00579834,0.427246,-0.061035,-0.122070
2695399416,0.00157166,0.00694275,-1.00558472,0.427246,-0.061035,-0.122070
2703062416,0.00157166,0.00694275,-1.00558472,0.122070,0.000000,-0.122070
2705676000,0.00210571,0.00674438,-1.00692749,0.122070,0.000000,-0.122070
2710876625,0.00210571,0.00674438,-1.00692749,0.366211,0.183105,0.000000
2715919875,0.00236511,0.00607300,-1.00741577,0.366211,0.183105,0.000000
2721117333,0.00236511,0.00607300,-1.00741577,0.305176,0.061035,-0.061035
2723724750,0.00134277,0.00662231,-1.00593567,0.305176,0.061035,-0.061035
2731409083,0.00134277,0.00662231,-1.00593567,0.305176,-0.061035,-0.061035
2733976125,0.00015259,0.00708008,-1.00688171,0.305176,-0.061035,-0.061035
2741622083,0.00015259,0.00708008,-1.00688171,0.244141,0.244141,-0.122070
2744183041,0.00169373,0.00709534,-1.00491333,0.244141,0.244141,-0.122070
2751886166,0.00169373,0.00709534,-1.00491333,0.305176,0.061035,-0.244141
2754474666,0.00186157,0.00691223,-1.00833130,0.305176,0.061035,-0.244141
2762111625,0.00186157,0.00691223,-1.00833130,0.488281,0.061035,0.000000
2764681916,0.00138855,0.00689697,-1.00434875,0.488281,0.061035,0.000000
2772300041,0.00138855,0.00689697,-1.00434875,0.305176,-0.061035,-0.061035
2774902541,0.00057983,0.00691223,-1.00518799,0.305176,-0.061035,-0.061035
2782154625,0.00057983,0.00691223,-1.00518799,0.305176,0.061035,-0.061035
2784750958,0.00178528,0.00695801,-1.00549316,0.305176,0.061035,-0.061035
2792038333,0.00178528,0.00695801,-1.00549316,0.305176,-0.061035,0.000000
2794594916,0.00082397,0.00756836,-1.00793457,0.305176,-0.061035,0.000000
2802225250,0.00082397,0.00756836,-1.00793457,0.366211,0.000000,-0.122070
2804813000,0.00047302,0.00694275,-1.00599670,0.366211,0.000000,-0.122070
2812426208,0.00047302,0.00694275,-1.00599670,0.366211,0.061035,-0.061035
2814988291,0.00094604,0.00636292,-1.00576782,0.366211,0.061035,-0.061035
2822568250,0.00094604,0.00636292,-1.00576782,0.244141,0.122070,-0.061035
2825141583,0.00167847,0.00712585,-1.00651550,0.244141,0.122070,-0.061035
2832760166,0.00167847,0.00712585,-1.00651550,0.244141,-0.061035,-0.122070
2835252666,0.00161743,0.00738525,-1.00646973,0.244141,-0.061035,-0.122070
2842874625,0.00161743,0.00738525,-1.00646973,0.305176,0.061035,-0.061035
2845428791,0.00183105,0.00759888,-1.00651550,0.305176,0.061035,-0.061035
2852802958,0.00183105,0.00759888,-1.00651550,0.244141,0.122070,-0.122070
2855345833,0.00265503,0.00663757,-1.00680542,0.244141,0.122070,-0.122070
2862967375,0.00265503,0.00663757,-1.00680542,0.427246,0.061035,-0.061035
2865516125,0.00236511,0.00613403,-1.00630188,0.427246,0.061035,-0.061035
2873115041,0.00236511,0.00613403,-1.00630188,0.427246,0.061035,-0.183105
2875478541,0.00222778,0.00619507,-1.00610352,0.427246,0.061035,-0.183105
2883083250,0.00222778,0.00619507,-1.00610352,0.366211,0.000000,-0.122070
2885633708,0.00108337,0.00689697,-1.00503540,0.366211,0.000000,-0.122070
2893261166,0.00108337,0.00689697,-1.00503540,0.244141,0.061035,-0.122070
2895819916,0.00173950,0.00679016,-1.00790405,0.244141,0.061035,-0.122070
2903340625,0.00173950,0.00679016,-1.00790405,0.366211,0.061035,0.000000
2905919000,0.00132751,0.00779724,-1.00570679,0.366211,0.061035,0.000000
2913103958,0.00132751,0.00779724,-1.00570679,0.244141,0.061035,-0.061035
2915651416,0.00061035,0.00677490,-1.00413513,0.244141,0.061035,-0.061035
2923270541,0.00061035,0.00677490,-1.00413513,0.305176,-0.061035,-0.061035
2925831958,0.00155640,0.00628662,-1.00512695,0.305176,-0.061035,-0.061035
2930922541,0.00155640,0.00628662,-1.00512695,0.305176,0.061035,-0.183105
2936034208,0.00155640,0.00721741,-1.00790405,0.305176,0.061035,-0.183105
2941138333,0.00155640,0.00721741,-1.00790405,0.366211,0.000000,-0.122070
2943684750,0.00198364,0.00770569,-1.00682068,0.366211,0.000000,-0.122070
2951291250,0.00198364,0.00770569,-1.00682068,0.183105,0.000000,-0.183105
2953845333,0.00148010,0.00706482,-1.00485229,0.183105,0.000000,-0.183105
2961470250,0.00148010,0.00706482,-1.00485229,0.244141,0.061035,-0.122070
2964029208,0.00067139,0.00642395,-1.00582886,0.244141,0.061035,-0.122070
2971205958,0.00067139,0.00642395,-1.00582886,0.488281,0.122070,-0.061035
2973776833,0.00097656,0.00675964,-1.00604248,0.488281,0.122070,-0.061035
2981371416,0.00097656,0.00675964,-1.00604248,0.244141,-0.061035,-0.183105
2983913208,0.00119019,0.00700378,-1.00549316,0.244141,-0.061035,-0.183105
2991518958,0.00119019,0.00700378,-1.00549316,0.305176,0.061035,-0.061035
2994059500,0.00102234,0.00643921,-1.00566101,0.305176,0.061035,-0.061035
3001654333,0.00102234,0.00643921,-1.00566101,0.305176,0.122070,-0.061035
3004195958,0.00123596,0.00695801,-1.00570679,0.305176,0.122070,-0.061035
3011796666,0.00123596,0.00695801,-1.00570679,0.244141,-0.061035,-0.122070
3014338666,0.00173950,0.00682068,-1.00645447,0.244141,-0.061035,-0.122070
3021690708,0.00173950,0.00682068,-1.00645447,0.305176,-0.061035,0.000000
3024235875,0.00166321,0.00695801,-1.00610352,0.305176,-0.061035,0.000000
3031823000,0.00166321,0.00695801,-1.00610352,0.305176,0.000000,-0.122070
3034374208,0.00172424,0.00737000,-1.00607300,0.305176,0.000000,-0.122070
3041594458,0.00172424,0.00737000,-1.00607300,0.183105,0.000000,-0.122070
3044092833,0.00161743,0.00680542,-1.00569153,0.183105,0.000000,-0.122070
3051681333,0.00161743,0.00680542,-1.00569153,0.244141,0.000000,-0.183105
3054222625,0.00192261,0.00711060,-1.00599670,0.244141,0.000000,-0.183105
3061654333,0.00192261,0.00711060,-1.00599670,0.183105,0.000000,-0.122070
3064184500,0.00077820,0.00758362,-1.00624084,0.183105,0.000000,-0.122070
3071775208,0.00077820,0.00758362,-1.00624084,0.305176,0.061035,-0.061035
3074314875,0.00157166,0.00715637,-1.00645447,0.305176,0.061035,-0.061035
3081920916,0.00157166,0.00715637,-1.00645447,0.305176,-0.061035,-0.061035
3084460000,0.00199890,0.00819397,-1.00622559,0.305176,-0.061035,-0.061035
3092059416,0.00199890,0.00819397,-1.00622559,0.366211,0.000000,0.061035
3094600375,0.00119019,0.00811768,-1.00596619,0.366211,0.000000,0.061035
3102209291,0.00119019,0.00811768,-1.00596619,0.305176,0.000000,-0.061035
3104691208,0.00028992,0.00808716,-1.00521851,0.305176,0.000000,-0.061035
3112026333,0.00028992,0.00808716,-1.00521851,0.305176,0.122070,-0.061035
3114588375,0.00106812,0.00732422,-1.00584412,0.305176,0.122070,-0.061035
3122191958,0.00106812,0.00732422,-1.00584412,0.305176,-0.061035,-0.061035
3124748416,0.00143433,0.00709534,-1.00679016,0.305176,-0.061035,-0.061035
3131959500,0.00143433,0.00709534,-1.00679016,0.244141,0.000000,-0.122070
3134497916,0.00146484,0.00645447,-1.00558472,0.244141,0.000000,-0.122070
3142100750,0.00146484,0.00645447,-1.00558472,0.366211,0.061035,-0.122070
3144651791,0.00164795,0.00555420,-1.00593567,0.366211,0.061035,-0.122070
3152278250,0.00164795,0.00555420,-1.00593567,0.122070,0.000000,-0.122070
3154813916,0.00198364,0.00573730,-1.00663757,0.122070,0.000000,-0.122070
3162235541,0.00198364,0.00573730,-1.00663757,0.244141,0.122070,-0.122070
3164821083,0.00164795,0.00614929,-1.00604248,0.244141,0.122070,-0.122070
3172154833,0.00164795,0.00614929,-1.00604248,0.427246,0.122070,0.000000
3174719666,0.00161743,0.00679016,-1.00601196,0.427246,0.122070,0.000000
3182315458,0.00161743,0.00679016,-1.00601196,0.305176,0.061035,0.061035
3184846375,0.00173950,0.00723267,-1.00637817,0.305176,0.061035,0.061035
3192412250,0.00173950,0.00723267,-1.00637817,0.244141,0.000000,-0.061035
3194936500,0.00144958,0.00595093,-1.00601196,0.244141,0.000000,-0.061035
3202485958,0.00144958,0.00595093,-1.00601196,0.427246,0.000000,-0.061035
3205011041,0.00102234,0.00662231,-1.00592041,0.427246,0.000000,-0.061035
3212583625,0.00102234,0.00662231,-1.00592041,0.305176,-0.061035,-0.122070
3215103333,0.00048828,0.00680542,-1.00610352,0.305176,-0.061035,-0.122070
3222659458,0.00048828,0.00680542,-1.00610352,0.427246,0.000000,-0.183105
3225200291,0.00122070,0.00695801,-1.00607300,0.427246,0.000000,-0.183105
3232777041,0.00122070,0.00695801,-1.00607300,0.305176,0.000000,0.000000
3235307791,0.00172424,0.00746155,-1.00561523,0.305176,0.000000,0.000000
3242498541,0.00172424,0.00746155,-1.00561523,0.366211,-0.061035,-0.122070
3245048958,0.00161743,0.00747681,-1.00595093,0.366211,-0.061035,-0.122070
3252634166,0.00161743,0.00747681,-1.00595093,0.366211,0.061035,-0.122070
3255164791,0.00231934,0.00691223,-1.00567627,0.366211,0.061035,-0.122070
3262342000,0.00231934,0.00691223,-1.00567627,0.305176,0.000000,-0.061035
3264470125,0.00158691,0.00628662,-1.00637817,0.305176,0.000000,-0.061035
3272191958,0.00158691,0.00628662,-1.00637817,0.305176,-0.183105,-0.061035
3274753583,0.00114441,0.00665283,-1.00587463,0.305176,-0.183105,-0.061035
3282326791,0.00114441,0.00665283,-1.00587463,0.305176,-0.061035,0.000000
3284883083,0.00175476,0.00650024,-1.00567627,0.305176,-0.061035,0.000000
3292211000,0.00175476,0.00650024,-1.00567627,0.183105,-0.061035,-0.183105
3294755791,0.00158691,0.00640869,-1.00561523,0.183105,-0.061035,-0.183105
3302090625,0.00158691,0.00640869,-1.00561523,0.244141,-0.061035,-0.061035
3304646458,0.00184631,0.00633240,-1.00569153,0.244141,-0.061035,-0.061035
3312233083,0.00184631,0.00633240,-1.00569153,0.305176,0.061035,-0.061035
3314654250,0.00122070,0.00633240,-1.00573730,0.305176,0.061035,-0.061035
3321899166,0.00122070,0.00633240,-1.00573730,0.305176,0.122070,-0.183105
3324461500,0.00204468,0.00640869,-1.00631714,0.305176,0.122070,-0.183105
3331694791,0.00204468,0.00640869,-1.00631714,0.427246,0.061035,-0.183105
3334304541,0.00230408,0.00738525,-1.00686646,0.427246,0.061035,-0.183105
3341962166,0.00230408,0.00738525,-1.00686646,0.366211,0.061035,-0.061035
3344537958,0.00205994,0.00704956,-1.00584412,0.366211,0.061035,-0.061035
3352181708,0.00205994,0.00704956,-1.00584412,0.244141,-0.122070,0.000000
3354744458,0.00108337,0.00749207,-1.00578308,0.244141,-0.122070,0.000000
3362455250,0.00108337,0.00749207,-1.00578308,0.183105,0.061035,-0.122070
3364684208,0.00242615,0.00798035,-1.00613403,0.183105,0.061035,-0.122070
3372306083,0.00242615,0.00798035,-1.00613403,0.183105,-0.122070,-0.183105
3374871666,0.00151062,0.00689697,-1.00662231,0.183105,-0.122070,-0.183105
3382505083,0.00151062,0.00689697,-1.00662231,0.427246,0.000000,-0.122070
3385079458,0.00183105,0.00712585,-1.00672913,0.427246,0.000000,-0.122070
3392519208,0.00183105,0.00712585,-1.00672913,0.305176,0.061035,-0.122070
3395071666,0.00138855,0.00726318,-1.00657654,0.305176,0.061035,-0.122070
3402672250,0.00138855,0.00726318,-1.00657654,0.122070,0.122070,-0.061035
3405214708,0.00169373,0.00602722,-1.00750732,0.122070,0.122070,-0.061035
3412789000,0.00169373,0.00602722,-1.00750732,0.427246,0.000000,-0.061035
3415351000,0.00184631,0.00640869,-1.00550842,0.427246,0.000000,-0.061035
3422942833,0.00184631,0.00640869,-1.00550842,0.427246,0.000000,-0.061035
3425486416,0.00122070,0.00578308,-1.00646973,0.427246,0.000000,-0.061035
3433102083,0.00122070,0.00578308,-1.00646973,0.244141,0.000000,-0.061035
3435641333,0.00074768,0.00682068,-1.00611877,0.244141,0.000000,-0.061035
3443244500,0.00074768,0.00682068,-1.00611877,0.305176,0.000000,0.000000
3445789333,0.00140381,0.00706482,-1.00685120,0.305176,0.000000,0.000000
3453414791,0.00140381,0.00706482,-1.00685120,0.305176,0.061035,-0.061035
3455966541,0.00177002,0.00685120,-1.00650024,0.305176,0.061035,-0.061035
3461039000,0.00177002,0.00685120,-1.00650024,0.305176,0.000000,0.000000
3463582583,0.00221252,0.00617981,-1.00602722,0.305176,0.000000,0.000000
3471179250,0.00221252,0.00617981,-1.00602722,0.366211,0.061035,-0.061035
3473723500,0.00138855,0.00723267,-1.00558472,0.366211,0.061035,-0.061035
3481338583,0.00138855,0.00723267,-1.00558472,0.610352,0.061035,0.061035
3483883791,0.00016785,0.00755310,-1.00584412,0.610352,0.061035,0.061035
3491195166,0.00016785,0.00755310,-1.00584412,0.366211,0.122070,-0.061035
3493736791,0.00067139,0.00723267,-1.00537109,0.366211,0.122070,-0.061035
3501335250,0.00067139,0.00723267,-1.00537109,0.244141,-0.122070,-0.183105
3503881958,0.00125122,0.00698853,-1.00556946,0.244141,-0.122070,-0.183105
3511494666,0.00125122,0.00698853,-1.00556946,0.305176,-0.061035,-0.061035
3514047041,0.00175476,0.00735474,-1.00585938,0.305176,-0.061035,-0.061035
3521655041,0.00175476,0.00735474,-1.00585938,0.305176,0.000000,0.000000
3524202458,0.00103760,0.00741577,-1.00538635,0.305176,0.000000,0.000000
3531805208,0.00103760,0.00741577,-1.00538635,0.244141,0.061035,-0.122070
3534348791,0.00175476,0.00730896,-1.00634766,0.244141,0.061035,-0.122070
3541945000,0.00175476,0.00730896,-1.00634766,0.305176,0.122070,-0.061035
3544487541,0.00274658,0.00709534,-1.00683594,0.305176,0.122070,-0.061035
3552105791,0.00274658,0.00709534,-1.00683594,0.427246,0.061035,0.000000
3554154333,0.00216675,0.00703430,-1.00646973,0.427246,0.061035,0.000000
3561999375,0.00216675,0.00703430,-1.00646973,0.366211,0.122070,-0.061035
3564555250,0.00085449,0.00686646,-1.00617981,0.366211,0.122070,-0.061035
3572164541,0.00085449,0.00686646,-1.00617981,0.305176,0.000000,-0.122070
3574726500,0.00120544,0.00799561,-1.00566101,0.305176,0.000000,-0.122070
3582346416,0.00120544,0.00799561,-1.00566101,0.183105,0.183105,-0.122070
3584894500,0.00148010,0.00740051,-1.00724792,0.183105,0.183105,-0.122070
3592485208,0.00148010,0.00740051,-1.00724792,0.366211,0.000000,-0.183105
3595041250,0.00131226,0.00727844,-1.00653076,0.366211,0.000000,-0.183105
3602642250,0.00131226,0.00727844,-1.00653076,0.427246,0.000000,-0.122070
3604917750,0.00129700,0.00686646,-1.00608826,0.427246,0.000000,-0.122070
3612535916,0.00129700,0.00686646,-1.00608826,0.427246,0.000000,-0.061035
3615080666,0.00067139,0.00688171,-1.00639343,0.427246,0.000000,-0.061035
3622680333,0.00067139,0.00688171,-1.00639343,0.305176,0.061035,-0.061035
3625220791,0.00181580,0.00706482,-1.00621033,0.305176,0.061035,-0.061035
3632828208,0.00181580,0.00706482,-1.00621033,0.244141,0.000000,-0.061035
3635392125,0.00149536,0.00663757,-1.00619507,0.244141,0.000000,-0.061035
3642997625,0.00149536,0.00663757,-1.00619507,0.183105,-0.122070,-0.122070
3645538916,0.00137329,0.00656128,-1.00531006,0.183105,-0.122070,-0.122070
3653136583,0.00137329,0.00656128,-1.00531006,0.305176,0.000000,-0.122070
3655673250,0.00170898,0.00662231,-1.00573730,0.305176,0.000000,-0.122070
3663268041,0.00170898,0.00662231,-1.00573730,0.122070,0.061035,-0.244141
3665850791,0.00160217,0.00691223,-1.00511169,0.122070,0.061035,-0.244141
3673490541,0.00160217,0.00691223,-1.00511169,0.305176,0.061035,-0.061035
3676035958,0.00096130,0.00765991,-1.00585938,0.305176,0.061035,-0.061035
3681112291,0.00096130,0.00765991,-1.00585938,0.366211,0.061035,-0.122070
3683656416,0.00115967,0.00759888,-1.00650024,0.366211,0.061035,-0.122070
3691261208,0.00115967,0.00759888,-1.00650024,0.366211,0.061035,-0.122070
3693799875,0.00076294,0.00733948,-1.00657654,0.366211,0.061035,-0.122070
3701402500,0.00076294,0.00733948,-1.00657654,0.244141,0.061035,-0.183105
3703961875,0.00088501,0.00733948,-1.00566101,0.244141,0.061035,-0.183105
3711575375,0.00088501,0.00733948,-1.00566101,0.305176,0.000000,-0.122070
3714121666,0.00085449,0.00775146,-1.00665283,0.305176,0.000000,-0.122070
3721686833,0.00085449,0.00775146,-1.00665283,0.244141,-0.122070,0.000000
3724237916,0.00050354,0.00630188,-1.00665283,0.244141,-0.122070,0.000000
3731845916,0.00050354,0.00630188,-1.00665283,0.183105,0.061035,-0.061035
3734392375,0.00160217,0.00650024,-1.00607300,0.183105,0.061035,-0.061035
3741991875,0.00160217,0.00650024,-1.00607300,0.366211,0.000000,-0.183105
3744532583,0.00177002,0.00692749,-1.00628662,0.366211,0.000000,-0.183105
3752142333,0.00177002,0.00692749,-1.00628662,0.305176,0.061035,-0.122070
3754699000,0.00207520,0.00636292,-1.00679016,0.305176,0.061035,-0.122070
3761936291,0.00207520,0.00636292,-1.00679016,0.305176,0.183105,0.000000
3764496500,0.00196838,0.00704956,-1.00679016,0.305176,0.183105,0.000000
3772058500,0.00196838,0.00704956,-1.00679016,0.366211,0.122070,-0.122070
3774633541,0.00198364,0.00721741,-1.00611877,0.366211,0.122070,-0.122070
3782377208,0.00198364,0.00721741,-1.00611877,0.366211,0.000000,0.000000
3784962291,0.00270081,0.00691223,-1.00625610,0.366211,0.000000,0.000000
3792393958,0.00270081,0.00691223,-1.00625610,0.305176,0.000000,-0.122070
3795014958,0.00201416,0.00657654,-1.00547791,0.305176,0.000000,-0.122070
3802680166,0.00201416,0.00657654,-1.00547791,0.305176,0.061035,-0.061035
3805252041,0.00184631,0.00714111,-1.00520325,0.305176,0.061035,-0.061035
3812867708,0.00184631,0.00714111,-1.00520325,0.549316,0.000000,0.000000
3815425875,0.00204468,0.00691223,-1.00627136,0.549316,0.000000,0.000000
3823042291,0.00204468,0.00691223,-1.00627136,0.244141,0.122070,-0.061035
3825596166,0.00064087,0.00765991,-1.00570679,0.244141,0.122070,-0.061035
3833201375,0.00064087,0.00765991,-1.00570679,0.366211,0.000000,-0.122070
3835753250,0.00117493,0.00735474,-1.00665283,0.366211,0.000000,-0.122070
3843362166,0.00117493,0.00735474,-1.00665283,0.305176,-0.061035,-0.061035
3845920916,0.00161743,0.00747681,-1.00572205,0.305176,-0.061035,-0.061035
3853513250,0.00161743,0.00747681,-1.00572205,0.427246,0.061035,-0.122070
3856060750,0.00065613,0.00686646,-1.00628662,0.427246,0.061035,-0.122070
3863648541,0.00100708,0.00650024,-1.00549316,0.305176,0.000000,-0.122070
3873782375,0.00035095,0.00755310,-1.00717163,0.305176,0.061035,0.000000
3883910958,0.00103760,0.00753784,-1.00601196,0.366211,0.061035,0.000000
3891540708,0.00103760,0.00753784,-1.00601196,0.183105,0.122070,-0.122070
3894093208,0.00224304,0.00617981,-1.00599670,0.183105,0.122070,-0.122070
3901708625,0.00224304,0.00617981,-1.00599670,0.366211,0.122070,0.061035
3904256083,0.00154114,0.00601196,-1.00569153,0.366211,0.122070,0.061035
3911689291,0.00154114,0.00601196,-1.00569153,0.305176,-0.061035,0.000000
3914233958,0.00158691,0.00662231,-1.00604248,0.305176,-0.061035,0.000000
3921821166,0.00158691,0.00662231,-1.00604248,0.366211,-0.061035,-0.122070
3924365750,0.00180054,0.00669861,-1.00604248,0.366211,-0.061035,-0.122070
3931973000,0.00180054,0.00669861,-1.00604248,0.183105,0.000000,-0.183105
3934108708,0.00193787,0.00686646,-1.00646973,0.183105,0.000000,-0.183105
3941718666,0.00193787,0.00686646,-1.00646973,0.244141,-0.061035,-0.183105
3944260208,0.00218201,0.00703430,-1.00643921,0.244141,-0.061035,-0.183105
3951863333,0.00218201,0.00703430,-1.00643921,0.305176,-0.122070,-0.061035
3954411916,0.00170898,0.00831604,-1.00599670,0.305176,-0.122070,-0.061035
3961680000,0.00170898,0.00831604,-1.00599670,0.244141,0.061035,-0.122070
3964221583,0.00131226,0.00740051,-1.00524902,0.244141,0.061035,-0.122070
3971831208,0.00131226,0.00740051,-1.00524902,0.366211,0.000000,-0.061035
3974391333,0.00000000,0.00729370,-1.00672913,0.366211,0.000000,-0.061035
3981994125,0.00000000,0.00729370,-1.00672913,0.305176,0.122070,-0.061035
3984537208,0.00071716,0.00775146,-1.00582886,0.305176,0.122070,-0.061035
3991740041,0.00071716,0.00775146,-1.00582886,0.427246,0.000000,0.000000
3994282458,0.00216675,0.00730896,-1.00627136,0.427246,0.000000,0.000000
4001941458,0.00216675,0.00730896,-1.00627136,0.366211,0.061035,-0.122070
4004534916,0.00166321,0.00653076,-1.00636292,0.366211,0.061035,-0.122070
4012053291,0.00166321,0.00653076,-1.00636292,0.122070,0.000000,0.000000
4014646958,0.00120544,0.00657654,-1.00622559,0.122070,0.000000,0.000000
4022287500,0.00120544,0.00657654,-1.00622559,0.244141,0.061035,-0.061035
4024872250,0.00061035,0.00630188,-1.00569153,0.244141,0.061035,-0.061035
4032489250,0.00061035,0.00630188,-1.00569153,0.305176,0.122070,-0.122070
4034671375,0.00103760,0.00675964,-1.00659180,0.305176,0.122070,-0.122070
4042277666,0.00103760,0.00675964,-1.00659180,0.366211,-0.061035,0.000000
4044833041,0.00138855,0.00703430,-1.00622559,0.366211,-0.061035,0.000000
4052453666,0.00138855,0.00703430,-1.00622559,0.183105,-0.061035,0.000000
4055005541,0.00224304,0.00663757,-1.00534058,0.183105,-0.061035,0.000000
4062609708,0.00224304,0.00663757,-1.00534058,0.366211,-0.061035,-0.061035
4065167750,0.00205994,0.00671387,-1.00570679,0.366211,-0.061035,-0.061035
4072799458,0.00205994,0.00671387,-1.00570679,0.427246,0.061035,-0.122070
4075370375,0.00129700,0.00686646,-1.00706482,0.427246,0.061035,-0.122070
4082982375,0.00129700,0.00686646,-1.00706482,0.244141,0.000000,0.061035
4085550291,0.00155640,0.00657654,-1.00617981,0.244141,0.000000,0.061035
4093162458,0.00155640,0.00657654,-1.00617981,0.366211,0.000000,0.000000
4095710000,0.00199890,0.00706482,-1.00505066,0.366211,0.000000,0.000000
4103362916,0.00199890,0.00706482,-1.00505066,0.244141,0.122070,-0.122070
4105928708,0.00248718,0.00758362,-1.00622559,0.244141,0.122070,-0.122070
4113623458,0.00202942,0.00740051,-1.00617981,0.366211,0.061035,-0.061035
4123796166,0.00251770,0.00747681,-1.00537109,0.366211,-0.061035,0.000000
4133973958,0.00048828,0.00740051,-1.00503540,0.427246,0.000000,-0.183105
4141606208,0.00048828,0.00740051,-1.00503540,0.427246,0.061035,-0.061035
4144170000,0.00122070,0.00704956,-1.00549316,0.427246,0.061035,-0.061035
4151522000,0.00122070,0.00704956,-1.00549316,0.305176,-0.061035,-0.061035
4154082750,0.00099182,0.00784302,-1.00624084,0.305176,-0.061035,-0.061035
4161706875,0.00099182,0.00784302,-1.00624084,0.305176,0.061035,-0.122070
4164251083,0.00093079,0.00697327,-1.00566101,0.305176,0.061035,-0.122070
4173901458,0.00155640,0.00765991,-1.00573730,0.366211,0.183105,-0.061035
4181555041,0.00155640,0.00765991,-1.00573730,0.305176,0.122070,-0.061035
4184119083,0.00079346,0.00730896,-1.00621033,0.305176,0.122070,-0.061035
4191728666,0.00079346,0.00730896,-1.00621033,0.244141,0.061035,0.061035
4194278625,0.00175476,0.00743103,-1.00611877,0.244141,0.061035,0.061035
4201774208,0.00175476,0.00743103,-1.00611877,0.183105,0.122070,-0.061035
4204336541,0.00137329,0.00683594,-1.00617981,0.183105,0.122070,-0.061035
4211917291,0.00137329,0.00683594,-1.00617981,0.244141,0.000000,-0.061035
4214456166,0.00056458,0.00656128,-1.00584412,0.244141,0.000000,-0.061035
4222055708,0.00056458,0.00656128,-1.00584412,0.183105,0.061035,0.000000
4224175083,0.00085449,0.00663757,-1.00668335,0.183105,0.061035,0.000000
4231766791,0.00085449,0.00663757,-1.00668335,0.366211,-0.061035,-0.183105
4233954458,0.00105286,0.00654602,-1.00601196,0.366211,-0.061035,-0.183105
4241543166,0.00105286,0.00654602,-1.00601196,0.244141,0.122070,-0.061035
4244112875,0.00109863,0.00685120,-1.00724792,0.244141,0.122070,-0.061035
4251708625,0.00109863,0.00685120,-1.00724792,0.366211,0.000000,-0.122070
4254250625,0.00071716,0.00662231,-1.00587463,0.366211,0.000000,-0.122070
4261838000,0.00071716,0.00662231,-1.00587463,0.366211,0.061035,0.000000
4264405750,0.00199890,0.00727844,-1.00517273,0.366211,0.061035,0.000000
4272017250,0.00199890,0.00727844,-1.00517273,0.305176,0.061035,-0.061035
4274586625,0.00178528,0.00750732,-1.00596619,0.305176,0.061035,-0.061035
4282196708,0.00178528,0.00750732,-1.00596619,0.366211,-0.061035,-0.183105
4284758208,0.00077820,0.00715637,-1.00607300,0.366211,-0.061035,-0.183105
4292370625,0.00077820,0.00715637,-1.00607300,0.305176,0.000000,-0.183105
4294915375,0.00151062,0.00756836,-1.00576782,0.305176,0.000000,-0.183105
4302563833,0.00151062,0.00756836,-1.00576782,0.183105,-0.061035,0.000000
4305135916,0.00177002,0.00695801,-1.00669861,0.183105,-0.061035,0.000000
4312744041,0.00177002,0.00695801,-1.00669861,0.366211,0.122070,-0.122070
4315291083,0.00062561,0.00668335,-1.00621033,0.366211,0.122070,-0.122070
4322488875,0.00062561,0.00668335,-1.00621033,0.244141,0.061035,-0.122070
4325040791,0.00112915,0.00631714,-1.00646973,0.244141,0.061035,-0.122070
4332502416,0.00112915,0.00631714,-1.00646973,0.183105,-0.061035,-0.244141
4335065541,0.00205994,0.00679016,-1.00598145,0.183105,-0.061035,-0.244141
4342672166,0.00205994,0.00679016,-1.00598145,0.183105,-0.061035,0.000000
4345220666,0.00234985,0.00602722,-1.00614929,0.183105,-0.061035,0.000000
4352819333,0.00234985,0.00602722,-1.00614929,0.305176,0.061035,-0.122070
4355367208,0.00169373,0.00695801,-1.00590515,0.305176,0.061035,-0.122070
4362977750,0.00169373,0.00695801,-1.00590515,0.305176,0.061035,-0.061035
4365523416,0.00169373,0.00607300,-1.00596619,0.305176,0.061035,-0.061035
4373160541,0.00169373,0.00607300,-1.00596619,0.488281,0.244141,-0.122070
4375736666,0.00112915,0.00694275,-1.00515747,0.488281,0.244141,-0.122070
4383279000,0.00112915,0.00694275,-1.00515747,0.244141,0.061035,-0.061035
4385826208,0.00057983,0.00724792,-1.00665283,0.244141,0.061035,-0.061035
4393434458,0.00057983,0.00724792,-1.00665283,0.244141,0.000000,-0.061035
4396000708,-0.00022888,0.00700378,-1.00645447,0.244141,0.000000,-0.061035
4403667666,-0.00001526,0.00746155,-1.00631714,0.366211,0.061035,-0.061035
4413822041,0.00035095,0.00708008,-1.00581360,0.183105,0.000000,-0.061035
4421454541,0.00035095,0.00708008,-1.00581360,0.427246,0.061035,0.061035
4424015708,0.00177002,0.00561523,-1.00634766,0.427246,0.061035,0.061035
4431631125,0.00177002,0.00561523,-1.00634766,0.183105,0.000000,-0.061035
4434173291,0.00187683,0.00697327,-1.00547791,0.183105,0.000000,-0.061035
4441777000,0.00187683,0.00697327,-1.00547791,0.244141,-0.061035,-0.061035
4444323833,0.00149536,0.00700378,-1.00604248,0.244141,-0.061035,-0.061035
4451924041,0.00149536,0.00700378,-1.00604248,0.244141,0.061035,-0.061035
4454476958,0.00120544,0.00659180,-1.00602722,0.244141,0.061035,-0.061035
4462044166,0.00120544,0.00659180,-1.00602722,0.305176,-0.061035,-0.061035
4464575541,0.00219727,0.00617981,-1.00622559,0.305176,-0.061035,-0.061035
4472221708,0.00219727,0.00617981,-1.00622559,0.305176,0.000000,-0.061035
4474798500,0.00231934,0.00680542,-1.00498962,0.305176,0.000000,-0.061035
4482484625,0.00231934,0.00680542,-1.00498962,0.366211,0.122070,-0.061035
4485070750,0.00219727,0.00601196,-1.00593567,0.366211,0.122070,-0.061035
4492663375,0.00219727,0.00601196,-1.00593567,0.305176,0.122070,0.122070
4495220875,0.00215149,0.00726318,-1.00625610,0.305176,0.122070,0.122070
4502630791,0.00215149,0.00726318,-1.00625610,0.427246,0.122070,-0.061035
4505211833,0.00186157,0.00726318,-1.00590515,0.427246,0.122070,-0.061035
4512816291,0.00186157,0.00726318,-1.00590515,0.183105,0.061035,0.000000
4515371625,0.00086975,0.00714111,-1.00524902,0.183105,0.061035,0.000000
4522982208,0.00086975,0.00714111,-1.00524902,0.244141,-0.183105,-0.122070
4525531458,0.00085449,0.00700378,-1.00637817,0.244141,-0.183105,-0.122070
4533120916,0.00085449,0.00700378,-1.00637817,0.305176,0.183105,0.000000
4535669541,0.00140381,0.00659180,-1.00587463,0.305176,0.183105,0.000000
4543276875,0.00140381,0.00659180,-1.00587463,0.244141,0.000000,-0.122070
4545821625,0.00172424,0.00733948,-1.00608826,0.244141,0.000000,-0.122070
4553314333,0.00172424,0.00733948,-1.00608826,0.244141,-0.061035,-0.061035
4555851916,0.00180054,0.00755310,-1.00619507,0.244141,-0.061035,-0.061035
4563440750,0.00180054,0.00755310,-1.00619507,0.427246,-0.061035,-0.061035
4565987208,0.00190735,0.00738525,-1.00631714,0.427246,-0.061035,-0.061035
4573591833,0.00190735,0.00738525,-1.00631714,0.244141,-0.061035,-0.183105
4576168583,0.00126648,0.00686646,-1.00584412,0.244141,-0.061035,-0.183105
4583799875,0.00151062,0.00657654,-1.00630188,0.244141,0.122070,0.061035
4591447583,0.00151062,0.00657654,-1.00630188,0.244141,-0.061035,-0.244141
4594021458,0.00106812,0.00640869,-1.00651550,0.244141,-0.061035,-0.244141
4603742375,0.00198364,0.00706482,-1.00692749,0.305176,0.000000,0.000000
4613889666,0.00184631,0.00680542,-1.00660706,0.183105,0.061035,-0.244141
4621547333,0.00184631,0.00680542,-1.00660706,0.366211,0.061035,-0.061035
4624116958,0.00172424,0.00631714,-1.00498962,0.366211,0.061035,-0.061035
4631551500,0.00172424,0.00631714,-1.00498962,0.183105,0.000000,-0.122070
4634102916,0.00163269,0.00689697,-1.00633240,0.183105,0.000000,-0.122070
4641697208,0.00163269,0.00689697,-1.00633240,0.488281,0.000000,0.000000
4644239291,0.00143433,0.00683594,-1.00575256,0.488281,0.000000,0.000000
4651831166,0.00143433,0.00683594,-1.00575256,0.305176,0.061035,-0.122070
4654376583,0.00115967,0.00756836,-1.00518799,0.305176,0.061035,-0.122070
4661982708,0.00115967,0.00756836,-1.00518799,0.305176,0.000000,0.000000
4664534208,0.00140381,0.00715637,-1.00559998,0.305176,0.000000,0.000000
4672105041,0.00140381,0.00715637,-1.00559998,0.305176,0.061035,-0.061035
4674691041,0.00103760,0.00646973,-1.00628662,0.305176,0.061035,-0.061035
4682277083,0.00103760,0.00646973,-1.00628662,0.244141,0.061035,-0.122070
4684828500,0.00082397,0.00654602,-1.00587463,0.244141,0.061035,-0.122070
4692443791,0.00082397,0.00654602,-1.00587463,0.244141,0.061035,0.000000
4695011666,0.00050354,0.00630188,-1.00587463,0.244141,0.061035,0.000000
4702384750,0.00050354,0.00630188,-1.00587463,0.183105,-0.122070,0.000000
4704968000,0.00157166,0.00740051,-1.00634766,0.183105,-0.122070,0.000000
4712495958,0.00157166,0.00740051,-1.00634766,0.183105,0.122070,-0.061035
4715044041,0.00201416,0.00679016,-1.00640869,0.183105,0.122070,-0.061035
4722645916,0.00201416,0.00679016,-1.00640869,0.366211,0.061035,0.061035
4725181791,0.00228882,0.00708008,-1.00581360,0.366211,0.061035,0.061035
4732780208,0.00228882,0.00708008,-1.00581360,0.244141,0.061035,-0.122070
4735336916,0.00215149,0.00703430,-1.00607300,0.244141,0.061035,-0.122070
4742153791,0.00215149,0.00703430,-1.00607300,0.244141,0.000000,0.000000
4744684250,0.00239563,0.00761414,-1.00503540,0.244141,0.000000,0.000000
4752277291,0.00239563,0.00761414,-1.00503540,0.122070,0.122070,0.000000
4754829000,0.00161743,0.00688171,-1.00677490,0.122070,0.122070,0.000000
4762412500,0.00161743,0.00688171,-1.00677490,0.427246,0.061035,-0.061035
4764961833,0.00181580,0.00669861,-1.00538635,0.427246,0.061035,-0.061035
4772577416,0.00181580,0.00669861,-1.00538635,0.427246,0.122070,0.000000
4775139291,0.00202942,0.00704956,-1.00631714,0.427246,0.122070,0.000000
4782735666,0.00202942,0.00704956,-1.00631714,0.366211,0.000000,-0.122070
4785292000,0.00187683,0.00660706,-1.00636292,0.366211,0.000000,-0.122070
4792895375,0.00187683,0.00660706,-1.00636292,0.305176,0.000000,0.061035
4795446708,0.00134277,0.00773621,-1.00672913,0.305176,0.000000,0.061035
4803072541,0.00134277,0.00773621,-1.00672913,0.244141,0.000000,-0.183105
4805626375,0.00062561,0.00743103,-1.00575256,0.244141,0.000000,-0.183105
4813237833,0.00062561,0.00743103,-1.00575256,0.366211,0.183105,-0.061035
4815799708,0.00132751,0.00706482,-1.00639343,0.366211,0.183105,-0.061035
4823263708,0.00132751,0.00706482,-1.00639343,0.305176,0.122070,0.000000
4825815583,0.00083923,0.00790405,-1.00540161,0.305176,0.122070,0.000000
4833423958,0.00083923,0.00790405,-1.00540161,0.366211,0.122070,0.000000
4835973291,0.00135803,0.00682068,-1.00563049,0.366211,0.122070,0.000000
4843155208,0.00135803,0.00682068,-1.00563049,0.305176,-0.061035,0.000000
4845698416,0.00225830,0.00743103,-1.00598145,0.305176,-0.061035,0.000000
4853303666,0.00225830,0.00743103,-1.00598145,0.244141,0.061035,0.000000
4855855333,0.00173950,0.00764465,-1.00660706,0.244141,0.061035,0.000000
4863474958,0.00173950,0.00764465,-1.00660706,0.244141,0.244141,-0.061035
4866017375,0.00199890,0.00776672,-1.00654602,0.244141,0.244141,-0.061035
4873216583,0.00199890,0.00776672,-1.00654602,0.366211,0.122070,-0.061035
4875767208,0.00209045,0.00584412,-1.00617981,0.366211,0.122070,-0.061035
4883358916,0.00209045,0.00584412,-1.00617981,0.549316,-0.061035,-0.061035
4885899875,0.00282288,0.00625610,-1.00602722,0.549316,-0.061035,-0.061035
4893489708,0.00282288,0.00625610,-1.00602722,0.244141,0.122070,0.000000
4896029291,0.00250244,0.00592041,-1.00605774,0.244141,0.122070,0.000000
4903623500,0.00250244,0.00592041,-1.00605774,0.488281,0.122070,-0.061035
4906194333,0.00222778,0.00564575,-1.00566101,0.488281,0.122070,-0.061035
4913839166,0.00212097,0.00666809,-1.00527954,0.305176,0.000000,-0.183105
4921496875,0.00212097,0.00666809,-1.00527954,0.305176,0.061035,-0.122070
4924048208,0.00169373,0.00685120,-1.00546265,0.305176,0.061035,-0.122070
4931641250,0.00169373,0.00685120,-1.00546265,0.305176,0.000000,0.061035
4934196875,0.00115967,0.00624084,-1.00643921,0.305176,0.000000,0.061035
4941681375,0.00115967,0.00624084,-1.00643921,0.244141,0.000000,0.000000
4944233458,0.00155640,0.00770569,-1.00561523,0.244141,0.000000,0.000000
4951823791,0.00155640,0.00770569,-1.00561523,0.305176,0.061035,-0.061035
4954371541,0.00073242,0.00741577,-1.00680542,0.305176,0.061035,-0.061035
4961953625,0.00073242,0.00741577,-1.00680542,0.366211,-0.122070,-0.061035
4964440250,0.00070190,0.00750732,-1.00627136,0.366211,-0.122070,-0.061035
4972064541,0.00070190,0.00750732,-1.00627136,0.366211,0.183105,-0.122070
4974424291,0.00144958,0.00708008,-1.00596619,0.366211,0.183105,-0.122070
4981723458,0.00144958,0.00708008,-1.00596619,0.183105,0.000000,-0.061035
4984272583,0.00109863,0.00703430,-1.00596619,0.183105,0.000000,-0.061035
4991875833,0.00109863,0.00703430,-1.00596619,0.427246,0.061035,-0.061035
4994440291,0.00166321,0.00718689,-1.00669861,0.427246,0.061035,-0.061035
5002060875,0.00166321,0.00718689,-1.00669861,0.305176,0.000000,-0.122070
5004643083,0.00160217,0.00778198,-1.00590515,0.305176,0.000000,-0.122070
5012269166,0.00160217,0.00778198,-1.00590515,0.305176,0.061035,-0.122070
5014827833,0.00126648,0.00668335,-1.00602722,0.305176,0.061035,-0.122070
5022220791,0.00126648,0.00668335,-1.00602722,0.366211,0.000000,0.000000
5024777125,0.00222778,0.00624084,-1.00598145,0.366211,0.000000,0.000000
5032405750,0.00222778,0.00624084,-1.00598145,0.305176,0.061035,-0.061035
5034988041,0.00218201,0.00650024,-1.00672913,0.305176,0.061035,-0.061035
5042489750,0.00218201,0.00650024,-1.00672913,0.183105,-0.061035,0.000000
5045034875,0.00164795,0.00682068,-1.00648499,0.183105,-0.061035,0.000000
5052623791,0.00164795,0.00682068,-1.00648499,0.305176,0.000000,-0.183105
5055181666,0.00170898,0.00659180,-1.00643921,0.305176,0.000000,-0.183105
5062767166,0.00170898,0.00659180,-1.00643921,0.244141,-0.122070,-0.122070
5065310208,0.00247192,0.00657654,-1.00581360,0.244141,-0.122070,-0.122070
5072954166,0.00247192,0.00657654,-1.00581360,0.305176,0.061035,-0.122070
5075528625,0.00138855,0.00596619,-1.00547791,0.305176,0.061035,-0.122070
5083144208,0.00138855,0.00596619,-1.00547791,0.549316,0.061035,-0.122070
5085692208,0.00161743,0.00613403,-1.00660706,0.549316,0.061035,-0.122070
5092990666,0.00161743,0.00613403,-1.00660706,0.244141,0.061035,-0.122070
5095536666,0.00140381,0.00659180,-1.00660706,0.244141,0.061035,-0.122070
5103132208,0.00140381,0.00659180,-1.00660706,0.305176,0.000000,0.061035
5105706791,0.00143433,0.00749207,-1.00628662,0.305176,0.000000,0.061035
5113300250,0.00143433,0.00749207,-1.00628662,0.305176,0.000000,-0.122070
5115845458,0.00195312,0.00663757,-1.00741577,0.305176,0.000000,-0.122070
5123452583,0.00195312,0.00663757,-1.00741577,0.305176,-0.061035,0.000000
5126030791,0.00155640,0.00743103,-1.00662231,0.305176,-0.061035,0.000000
5133651333,0.00155640,0.00743103,-1.00662231,0.427246,-0.061035,-0.061035
5136210625,0.00151062,0.00708008,-1.00640869,0.427246,-0.061035,-0.061035
5143852791,0.00122070,0.00755310,-1.00639343,0.183105,-0.061035,-0.061035
5151505166,0.00122070,0.00755310,-1.00639343,0.366211,0.122070,-0.122070
5154055958,0.00254822,0.00738525,-1.00566101,0.366211,0.122070,-0.122070
5161682250,0.00254822,0.00738525,-1.00566101,0.305176,-0.061035,-0.183105
5164239708,0.00199890,0.00741577,-1.00558472,0.305176,-0.061035,-0.183105
5171859916,0.00199890,0.00741577,-1.00558472,0.366211,0.061035,-0.061035
5174418500,0.00097656,0.00608826,-1.00585938,0.366211,0.061035,-0.061035
5182030750,0.00097656,0.00608826,-1.00585938,0.244141,0.000000,-0.061035
5184108916,0.00178528,0.00704956,-1.00625610,0.244141,0.000000,-0.061035
5191718083,0.00178528,0.00704956,-1.00625610,0.244141,0.061035,0.000000
5194293541,0.00245667,0.00704956,-1.00624084,0.244141,0.061035,0.000000
5201927375,0.00245667,0.00704956,-1.00624084,0.244141,0.061035,-0.183105
5204510166,0.00177002,0.00727844,-1.00514221,0.244141,0.061035,-0.183105
5211645875,0.00177002,0.00727844,-1.00514221,0.305176,0.000000,-0.061035
5214187958,0.00157166,0.00665283,-1.00656128,0.305176,0.000000,-0.061035
5223913083,0.00183105,0.00656128,-1.00590515,0.305176,-0.061035,-0.122070
5231548958,0.00183105,0.00656128,-1.00590515,0.305176,0.061035,-0.183105
5234091250,0.00115967,0.00743103,-1.00572205,0.305176,0.061035,-0.183105
5241680583,0.00115967,0.00743103,-1.00572205,0.244141,-0.061035,0.000000
5244227250,0.00160217,0.00721741,-1.00492859,0.244141,-0.061035,0.000000
5251830500,0.00160217,0.00721741,-1.00492859,0.244141,0.061035,-0.061035
5254259583,0.00195312,0.00732422,-1.00601196,0.244141,0.061035,-0.061035
5261812458,0.00195312,0.00732422,-1.00601196,0.366211,0.000000,-0.183105
5264406583,0.00151062,0.00730896,-1.00621033,0.366211,0.000000,-0.183105
5271733875,0.00151062,0.00730896,-1.00621033,0.488281,0.122070,-0.061035
5274298958,0.00201416,0.00711060,-1.00550842,0.488281,0.122070,-0.061035
5281848458,0.00201416,0.00711060,-1.00550842,0.366211,0.061035,-0.122070
5284380416,0.00119019,0.00657654,-1.00640869,0.366211,0.061035,-0.122070
5291936416,0.00119019,0.00657654,-1.00640869,0.366211,-0.061035,0.000000
5294459416,0.00248718,0.00675964,-1.00610352,0.366211,-0.061035,0.000000
5302002208,0.00248718,0.00675964,-1.00610352,0.183105,0.061035,-0.061035
5304538500,0.00047302,0.00706482,-1.00584412,0.183105,0.061035,-0.061035
5312118875,0.00047302,0.00706482,-1.00584412,0.427246,0.061035,-0.122070
5314638791,0.00061035,0.00631714,-1.00550842,0.427246,0.061035,-0.122070
5322176375,0.00061035,0.00631714,-1.00550842,0.366211,0.000000,-0.244141
5324720208,0.00151062,0.00695801,-1.00689697,0.366211,0.000000,-0.244141
5332259458,0.00151062,0.00695801,-1.00689697,0.305176,0.122070,0.000000
5334789083,0.00195312,0.00765991,-1.00498962,0.305176,0.122070,0.000000
5342383250,0.00195312,0.00765991,-1.00498962,0.366211,0.061035,-0.061035
5344923708,0.00155640,0.00738525,-1.00627136,0.366211,0.061035,-0.061035
5352518625,0.00155640,0.00738525,-1.00627136,0.366211,0.244141,0.000000
5355048083,0.00109863,0.00645447,-1.00538635,0.366211,0.244141,0.000000
5362622458,0.00109863,0.00645447,-1.00538635,0.244141,0.061035,-0.061035
5365134291,0.00125122,0.00639343,-1.00706482,0.244141,0.061035,-0.061035
5372676750,0.00125122,0.00639343,-1.00706482,0.122070,-0.061035,-0.122070
5375235500,0.00161743,0.00688171,-1.00662231,0.122070,-0.061035,-0.122070
5382804541,0.00161743,0.00688171,-1.00662231,0.183105,0.061035,0.000000
5385323666,0.00088501,0.00689697,-1.00613403,0.183105,0.061035,0.000000
5392467083,0.00088501,0.00689697,-1.00613403,0.366211,0.000000,-0.122070
5395020000,0.00129700,0.00740051,-1.00575256,0.366211,0.000000,-0.122070
5402563291,0.00129700,0.00740051,-1.00575256,0.122070,0.000000,-0.061035
5405079208,0.00137329,0.00782776,-1.00648499,0.122070,0.000000,-0.061035
5412625583,0.00137329,0.00782776,-1.00648499,0.122070,0.122070,-0.122070
5415142666,0.00097656,0.00758362,-1.00575256,0.122070,0.122070,-0.122070
5422692625,0.00097656,0.00758362,-1.00575256,0.305176,0.061035,-0.122070
5425238125,0.00108337,0.00706482,-1.00570679,0.305176,0.061035,-0.122070
5432810000,0.00108337,0.00706482,-1.00570679,0.427246,0.122070,-0.122070
5435344583,0.00141907,0.00712585,-1.00541687,0.427246,0.122070,-0.122070
5442938333,0.00141907,0.00712585,-1.00541687,0.366211,0.122070,-0.122070
5445500791,0.00160217,0.00692749,-1.00614929,0.366211,0.122070,-0.122070
5452817666,0.00160217,0.00692749,-1.00614929,0.305176,0.061035,-0.061035
5455370875,0.00154114,0.00724792,-1.00643921,0.305176,0.061035,-0.061035
5462994208,0.00154114,0.00724792,-1.00643921,0.244141,0.183105,-0.061035
5465546125,0.00137329,0.00621033,-1.00561523,0.244141,0.183105,-0.061035
5473105666,0.00137329,0.00621033,-1.00561523,0.366211,-0.061035,0.061035
5475656333,0.00100708,0.00715637,-1.00512695,0.366211,-0.061035,0.061035
5482824291,0.00100708,0.00715637,-1.00512695,0.305176,-0.061035,0.061035
5485377583,0.00144958,0.00704956,-1.00529480,0.305176,-0.061035,0.061035
5492928875,0.00144958,0.00704956,-1.00529480,0.183105,0.000000,-0.183105
5495499000,0.00119019,0.00695801,-1.00614929,0.183105,0.000000,-0.183105
5503119791,0.00119019,0.00695801,-1.00614929,0.305176,0.000000,-0.061035
5505666541,0.00123596,0.00659180,-1.00605774,0.305176,0.000000,-0.061035
5513257458,0.00123596,0.00659180,-1.00605774,0.366211,-0.122070,-0.122070
5515676916,0.00091553,0.00666809,-1.00640869,0.366211,-0.122070,-0.122070
5523287250,0.00091553,0.00666809,-1.00640869,0.244141,0.000000,-0.244141
5525828125,0.00108337,0.00769043,-1.00621033,0.244141,0.000000,-0.244141
5533428833,0.00108337,0.00769043,-1.00621033,0.305176,0.000000,-0.061035
5535969500,0.00183105,0.00764465,-1.00585938,0.305176,0.000000,-0.061035
5543567333,0.00183105,0.00764465,-1.00585938,0.183105,0.000000,-0.122070
5546107750,0.00122070,0.00746155,-1.00628662,0.183105,0.000000,-0.122070
5552940541,0.00122070,0.00746155,-1.00628662,0.244141,0.000000,-0.061035
5555488291,0.00122070,0.00778198,-1.00659180,0.244141,0.000000,-0.061035
5563083666,0.00122070,0.00778198,-1.00659180,0.244141,0.061035,-0.122070
5565643500,0.00164795,0.00692749,-1.00518799,0.244141,0.061035,-0.122070
5573244541,0.00164795,0.00692749,-1.00518799,0.488281,0.061035,-0.122070
5575802250,0.00128174,0.00769043,-1.00541687,0.488281,0.061035,-0.122070
5582966625,0.00128174,0.00769043,-1.00541687,0.305176,0.122070,-0.061035
5585514416,0.00149536,0.00781250,-1.00607300,0.305176,0.122070,-0.061035
5593110708,0.00149536,0.00781250,-1.00607300,0.122070,0.122070,0.000000
5595654625,0.00181580,0.00765991,-1.00653076,0.122070,0.122070,0.000000
5603301833,0.00181580,0.00765991,-1.00653076,0.366211,0.183105,-0.122070
5605875333,0.00253296,0.00617981,-1.00608826,0.366211,0.183105,-0.122070
5613221750,0.00253296,0.00617981,-1.00608826,0.244141,-0.061035,-0.122070
5615818541,0.00151062,0.00717163,-1.00588989,0.244141,-0.061035,-0.122070
5623096375,0.00151062,0.00717163,-1.00588989,0.427246,0.000000,-0.061035
5625696041,0.00132751,0.00711060,-1.00546265,0.427246,0.000000,-0.061035
5633113583,0.00132751,0.00711060,-1.00546265,0.366211,0.122070,-0.061035
5635698333,0.00054932,0.00701904,-1.00592041,0.366211,0.122070,-0.061035
5643158041,0.00054932,0.00701904,-1.00592041,0.427246,0.122070,-0.061035
5645721541,0.00125122,0.00683594,-1.00448608,0.427246,0.122070,-0.061035
5653320125,0.00125122,0.00683594,-1.00448608,0.305176,0.061035,-0.122070
5655861958,0.00175476,0.00718689,-1.00483704,0.305176,0.061035,-0.122070
5663492833,0.00175476,0.00718689,-1.00483704,0.488281,0.061035,-0.061035
5666048000,0.00076294,0.00689697,-1.00505066,0.488281,0.061035,-0.061035
5673655708,0.00076294,0.00689697,-1.00505066,0.305176,0.122070,-0.061035
5676219708,0.00051880,0.00706482,-1.00621033,0.305176,0.122070,-0.061035
5683874000,0.00051880,0.00706482,-1.00621033,0.305176,0.061035,-0.122070
5686460833,0.00184631,0.00691223,-1.00622559,0.305176,0.061035,-0.122070
5693936916,0.00100708,0.00724792,-1.00717163,0.427246,0.061035,-0.122070
5701560833,0.00100708,0.00724792,-1.00717163,0.244141,0.122070,-0.183105
5704119375,0.00193787,0.00744629,-1.00532532,0.244141,0.122070,-0.183105
5711745541,0.00193787,0.00744629,-1.00532532,0.183105,0.061035,-0.122070
5714299458,0.00186157,0.00698853,-1.00636292,0.183105,0.061035,-0.122070
5721926875,0.00186157,0.00698853,-1.00636292,0.305176,0.061035,0.000000
5724525291,0.00099182,0.00706482,-1.00602722,0.305176,0.061035,0.000000
5732076833,0.00099182,0.00706482,-1.00602722,0.183105,0.000000,-0.183105
5734635750,0.00140381,0.00645447,-1.00646973,0.183105,0.000000,-0.183105
5742262666,0.00140381,0.00645447,-1.00646973,0.244141,-0.061035,-0.183105
5744809375,0.00207520,0.00669861,-1.00570679,0.244141,-0.061035,-0.183105
5752083250,0.00207520,0.00669861,-1.00570679,0.305176,-0.061035,-0.122070
5754675583,0.00117493,0.00614929,-1.00505066,0.305176,-0.061035,-0.122070
5761867625,0.00117493,0.00614929,-1.00505066,0.488281,0.061035,-0.122070
5764455166,0.00202942,0.00703430,-1.00523376,0.488281,0.061035,-0.122070
5772113916,0.00202942,0.00703430,-1.00523376,0.427246,0.000000,-0.061035
5774739291,0.00181580,0.00686646,-1.00596619,0.427246,0.000000,-0.061035
5782439166,0.00181580,0.00686646,-1.00596619,0.244141,0.061035,-0.122070
5785025083,0.00244141,0.00717163,-1.00582886,0.244141,0.061035,-0.122070
5792661375,0.00244141,0.00717163,-1.00582886,0.183105,0.122070,-0.122070
5795221291,0.00209045,0.00636292,-1.00631714,0.183105,0.122070,-0.122070
5802654416,0.00209045,0.00636292,-1.00631714,0.305176,0.061035,-0.183105
5805285291,0.00148010,0.00679016,-1.00639343,0.305176,0.061035,-0.183105
5812897333,0.00148010,0.00679016,-1.00639343,0.183105,0.061035,-0.061035
5815455083,0.00048828,0.00689697,-1.00616455,0.183105,0.061035,-0.061035
5823120791,0.00048828,0.00689697,-1.00616455,0.366211,0.061035,-0.061035
5825709875,0.00039673,0.00691223,-1.00483704,0.366211,0.061035,-0.061035
5833056000,0.00039673,0.00691223,-1.00483704,0.366211,0.061035,-0.061035
5835621916,0.00016785,0.00701904,-1.00592041,0.366211,0.061035,-0.061035
5843230541,0.00016785,0.00701904,-1.00592041,0.244141,0.000000,-0.061035
5845788125,0.00128174,0.00735474,-1.00646973,0.244141,0.000000,-0.061035
5853107041,0.00128174,0.00735474,-1.00646973,0.366211,0.061035,0.000000
5855660041,0.00109863,0.00778198,-1.00646973,0.366211,0.061035,0.000000
5863273833,0.00109863,0.00778198,-1.00646973,0.244141,0.061035,-0.061035
5865822750,0.00178528,0.00698853,-1.00575256,0.244141,0.061035,-0.061035
5873236458,0.00178528,0.00698853,-1.00575256,0.183105,0.122070,-0.061035
5875805333,0.00154114,0.00675964,-1.00668335,0.183105,0.122070,-0.061035
5883401625,0.00154114,0.00675964,-1.00668335,0.366211,0.061035,-0.061035
5885947458,0.00070190,0.00727844,-1.00531006,0.366211,0.061035,-0.061035
5893542333,0.00070190,0.00727844,-1.00531006,0.244141,0.122070,-0.122070
5896095958,0.00123596,0.00654602,-1.00544739,0.244141,0.122070,-0.122070
5903712125,0.00123596,0.00654602,-1.00544739,0.183105,0.061035,-0.061035
5906301916,0.00126648,0.00648499,-1.00706482,0.183105,0.061035,-0.061035
5913640958,0.00126648,0.00648499,-1.00706482,0.305176,0.000000,-0.122070
5916188125,0.00157166,0.00631714,-1.00650024,0.305176,0.000000,-0.122070
5923789375,0.00157166,0.00631714,-1.00650024,0.366211,0.061035,-0.061035
5926341958,0.00143433,0.00668335,-1.00584412,0.366211,0.061035,-0.061035
5931486083,0.00143433,0.00668335,-1.00584412,0.366211,0.122070,0.061035
5934036041,0.00181580,0.00692749,-1.00605774,0.366211,0.122070,0.061035
5941632208,0.00181580,0.00692749,-1.00605774,0.122070,-0.061035,-0.183105
5944176166,0.00234985,0.00636292,-1.00697327,0.122070,-0.061035,-0.183105
5951786708,0.00234985,0.00636292,-1.00697327,0.366211,0.061035,-0.061035
5954321333,0.00196838,0.00657654,-1.00633240,0.366211,0.061035,-0.061035
5961796958,0.00196838,0.00657654,-1.00633240,0.366211,0.061035,-0.061035
5964374041,0.00119019,0.00729370,-1.00537109,0.366211,0.061035,-0.061035
5971972000,0.00119019,0.00729370,-1.00537109,0.244141,0.000000,-0.122070
5974539000,0.00123596,0.00657654,-1.00630188,0.244141,0.000000,-0.122070
5982145541,0.00123596,0.00657654,-1.00630188,0.366211,0.061035,-0.122070
5984696000,0.00190735,0.00717163,-1.00558472,0.366211,0.061035,-0.122070
5992301791,0.00190735,0.00717163,-1.00558472,0.305176,0.061035,-0.122070
5994851708,0.00198364,0.00794983,-1.00581360,0.305176,0.061035,-0.122070
6002460958,0.00198364,0.00794983,-1.00581360,0.305176,-0.061035,-0.122070
6005006708,0.00164795,0.00651550,-1.00651550,0.305176,-0.061035,-0.122070
6012605041,0.00164795,0.00651550,-1.00651550,0.427246,0.000000,-0.122070
6015153250,0.00071716,0.00729370,-1.00550842,0.427246,0.000000,-0.122070
6022770583,0.00071716,0.00729370,-1.00550842,0.305176,0.122070,-0.122070
6025317125,0.00033569,0.00715637,-1.00566101,0.305176,0.122070,-0.122070
6032897875,0.00033569,0.00715637,-1.00566101,0.244141,0.000000,-0.122070
6035451041,0.00126648,0.00700378,-1.00640869,0.244141,0.000000,-0.122070
6043077708,0.00126648,0.00700378,-1.00640869,0.488281,0.122070,-0.122070
6045619958,0.00196838,0.00701904,-1.00695801,0.488281,0.122070,-0.122070
6053248916,0.00196838,0.00701904,-1.00695801,0.305176,0.000000,-0.061035
6055536125,0.00190735,0.00628662,-1.00621033,0.305176,0.000000,-0.061035
6063151083,0.00190735,0.00628662,-1.00621033,0.427246,0.061035,-0.122070
6065699625,0.00172424,0.00636292,-1.00624084,0.427246,0.061035,-0.122070
6073316583,0.00172424,0.00636292,-1.00624084,0.366211,0.122070,-0.061035
6075869708,0.00212097,0.00735474,-1.00590515,0.366211,0.122070,-0.061035
6083464625,0.00212097,0.00735474,-1.00590515,0.427246,0.061035,-0.122070
6086005000,0.00128174,0.00715637,-1.00643921,0.427246,0.061035,-0.122070
6093592416,0.00128174,0.00715637,-1.00643921,0.305176,0.000000,0.061035
6095646625,0.00077820,0.00660706,-1.00584412,0.305176,0.000000,0.061035
6103101666,0.00077820,0.00660706,-1.00584412,0.244141,-0.061035,-0.061035
6105669541,0.00126648,0.00689697,-1.00593567,0.244141,-0.061035,-0.061035
6113314833,0.00126648,0.00689697,-1.00593567,0.366211,0.183105,-0.061035
6115923666,0.00080872,0.00733948,-1.00502014,0.366211,0.183105,-0.061035
6123600625,0.00080872,0.00733948,-1.00502014,0.305176,-0.061035,-0.061035
6126171125,0.00131226,0.00691223,-1.00579834,0.305176,-0.061035,-0.061035
6133859041,0.00131226,0.00691223,-1.00579834,0.366211,0.000000,-0.122070
6136132541,0.00170898,0.00711060,-1.00674438,0.366211,0.000000,-0.122070
6143767916,0.00170898,0.00711060,-1.00674438,0.244141,0.061035,-0.061035
6146318791,0.00094604,0.00682068,-1.00578308,0.244141,0.061035,-0.061035
6153988166,0.00094604,0.00682068,-1.00578308,0.061035,0.000000,0.000000
6156575791,0.00114441,0.00650024,-1.00636292,0.061035,0.000000,0.000000
6161683916,0.00114441,0.00650024,-1.00636292,0.366211,0.061035,-0.122070
6164156166,0.00117493,0.00781250,-1.00660706,0.366211,0.061035,-0.122070
6173891791,0.00117493,0.00781250,-1.00660706,0.366211,0.061035,-0.061035
6176504125,0.00140381,0.00733948,-1.00587463,0.366211,0.061035,-0.061035
6181560583,0.00140381,0.00733948,-1.00587463,0.305176,0.061035,-0.061035
6184099541,0.00164795,0.00695801,-1.00668335,0.305176,0.061035,-0.061035
6191718750,0.00164795,0.00695801,-1.00668335,0.427246,0.122070,0.000000
6194295708,0.00123596,0.00735474,-1.00469971,0.427246,0.122070,0.000000
6201812000,0.00123596,0.00735474,-1.00469971,0.244141,0.061035,-0.061035
6204378000,0.00148010,0.00721741,-1.00611877,0.244141,0.061035,-0.061035
6211957500,0.00148010,0.00721741,-1.00611877,0.366211,0.000000,-0.122070
6214505333,0.00161743,0.00680542,-1.00593567,0.366211,0.000000,-0.122070
6222118125,0.00161743,0.00680542,-1.00593567,0.183105,-0.061035,-0.122070
6224697791,0.00010681,0.00682068,-1.00552368,0.183105,-0.061035,-0.122070
6232285833,0.00010681,0.00682068,-1.00552368,0.488281,0.000000,0.122070
6234833541,0.00131226,0.00665283,-1.00550842,0.488281,0.000000,0.122070
6242454333,0.00131226,0.00665283,-1.00550842,0.305176,0.000000,0.000000
6244995083,0.00103760,0.00599670,-1.00588989,0.305176,0.000000,0.000000
6252260541,0.00103760,0.00599670,-1.00588989,0.305176,0.000000,0.000000
6254808541,0.00105286,0.00637817,-1.00559998,0.305176,0.000000,0.000000
6262433875,0.00105286,0.00637817,-1.00559998,0.366211,-0.061035,-0.122070
6265016458,0.00090027,0.00787354,-1.00625610,0.366211,-0.061035,-0.122070
6272227791,0.00090027,0.00787354,-1.00625610,0.305176,0.000000,-0.122070
6274814333,0.00160217,0.00781250,-1.00596619,0.305176,0.000000,-0.122070
6282398416,0.00160217,0.00781250,-1.00596619,0.366211,0.000000,0.000000
6284947208,0.00260925,0.00695801,-1.00715637,0.366211,0.000000,0.000000
6292250250,0.00260925,0.00695801,-1.00715637,0.488281,0.122070,-0.122070
6294806000,0.00161743,0.00732422,-1.00566101,0.488281,0.122070,-0.122070
6302418083,0.00161743,0.00732422,-1.00566101,0.427246,0.122070,-0.122070
6304957333,0.00134277,0.00715637,-1.00640869,0.427246,0.122070,-0.122070
6312293458,0.00134277,0.00715637,-1.00640869,0.366211,0.000000,-0.061035
6314842416,0.00148010,0.00723267,-1.00671387,0.366211,0.000000,-0.061035
6322445875,0.00148010,0.00723267,-1.00671387,0.366211,0.000000,-0.122070
6324587416,0.00169373,0.00651550,-1.00512695,0.366211,0.000000,-0.122070
6332215166,0.00169373,0.00651550,-1.00512695,0.366211,0.000000,-0.122070
6334761833,0.00196838,0.00662231,-1.00508118,0.366211,0.000000,-0.122070
6342378041,0.00196838,0.00662231,-1.00508118,0.366211,0.000000,-0.183105
6344917291,0.00146484,0.00633240,-1.00668335,0.366211,0.000000,-0.183105
6352533708,0.00146484,0.00633240,-1.00668335,0.366211,0.244141,0.000000
6355089250,0.00160217,0.00634766,-1.00561523,0.366211,0.244141,0.000000
6362710916,0.00160217,0.00634766,-1.00561523,0.427246,0.061035,-0.244141
6365262750,0.00276184,0.00662231,-1.00665283,0.427246,0.061035,-0.244141
6372875208,0.00276184,0.00662231,-1.00665283,0.244141,0.061035,0.000000
6375447708,0.00215149,0.00674438,-1.00675964,0.244141,0.061035,0.000000
6383052416,0.00215149,0.00674438,-1.00675964,0.305176,0.061035,-0.061035
6385601541,0.00161743,0.00708008,-1.00709534,0.305176,0.061035,-0.061035
6393188958,0.00161743,0.00708008,-1.00709534,0.427246,0.061035,-0.183105
6395736166,0.00219727,0.00808716,-1.00689697,0.427246,0.061035,-0.183105
6403359208,0.00219727,0.00808716,-1.00689697,0.061035,0.000000,-0.061035
6405902875,0.00158691,0.00689697,-1.00692749,0.061035,0.000000,-0.061035
6413510375,0.00158691,0.00689697,-1.00692749,0.305176,0.000000,-0.061035
6416074000,0.00140381,0.00695801,-1.00593567,0.305176,0.000000,-0.061035
6423489750,0.00140381,0.00695801,-1.00593567,0.244141,-0.061035,-0.122070
6426052041,0.00099182,0.00787354,-1.00671387,0.244141,-0.061035,-0.122070
6433676666,0.00099182,0.00787354,-1.00671387,0.244141,0.122070,-0.061035
6436234666,0.00062561,0.00753784,-1.00625610,0.244141,0.122070,-0.061035
6443839375,0.00062561,0.00753784,-1.00625610,0.366211,0.122070,-0.061035
6446388625,0.00170898,0.00726318,-1.00637817,0.366211,0.122070,-0.061035
6451513000,0.00170898,0.00726318,-1.00637817,0.427246,0.000000,0.000000
6454062750,0.00202942,0.00695801,-1.00688171,0.427246,0.000000,0.000000
6463701166,0.00202942,0.00695801,-1.00688171,0.244141,0.061035,-0.061035
6466260625,0.00128174,0.00628662,-1.00529480,0.244141,0.061035,-0.061035
6473882208,0.00128174,0.00628662,-1.00529480,0.305176,0.061035,-0.122070
6476468916,0.00093079,0.00685120,-1.00540161,0.305176,0.061035,-0.122070
6481563500,0.00093079,0.00685120,-1.00540161,0.244141,0.061035,0.000000
6486688958,0.00215149,0.00683594,-1.00578308,0.244141,0.061035,0.000000
6491785041,0.00215149,0.00683594,-1.00578308,0.488281,0.000000,-0.122070
6494327875,0.00202942,0.00677490,-1.00608826,0.488281,0.000000,-0.122070
6501509875,0.00202942,0.00677490,-1.00608826,0.305176,0.061035,-0.061035
6506597458,0.00234985,0.00569153,-1.00643921,0.305176,0.061035,-0.061035
6511674250,0.00234985,0.00569153,-1.00643921,0.183105,0.061035,-0.122070
6516754250,0.00192261,0.00688171,-1.00575256,0.183105,0.061035,-0.122070
6521818791,0.00192261,0.00688171,-1.00575256,0.305176,0.061035,-0.183105
6526879708,0.00126648,0.00701904,-1.00581360,0.305176,0.061035,-0.183105
6531946875,0.00126648,0.00701904,-1.00581360,0.427246,-0.061035,0.000000
6537042041,0.00097656,0.00770569,-1.00587463,0.427246,-0.061035,0.000000
6542113458,0.00097656,0.00770569,-1.00587463,0.366211,0.061035,0.061035
6546951875,0.00180054,0.00708008,-1.00613403,0.366211,0.061035,0.061035
6551550041,0.00180054,0.00708008,-1.00613403,0.427246,0.000000,-0.061035
6556603625,0.00117493,0.00700378,-1.00624084,0.427246,0.000000,-0.061035
6561683666,0.00117493,0.00700378,-1.00624084,0.183105,0.061035,0.000000
6566761208,0.00090027,0.00674438,-1.00602722,0.183105,0.061035,0.000000
6571846291,0.00090027,0.00674438,-1.00602722,0.305176,-0.061035,-0.061035
6576534291,0.00163269,0.00744629,-1.00634766,0.305176,-0.061035,-0.061035
6581599708,0.00163269,0.00744629,-1.00634766,0.427246,0.061035,-0.122070
6586688125,0.00259399,0.00686646,-1.00616455,0.427246,0.061035,-0.122070
6591767791,0.00259399,0.00686646,-1.00616455,0.244141,0.061035,0.000000
6596833375,0.00146484,0.00709534,-1.00614929,0.244141,0.061035,0.000000
6601917375,0.00146484,0.00709534,-1.00614929,0.305176,0.061035,0.000000
6607043000,0.00244141,0.00614929,-1.00550842,0.305176,0.061035,0.000000
6612128875,0.00244141,0.00614929,-1.00550842,0.366211,0.122070,-0.183105
6616820375,0.00187683,0.00701904,-1.00640869,0.366211,0.122070,-0.183105
6621907000,0.00187683,0.00701904,-1.00640869,0.427246,0.122070,-0.061035
6627027666,0.00094604,0.00675964,-1.00581360,0.427246,0.122070,-0.061035
6632063125,0.00094604,0.00675964,-1.00581360,0.305176,0.061035,-0.061035
6634624416,0.00149536,0.00650024,-1.00622559,0.305176,0.061035,-0.061035
6642267208,0.00149536,0.00650024,-1.00622559,0.244141,-0.061035,-0.122070
6644816333,0.00167847,0.00674438,-1.00555420,0.244141,-0.061035,-0.122070
6652011250,0.00167847,0.00674438,-1.00555420,0.488281,0.000000,-0.183105
6654565708,0.00170898,0.00671387,-1.00576782,0.488281,0.000000,-0.183105
6662223750,0.00170898,0.00671387,-1.00576782,0.366211,0.000000,-0.183105
6664794208,0.00076294,0.00668335,-1.00735474,0.366211,0.000000,-0.183105
6672437250,0.00076294,0.00668335,-1.00735474,0.305176,-0.061035,-0.061035
6674984541,0.00077820,0.00697327,-1.00595093,0.305176,-0.061035,-0.061035
6682591166,0.00077820,0.00697327,-1.00595093,0.366211,-0.061035,0.000000
6685147541,0.00108337,0.00744629,-1.00654602,0.366211,-0.061035,0.000000
6692750083,0.00108337,0.00744629,-1.00654602,0.244141,0.000000,-0.061035
6695297458,0.00073242,0.00572205,-1.00630188,0.244141,0.000000,-0.061035
6702913708,0.00073242,0.00572205,-1.00630188,0.305176,0.061035,0.061035
6705473583,0.00167847,0.00634766,-1.00509644,0.305176,0.061035,0.061035
6713083958,0.00167847,0.00634766,-1.00509644,0.244141,0.061035,0.000000
6715626708,0.00141907,0.00617981,-1.00584412,0.244141,0.061035,0.000000
6723223916,0.00141907,0.00617981,-1.00584412,0.244141,0.000000,-0.122070
6725765333,0.00183105,0.00552368,-1.00537109,0.244141,0.000000,-0.122070
6733381958,0.00183105,0.00552368,-1.00537109,0.366211,0.061035,-0.122070
6735932791,0.00187683,0.00640869,-1.00492859,0.366211,0.061035,-0.122070
6743571125,0.00187683,0.00640869,-1.00492859,0.305176,0.000000,-0.122070
6746135958,0.00163269,0.00672913,-1.00579834,0.305176,0.000000,-0.122070
6753296041,0.00163269,0.00672913,-1.00579834,0.244141,0.122070,-0.305176
6755843583,0.00143433,0.00636292,-1.00672913,0.244141,0.122070,-0.305176
6763461333,0.00143433,0.00636292,-1.00672913,0.366211,0.000000,-0.122070
6766036416,0.00169373,0.00643921,-1.00607300,0.366211,0.000000,-0.122070
6773259625,0.00169373,0.00643921,-1.00607300,0.427246,0.000000,-0.061035
6775821708,0.00195312,0.00730896,-1.00631714,0.427246,0.000000,-0.061035
6783421541,0.00195312,0.00730896,-1.00631714,0.183105,0.061035,0.122070
6785967833,0.00138855,0.00784302,-1.00538635,0.183105,0.061035,0.122070
6793477708,0.00138855,0.00784302,-1.00538635,0.244141,0.061035,-0.122070
6796020125,0.00186157,0.00735474,-1.00680542,0.244141,0.061035,-0.122070
6803643333,0.00186157,0.00735474,-1.00680542,0.366211,0.061035,-0.061035
6806186708,0.00120544,0.00733948,-1.00656128,0.366211,0.061035,-0.061035
6813425500,0.00120544,0.00733948,-1.00656128,0.427246,0.061035,-0.061035
6815994750,0.00080872,0.00779724,-1.00601196,0.427246,0.061035,-0.061035
6823589250,0.00080872,0.00779724,-1.00601196,0.244141,0.061035,-0.061035
6825950750,0.00132751,0.00741577,-1.00627136,0.244141,0.061035,-0.061035
6833220083,0.00132751,0.00741577,-1.00627136,0.427246,0.061035,-0.122070
6835774000,0.00103760,0.00709534,-1.00650024,0.427246,0.061035,-0.122070
6843145625,0.00103760,0.00709534,-1.00650024,0.427246,0.122070,0.061035
6845752458,0.00122070,0.00746155,-1.00585938,0.427246,0.122070,0.061035
6853398041,0.00122070,0.00746155,-1.00585938,0.366211,0.122070,-0.061035
6856033708,0.00209045,0.00698853,-1.00672913,0.366211,0.122070,-0.061035
6863709791,0.00209045,0.00698853,-1.00672913,0.305176,-0.122070,-0.183105
6866294375,0.00167847,0.00628662,-1.00633240,0.305176,-0.122070,-0.183105
6874021750,0.00167847,0.00628662,-1.00633240,0.305176,0.122070,0.000000
6876639416,0.00234985,0.00697327,-1.00588989,0.305176,0.122070,0.000000
6881821458,0.00234985,0.00697327,-1.00588989,0.366211,0.000000,-0.061035
6886974291,0.00228882,0.00733948,-1.00698853,0.366211,0.000000,-0.061035
6892145500,0.00228882,0.00733948,-1.00698853,0.427246,0.061035,0.000000
6894740541,0.00109863,0.00666809,-1.00610352,0.427246,0.061035,0.000000
6902391166,0.00109863,0.00666809,-1.00610352,0.305176,0.000000,-0.061035
6904999666,0.00129700,0.00648499,-1.00509644,0.305176,0.000000,-0.061035
6912717875,0.00129700,0.00648499,-1.00509644,0.366211,0.061035,-0.061035
6915134500,0.00154114,0.00680542,-1.00566101,0.366211,0.061035,-0.061035
6922784625,0.00154114,0.00680542,-1.00566101,0.244141,0.061035,0.000000
6925379333,0.00195312,0.00752258,-1.00593567,0.244141,0.061035,0.000000
6932557208,0.00195312,0.00752258,-1.00593567,0.244141,0.061035,0.000000
6935125666,0.00146484,0.00645447,-1.00531006,0.244141,0.061035,0.000000
6942744041,0.00146484,0.00645447,-1.00531006,0.366211,0.000000,0.000000
6945293291,0.00141907,0.00738525,-1.00593567,0.366211,0.000000,0.000000
6952992416,0.00141907,0.00738525,-1.00593567,0.488281,0.061035,-0.061035
6955557041,0.00111389,0.00726318,-1.00628662,0.488281,0.061035,-0.061035
6963195916,0.00111389,0.00726318,-1.00628662,0.244141,0.061035,-0.183105
6965794083,0.00120544,0.00720215,-1.00570679,0.244141,0.061035,-0.183105
6973428916,0.00120544,0.00720215,-1.00570679,0.244141,-0.061035,-0.122070
6975997083,0.00144958,0.00685120,-1.00584412,0.244141,-0.061035,-0.122070
6983640500,0.00144958,0.00685120,-1.00584412,0.366211,-0.061035,-0.122070
6986227333,0.00173950,0.00727844,-1.00665283,0.366211,-0.061035,-0.122070
6993982541,0.00173950,0.00727844,-1.00665283,0.366211,0.000000,-0.061035
6996576583,0.00134277,0.00679016,-1.00726318,0.366211,0.000000,-0.061035
7001695666,0.00134277,0.00679016,-1.00726318,0.305176,0.061035,-0.122070
7006660250,0.00180054,0.00646973,-1.00622559,0.305176,0.061035,-0.122070
7011805833,0.00180054,0.00646973,-1.00622559,0.244141,-0.061035,-0.122070
7016910416,0.00193787,0.00688171,-1.00596619,0.244141,-0.061035,-0.122070
7022024833,0.00193787,0.00688171,-1.00596619,0.366211,0.000000,-0.061035
7024597458,0.00120544,0.00708008,-1.00679016,0.366211,0.000000,-0.061035
7032213458,0.00120544,0.00708008,-1.00679016,0.305176,0.061035,-0.122070
7034759833,0.00064087,0.00697327,-1.00610352,0.305176,0.061035,-0.122070
7042360333,0.00064087,0.00697327,-1.00610352,0.244141,0.000000,-0.122070
7044913916,0.00090027,0.00698853,-1.00680542,0.244141,0.000000,-0.122070
7052514000,0.00090027,0.00698853,-1.00680542,0.183105,-0.122070,0.061035
7055064958,0.00093079,0.00709534,-1.00604248,0.183105,-0.122070,0.061035
7062520458,0.00093079,0.00709534,-1.00604248,0.305176,0.122070,-0.183105
7065108166,0.00071716,0.00744629,-1.00576782,0.305176,0.122070,-0.183105
7072752458,0.00071716,0.00744629,-1.00576782,0.305176,-0.122070,-0.122070
7075349083,0.00131226,0.00688171,-1.00698853,0.305176,-0.122070,-0.122070
7082982708,0.00131226,0.00688171,-1.00698853,0.366211,0.061035,-0.122070
7085551583,0.00154114,0.00698853,-1.00640869,0.366211,0.061035,-0.122070
7093014791,0.00154114,0.00698853,-1.00640869,0.305176,0.061035,-0.122070
7095563125,0.00152588,0.00700378,-1.00558472,0.305176,0.061035,-0.122070
7103176375,0.00152588,0.00700378,-1.00558472,0.488281,0.122070,0.000000
7105766458,0.00167847,0.00671387,-1.00729370,0.488281,0.122070,0.000000
7113432125,0.00167847,0.00671387,-1.00729370,0.427246,0.183105,0.061035
7115999208,0.00035095,0.00726318,-1.00682068,0.427246,0.183105,0.061035
7123612625,0.00035095,0.00726318,-1.00682068,0.366211,-0.061035,-0.122070
7126183750,0.00097656,0.00700378,-1.00587463,0.366211,-0.061035,-0.122070
7133805916,0.00097656,0.00700378,-1.00587463,0.427246,0.061035,0.000000
7136370333,0.00207520,0.00665283,-1.00605774,0.427246,0.061035,0.000000
7143970375,0.00207520,0.00665283,-1.00605774,0.244141,0.000000,0.061035
7146512458,0.00163269,0.00679016,-1.00636292,0.244141,0.000000,0.061035
7151649500,0.00163269,0.00679016,-1.00636292,0.488281,0.244141,-0.061035
7156737958,0.00167847,0.00708008,-1.00569153,0.488281,0.244141,-0.061035
7161850000,0.00167847,0.00708008,-1.00569153,0.366211,0.122070,0.000000
7166948916,0.00126648,0.00718689,-1.00540161,0.366211,0.122070,0.000000
7172060458,0.00126648,0.00718689,-1.00540161,0.427246,0.000000,-0.061035
7174639458,0.00193787,0.00657654,-1.00434875,0.427246,0.000000,-0.061035
7182255833,0.00193787,0.00657654,-1.00434875,0.183105,0.000000,-0.061035
7187337166,0.00189209,0.00735474,-1.00584412,0.183105,0.000000,-0.061035
7192413708,0.00189209,0.00735474,-1.00584412,0.305176,0.000000,-0.183105
7194967000,0.00207520,0.00796509,-1.00614929,0.305176,0.000000,-0.183105
7202612750,0.00207520,0.00796509,-1.00614929,0.305176,0.000000,-0.061035
7205184583,0.00244141,0.00657654,-1.00593567,0.305176,0.000000,-0.061035
7212495875,0.00244141,0.00657654,-1.00593567,0.427246,0.000000,-0.061035
7215071458,0.00199890,0.00650024,-1.00514221,0.427246,0.000000,-0.061035
7222533083,0.00199890,0.00650024,-1.00514221,0.427246,0.000000,0.061035
7225134083,0.00129700,0.00662231,-1.00514221,0.427246,0.000000,0.061035
7232766833,0.00129700,0.00662231,-1.00514221,0.366211,0.061035,0.000000
7235332625,0.00128174,0.00660706,-1.00610352,0.366211,0.061035,0.000000
7242653041,0.00128174,0.00660706,-1.00610352,0.244141,0.000000,-0.244141
7245202125,0.00143433,0.00645447,-1.00611877,0.244141,0.000000,-0.244141
7252881250,0.00143433,0.00645447,-1.00611877,0.183105,0.000000,0.000000
7255461583,0.00199890,0.00784302,-1.00627136,0.183105,0.000000,0.000000
7263084916,0.00199890,0.00784302,-1.00627136,0.305176,0.122070,-0.122070
7265658750,0.00218201,0.00688171,-1.00701904,0.305176,0.122070,-0.122070
7273347375,0.00218201,0.00688171,-1.00701904,0.427246,0.000000,-0.183105
7275971541,0.00083923,0.00704956,-1.00610352,0.427246,0.000000,-0.183105
7283616333,0.00083923,0.00704956,-1.00610352,0.366211,0.061035,-0.122070
7286192750,0.00173950,0.00645447,-1.00675964,0.366211,0.061035,-0.122070
7293852666,0.00173950,0.00645447,-1.00675964,0.244141,0.000000,-0.183105
7296428958,0.00207520,0.00584412,-1.00555420,0.244141,0.000000,-0.183105
7304084708,0.00207520,0.00584412,-1.00555420,0.305176,0.000000,-0.122070
7306732500,0.00102234,0.00674438,-1.00534058,0.305176,0.000000,-0.122070
7311833541,0.00102234,0.00674438,-1.00534058,0.366211,0.122070,0.061035
7316936208,0.00177002,0.00654602,-1.00564575,0.366211,0.122070,0.061035
7322104916,0.00177002,0.00654602,-1.00564575,0.183105,0.061035,-0.061035
7324671541,0.00128174,0.00677490,-1.00614929,0.183105,0.061035,-0.061035
7332292750,0.00128174,0.00677490,-1.00614929,0.366211,0.061035,-0.061035
7334844958,0.00234985,0.00749207,-1.00521851,0.366211,0.061035,-0.061035
7342463416,0.00234985,0.00749207,-1.00521851,0.244141,0.061035,0.000000
7345012416,0.00225830,0.00770569,-1.00599670,0.244141,0.061035,0.000000
7352632083,0.00225830,0.00770569,-1.00599670,0.427246,0.000000,-0.122070
7355222333,0.00234985,0.00677490,-1.00555420,0.427246,0.000000,-0.122070
7362898166,0.00234985,0.00677490,-1.00555420,0.183105,0.061035,-0.061035
7365481500,0.00152588,0.00704956,-1.00643921,0.183105,0.061035,-0.061035
7373088958,0.00152588,0.00704956,-1.00643921,0.366211,0.061035,0.000000
7375689875,0.00096130,0.00695801,-1.00662231,0.366211,0.061035,0.000000
7383303583,0.00096130,0.00695801,-1.00662231,0.244141,-0.061035,-0.061035
7385900625,0.00186157,0.00646973,-1.00613403,0.244141,-0.061035,-0.061035
7393560708,0.00186157,0.00646973,-1.00613403,0.488281,0.061035,-0.122070
7396032166,0.00132751,0.00724792,-1.00569153,0.488281,0.061035,-0.122070
7403319041,0.00132751,0.00724792,-1.00569153,0.244141,0.061035,-0.122070
7405902500,0.00059509,0.00744629,-1.00584412,0.244141,0.061035,-0.122070
7413579250,0.00059509,0.00744629,-1.00584412,0.244141,0.000000,-0.061035
7416163291,0.00198364,0.00715637,-1.00575256,0.244141,0.000000,-0.061035
7423775666,0.00198364,0.00715637,-1.00575256,0.305176,0.122070,-0.061035
7426326500,0.00224304,0.00662231,-1.00650024,0.305176,0.122070,-0.061035
7433923333,0.00224304,0.00662231,-1.00650024,0.244141,0.000000,-0.061035
7436493500,0.00155640,0.00726318,-1.00579834,0.244141,0.000000,-0.061035
7444104916,0.00155640,0.00726318,-1.00579834,0.366211,0.000000,0.000000
7446669708,0.00187683,0.00639343,-1.00645447,0.366211,0.000000,0.000000
7451751166,0.00187683,0.00639343,-1.00645447,0.305176,0.000000,-0.122070
7456820958,0.00260925,0.00654602,-1.00650024,0.305176,0.000000,-0.122070
7461927541,0.00260925,0.00654602,-1.00650024,0.366211,0.061035,-0.183105
7467012083,0.00131226,0.00720215,-1.00544739,0.366211,0.061035,-0.183105
7472114541,0.00131226,0.00720215,-1.00544739,0.183105,0.061035,-0.061035
7474665416,0.00135803,0.00718689,-1.00654602,0.183105,0.061035,-0.061035
7482285000,0.00135803,0.00718689,-1.00654602,0.366211,-0.061035,-0.183105
7484833875,0.00193787,0.00733948,-1.00567627,0.366211,-0.061035,-0.183105
7492429708,0.00193787,0.00733948,-1.00567627,0.244141,0.000000,0.000000
7494974041,0.00166321,0.00730896,-1.00451660,0.244141,0.000000,0.000000
7502579250,0.00166321,0.00730896,-1.00451660,0.244141,0.183105,-0.122070
7505122000,0.00082397,0.00730896,-1.00534058,0.244141,0.183105,-0.122070
7512728791,0.00082397,0.00730896,-1.00534058,0.427246,0.061035,-0.122070
7515299000,0.00071716,0.00698853,-1.00617981,0.427246,0.061035,-0.122070
7522922625,0.00071716,0.00698853,-1.00617981,0.366211,0.000000,0.000000
7525486416,0.00154114,0.00677490,-1.00611877,0.366211,0.000000,0.000000
7532948541,0.00154114,0.00677490,-1.00611877,0.366211,0.122070,-0.122070
7535516333,0.00138855,0.00675964,-1.00630188,0.366211,0.122070,-0.122070
7543128625,0.00138855,0.00675964,-1.00630188,0.366211,0.061035,-0.061035
7545675625,0.00114441,0.00715637,-1.00569153,0.366211,0.061035,-0.061035
7553288833,0.00114441,0.00715637,-1.00569153,0.305176,0.000000,-0.061035
7555843208,0.00097656,0.00642395,-1.00619507,0.305176,0.000000,-0.061035
7563435000,0.00097656,0.00642395,-1.00619507,0.183105,-0.061035,-0.244141
7565996541,0.00180054,0.00621033,-1.00602722,0.183105,-0.061035,-0.244141
7573251541,0.00180054,0.00621033,-1.00602722,0.488281,-0.061035,-0.061035
7575792583,0.00178528,0.00709534,-1.00607300,0.488281,-0.061035,-0.061035
7583380208,0.00178528,0.00709534,-1.00607300,0.366211,0.000000,-0.061035
7585933958,0.00143433,0.00720215,-1.00576782,0.366211,0.000000,-0.061035
7593526875,0.00143433,0.00720215,-1.00576782,0.122070,0.000000,-0.061035
7596066083,0.00177002,0.00720215,-1.00656128,0.122070,0.000000,-0.061035
7603279708,0.00177002,0.00720215,-1.00656128,0.427246,0.000000,0.000000
7605825166,0.00137329,0.00689697,-1.00553894,0.427246,0.000000,0.000000
7613425916,0.00137329,0.00689697,-1.00553894,0.305176,0.000000,-0.061035
7615965166,0.00143433,0.00561523,-1.00564575,0.305176,0.000000,-0.061035
7623248791,0.00143433,0.00561523,-1.00564575,0.427246,0.122070,-0.061035
7625787625,0.00178528,0.00732422,-1.00569153,0.427246,0.122070,-0.061035
7633383958,0.00178528,0.00732422,-1.00569153,0.183105,0.122070,-0.122070
7635941500,0.00117493,0.00685120,-1.00553894,0.183105,0.122070,-0.122070
7643531708,0.00117493,0.00685120,-1.00553894,0.305176,0.000000,-0.122070
7646072833,0.00106812,0.00592041,-1.00541687,0.305176,0.000000,-0.122070
7653295083,0.00106812,0.00592041,-1.00541687,0.305176,-0.061035,-0.061035
7655843166,0.00094604,0.00624084,-1.00625610,0.305176,-0.061035,-0.061035
7663446333,0.00094604,0.00624084,-1.00625610,0.488281,0.122070,-0.061035
7665992083,0.00083923,0.00663757,-1.00567627,0.488281,0.122070,-0.061035
7673588958,0.00083923,0.00663757,-1.00567627,0.366211,0.061035,0.000000
7676140250,0.00091553,0.00680542,-1.00541687,0.366211,0.061035,0.000000
7683755083,0.00091553,0.00680542,-1.00541687,0.366211,0.122070,0.000000
7686300458,0.00135803,0.00718689,-1.00518799,0.366211,0.122070,0.000000
7693885625,0.00135803,0.00718689,-1.00518799,0.244141,0.061035,-0.183105
7696423166,0.00100708,0.00703430,-1.00593567,0.244141,0.061035,-0.183105
7704028291,0.00100708,0.00703430,-1.00593567,0.366211,0.000000,-0.061035
7706446625,0.00181580,0.00735474,-1.00544739,0.366211,0.000000,-0.061035
7713557583,0.00181580,0.00735474,-1.00544739,0.305176,0.000000,-0.122070
7716107041,0.00161743,0.00668335,-1.00643921,0.305176,0.000000,-0.122070
7723264791,0.00161743,0.00668335,-1.00643921,0.305176,0.061035,0.000000
7725805583,0.00103760,0.00709534,-1.00599670,0.305176,0.061035,0.000000
7733392083,0.00103760,0.00709534,-1.00599670,0.427246,0.000000,-0.122070
7735932458,0.00111389,0.00712585,-1.00611877,0.427246,0.000000,-0.122070
7743525416,0.00111389,0.00712585,-1.00611877,0.427246,0.000000,-0.061035
7746065416,0.00193787,0.00691223,-1.00653076,0.427246,0.000000,-0.061035
7753295000,0.00193787,0.00691223,-1.00653076,0.366211,0.000000,0.000000
7755369083,0.00209045,0.00634766,-1.00669861,0.366211,0.000000,0.000000
7763023916,0.00209045,0.00634766,-1.00669861,0.305176,0.061035,-0.122070
7765571416,0.00236511,0.00656128,-1.00607300,0.305176,0.061035,-0.122070
7773173708,0.00236511,0.00656128,-1.00607300,0.244141,0.061035,-0.122070
7775725208,0.00268555,0.00628662,-1.00650024,0.244141,0.061035,-0.122070
7783328000,0.00268555,0.00628662,-1.00650024,0.366211,0.000000,0.061035
7785877291,0.00260925,0.00613403,-1.00559998,0.366211,0.000000,0.061035
7793463625,0.00260925,0.00613403,-1.00559998,0.244141,-0.122070,-0.183105
7796013291,0.00169373,0.00582886,-1.00534058,0.244141,-0.122070,-0.183105
7803278833,0.00169373,0.00582886,-1.00534058,0.305176,0.000000,-0.061035
7805818916,0.00161743,0.00642395,-1.00614929,0.305176,0.000000,-0.061035
7813414250,0.00161743,0.00642395,-1.00614929,0.122070,0.061035,-0.122070
7815955291,0.00160217,0.00729370,-1.00636292,0.122070,0.061035,-0.122070
7823559666,0.00160217,0.00729370,-1.00636292,0.244141,0.122070,-0.122070
7826102958,0.00125122,0.00749207,-1.00602722,0.244141,0.122070,-0.122070
7833693208,0.00125122,0.00749207,-1.00602722,0.366211,-0.061035,-0.183105
7836240833,0.00115967,0.00675964,-1.00585938,0.366211,-0.061035,-0.183105
7843829208,0.00115967,0.00675964,-1.00585938,0.305176,-0.183105,-0.061035
7846368541,0.00099182,0.00703430,-1.00593567,0.305176,-0.183105,-0.061035
7853975583,0.00099182,0.00703430,-1.00593567,0.305176,0.000000,-0.061035
7856525250,0.00044250,0.00692749,-1.00718689,0.305176,0.000000,-0.061035
7864130166,0.00044250,0.00692749,-1.00718689,0.366211,-0.061035,-0.122070
7866461708,0.00144958,0.00694275,-1.00535583,0.366211,-0.061035,-0.122070
7874060333,0.00144958,0.00694275,-1.00535583,0.183105,0.000000,-0.122070
7876168958,0.00193787,0.00617981,-1.00621033,0.183105,0.000000,-0.122070
7883775958,0.00193787,0.00617981,-1.00621033,0.305176,0.122070,-0.122070
7886329333,0.00157166,0.00639343,-1.00642395,0.305176,0.122070,-0.122070
7893930500,0.00157166,0.00639343,-1.00642395,0.305176,0.061035,-0.061035
7896484666,0.00218201,0.00711060,-1.00643921,0.305176,0.061035,-0.061035
7904094708,0.00218201,0.00711060,-1.00643921,0.244141,0.122070,-0.122070
7906579750,0.00112915,0.00633240,-1.00587463,0.244141,0.122070,-0.122070
7914179000,0.00112915,0.00633240,-1.00587463,0.305176,0.061035,-0.061035
7916742291,0.00135803,0.00621033,-1.00576782,0.305176,0.061035,-0.061035
7921826500,0.00135803,0.00621033,-1.00576782,0.305176,0.000000,-0.122070
7926915125,0.00103760,0.00772095,-1.00656128,0.305176,0.000000,-0.122070
7934069000,0.00103760,0.00772095,-1.00656128,0.427246,0.061035,-0.122070
7936614083,0.00163269,0.00741577,-1.00579834,0.427246,0.061035,-0.122070
7943916666,0.00163269,0.00741577,-1.00579834,0.427246,0.061035,0.000000
7946458208,0.00056458,0.00729370,-1.00619507,0.427246,0.061035,0.000000
7954049125,0.00056458,0.00729370,-1.00619507,0.366211,-0.061035,-0.061035
7956595208,0.00083923,0.00689697,-1.00624084,0.366211,-0.061035,-0.061035
7964230125,0.00083923,0.00689697,-1.00624084,0.244141,0.061035,-0.061035
7966801708,0.00225830,0.00796509,-1.00587463,0.244141,0.061035,-0.061035
7973690458,0.00225830,0.00796509,-1.00587463,0.427246,-0.061035,-0.061035
7976096208,0.00177002,0.00810242,-1.00581360,0.427246,-0.061035,-0.061035
7983658458,0.00177002,0.00810242,-1.00581360,0.488281,0.122070,-0.061035
7986183791,0.00125122,0.00686646,-1.00563049,0.488281,0.122070,-0.061035
7993578333,0.00125122,0.00686646,-1.00563049,0.305176,0.061035,0.000000
7996136083,0.00134277,0.00672913,-1.00639343,0.305176,0.061035,0.000000
8003484791,0.00134277,0.00672913,-1.00639343,0.305176,0.122070,-0.061035
8006042333,0.00166321,0.00743103,-1.00686646,0.305176,0.122070,-0.061035
8013639791,0.00166321,0.00743103,-1.00686646,0.305176,0.000000,-0.122070
8016199291,0.00167847,0.00729370,-1.00645447,0.305176,0.000000,-0.122070
8023800375,0.00167847,0.00729370,-1.00645447,0.366211,0.122070,-0.183105
8026339333,0.00094604,0.00636292,-1.00549316,0.366211,0.122070,-0.183105
8033934333,0.00094604,0.00636292,-1.00549316,0.305176,0.061035,-0.122070
8036482875,0.00083923,0.00683594,-1.00666809,0.305176,0.061035,-0.122070
8044080166,0.00083923,0.00683594,-1.00666809,0.366211,0.061035,0.000000
8046626500,0.00128174,0.00750732,-1.00633240,0.366211,0.061035,0.000000
8054211625,0.00128174,0.00750732,-1.00633240,0.305176,0.061035,-0.122070
8056748291,0.00268555,0.00682068,-1.00639343,0.305176,0.061035,-0.122070
8061825666,0.00268555,0.00682068,-1.00639343,0.183105,0.061035,-0.061035
8066904791,0.00199890,0.00685120,-1.00692749,0.183105,0.061035,-0.061035
8071973916,0.00199890,0.00685120,-1.00692749,0.305176,0.061035,-0.122070
8077054125,0.00218201,0.00738525,-1.00616455,0.305176,0.061035,-0.122070
8082076833,0.00218201,0.00738525,-1.00616455,0.305176,0.061035,-0.061035
8084626083,0.00189209,0.00677490,-1.00608826,0.305176,0.061035,-0.061035
8092059541,0.00189209,0.00677490,-1.00608826,0.244141,0.061035,-0.061035
8094613541,0.00135803,0.00669861,-1.00547791,0.244141,0.061035,-0.061035
8104131500,0.00135803,0.00669861,-1.00547791,0.183105,-0.061035,0.000000
8106679208,0.00172424,0.00611877,-1.00683594,0.183105,-0.061035,0.000000
8114272583,0.00172424,0.00611877,-1.00683594,0.244141,0.000000,-0.061035
8116819541,0.00135803,0.00677490,-1.00578308,0.244141,0.000000,-0.061035
8121896458,0.00135803,0.00677490,-1.00578308,0.366211,0.000000,-0.061035
8126964708,0.00148010,0.00665283,-1.00685120,0.366211,0.000000,-0.061035
8132047541,0.00148010,0.00665283,-1.00685120,0.305176,0.061035,0.000000
8134597333,0.00155640,0.00698853,-1.00628662,0.305176,0.061035,0.000000
8142200333,0.00155640,0.00698853,-1.00628662,0.427246,0.122070,-0.061035
8144745625,0.00122070,0.00727844,-1.00671387,0.427246,0.122070,-0.061035
8151985083,0.00122070,0.00727844,-1.00671387,0.244141,-0.122070,-0.061035
8154571916,0.00138855,0.00755310,-1.00599670,0.244141,-0.122070,-0.061035
8162176333,0.00138855,0.00755310,-1.00599670,0.488281,0.061035,-0.122070
8164727041,0.00239563,0.00584412,-1.00559998,0.488281,0.061035,-0.122070
8171969625,0.00239563,0.00584412,-1.00559998,0.427246,0.000000,-0.122070
8177060291,0.00109863,0.00654602,-1.00651550,0.427246,0.000000,-0.122070
8182153541,0.00109863,0.00654602,-1.00651550,0.305176,-0.061035,0.000000
8184698833,0.00025940,0.00677490,-1.00537109,0.305176,-0.061035,0.000000
8191994333,0.00025940,0.00677490,-1.00537109,0.183105,-0.061035,-0.183105
8194546291,0.00193787,0.00717163,-1.00523376,0.183105,-0.061035,-0.183105
8202162708,0.00193787,0.00717163,-1.00523376,0.366211,0.061035,-0.061035
8204708375,0.00129700,0.00727844,-1.00595093,0.366211,0.061035,-0.061035
8212126083,0.00129700,0.00727844,-1.00595093,0.183105,0.122070,0.000000
8216973333,0.00119019,0.00753784,-1.00497437,0.183105,0.122070,0.000000
8222045583,0.00119019,0.00753784,-1.00497437,0.366211,0.061035,-0.122070
8224606000,0.00071716,0.00654602,-1.00642395,0.366211,0.061035,-0.122070
8232140875,0.00071716,0.00654602,-1.00642395,0.244141,0.183105,0.000000
8234704875,0.00108337,0.00686646,-1.00550842,0.244141,0.183105,0.000000
8242329833,0.00108337,0.00686646,-1.00550842,0.427246,0.122070,-0.061035
8244877083,0.00131226,0.00767517,-1.00660706,0.427246,0.122070,-0.061035
8252460041,0.00131226,0.00767517,-1.00660706,0.427246,0.122070,0.061035
8254998708,0.00184631,0.00674438,-1.00587463,0.427246,0.122070,0.061035
8262423333,0.00184631,0.00674438,-1.00587463,0.488281,0.183105,-0.061035
8264984625,0.00106812,0.00633240,-1.00613403,0.488281,0.183105,-0.061035
8272577291,0.00106812,0.00633240,-1.00613403,0.305176,0.061035,-0.061035
8275106375,0.00146484,0.00604248,-1.00563049,0.305176,0.061035,-0.061035
8282287333,0.00146484,0.00604248,-1.00563049,0.183105,0.061035,-0.061035
8284815083,0.00219727,0.00704956,-1.00570679,0.183105,0.061035,-0.061035
8292389666,0.00219727,0.00704956,-1.00570679,0.244141,-0.061035,-0.122070
