timestamp_ns,accel_x,accel_y,accel_z,gyro_x,gyro_y,gyro_z
88307625,0.01460266,-0.00059509,-0.99815369,0.000000,0.000000,0.000000
102027875,0.01412964,0.00027466,-0.99092102,0.000000,0.000000,0.000000
106098875,0.01412964,0.00027466,-0.99092102,-0.183105,0.305176,-0.061035
106101125,0.01412964,0.00027466,-0.99092102,0.000000,0.244141,-0.183105
108640625,0.01472473,0.00286865,-0.99845886,0.000000,0.244141,-0.183105
112633500,0.01472473,0.00286865,-0.99845886,-0.061035,0.122070,-0.244141
117967791,0.01373291,0.00468445,-0.99226379,-0.061035,0.122070,-0.244141
123979666,0.01373291,0.00468445,-0.99226379,-0.061035,0.244141,-0.122070
127054833,0.01249695,0.00727844,-0.99618530,-0.061035,0.244141,-0.122070
133784166,0.01249695,0.00727844,-0.99618530,0.061035,0.183105,0.061035
137497208,0.01240540,0.00859070,-0.99588013,0.061035,0.183105,0.061035
142522083,0.01240540,0.00859070,-0.99588013,0.061035,0.244141,0.000000
145041291,0.01277161,0.00935364,-0.99475098,0.061035,0.244141,0.000000
152622166,0.01277161,0.00935364,-0.99475098,0.061035,0.244141,0.000000
155143041,0.01347351,0.00691223,-0.99699402,0.061035,0.244141,0.000000
162687208,0.01347351,0.00691223,-0.99699402,0.000000,0.244141,-0.061035
165383041,0.01428223,0.00657654,-0.99430847,0.000000,0.244141,-0.061035
172913166,0.01428223,0.00657654,-0.99430847,0.061035,0.244141,-0.061035
175434958,0.01548767,0.00537109,-0.99781799,0.061035,0.244141,-0.061035
183005666,0.01548767,0.00537109,-0.99781799,0.000000,0.183105,-0.061035
185519625,0.01614380,0.00354004,-0.99298096,0.000000,0.183105,-0.061035
193065000,0.01614380,0.00354004,-0.99298096,0.122070,0.183105,-0.061035
195576500,0.01535034,0.00146484,-0.99584961,0.122070,0.183105,-0.061035
203119875,0.01535034,0.00146484,-0.99584961,0.061035,0.183105,-0.122070
205649333,0.01455688,0.00108337,-0.99455261,0.061035,0.183105,-0.122070
213196625,0.01455688,0.00108337,-0.99455261,-0.061035,0.305176,-0.122070
215727208,0.01364136,0.00074768,-0.99491882,-0.061035,0.305176,-0.122070
223278666,0.01364136,0.00074768,-0.99491882,0.000000,0.244141,0.000000
225807958,0.01260376,0.00061035,-0.99540710,0.000000,0.244141,0.000000
233402375,0.01260376,0.00061035,-0.99540710,-0.061035,0.122070,-0.122070
235937958,0.01312256,0.00224304,-0.99465942,-0.061035,0.122070,-0.122070
243524708,0.01312256,0.00224304,-0.99465942,-0.061035,0.183105,-0.122070
246060916,0.01234436,0.00437927,-0.99473572,-0.061035,0.183105,-0.122070
253647416,0.01234436,0.00437927,-0.99473572,0.061035,0.122070,-0.244141
256183208,0.01242065,0.00611877,-0.99389648,0.061035,0.122070,-0.244141
263772000,0.01242065,0.00611877,-0.99389648,0.000000,0.000000,-0.122070
266304791,0.01295471,0.00727844,-0.99516296,0.000000,0.000000,-0.122070
271383416,0.01295471,0.00727844,-0.99516296,-0.122070,0.183105,-0.122070
276415125,0.01507568,0.00912476,-0.99575806,-0.122070,0.183105,-0.122070
281439333,0.01507568,0.00912476,-0.99575806,0.244141,0.122070,-0.183105
286464708,0.01399231,0.00859070,-0.99633789,0.244141,0.122070,-0.183105
294011083,0.01399231,0.00859070,-0.99633789,0.061035,0.183105,-0.061035
296537208,0.01335144,0.00657654,-0.99507141,0.061035,0.183105,-0.061035
304092750,0.01335144,0.00657654,-0.99507141,0.000000,0.183105,-0.122070
306624291,0.01306152,0.00559998,-0.99615479,0.000000,0.183105,-0.122070
314193625,0.01306152,0.00559998,-0.99615479,0.061035,0.183105,0.000000
316726500,0.01341248,0.00474548,-0.99562073,0.061035,0.183105,0.000000
324322500,0.01341248,0.00474548,-0.99562073,0.061035,0.061035,-0.122070
326863875,0.01362610,0.00326538,-0.99510193,0.061035,0.061035,-0.122070
331910750,0.01362610,0.00326538,-0.99510193,0.000000,0.244141,0.000000
336942500,0.01374817,0.00123596,-0.99501038,0.000000,0.244141,0.000000
341972458,0.01374817,0.00123596,-0.99501038,0.122070,0.183105,-0.122070
347009791,0.01348877,0.00111389,-0.99533081,0.122070,0.183105,-0.122070
352043083,0.01348877,0.00111389,-0.99533081,0.000000,0.122070,-0.122070
357081500,0.01367188,0.00054932,-0.99465942,0.000000,0.122070,-0.122070
362124333,0.01367188,0.00054932,-0.99465942,-0.061035,0.061035,-0.061035
367173791,0.01362610,0.00160217,-0.99493408,-0.061035,0.061035,-0.061035
372266000,0.01362610,0.00160217,-0.99493408,0.122070,0.122070,-0.183105
377329208,0.01336670,0.00270081,-0.99526978,0.122070,0.122070,-0.183105
382360458,0.01336670,0.00270081,-0.99526978,0.000000,0.122070,-0.183105
387423625,0.01240540,0.00444031,-0.99575806,0.000000,0.122070,-0.183105
392514125,0.01240540,0.00444031,-0.99575806,0.000000,0.122070,-0.122070
397404791,0.01249695,0.00602722,-0.99528503,0.000000,0.122070,-0.122070
402450916,0.01249695,0.00602722,-0.99528503,0.122070,0.122070,-0.122070
407496500,0.01275635,0.00761414,-0.99468994,0.122070,0.122070,-0.122070
412539583,0.01275635,0.00761414,-0.99468994,0.061035,0.183105,-0.061035
417601458,0.01361084,0.00779724,-0.99562073,0.061035,0.183105,-0.061035
422722291,0.01361084,0.00779724,-0.99562073,0.000000,0.061035,-0.122070
427792333,0.01387024,0.00814819,-0.99627686,0.000000,0.061035,-0.122070
432851875,0.01387024,0.00814819,-0.99627686,0.122070,0.244141,-0.122070
437960750,0.01412964,0.00755310,-0.99607849,0.122070,0.244141,-0.122070
443029750,0.01412964,0.00755310,-0.99607849,0.122070,0.122070,-0.061035
448088041,0.01420593,0.00703430,-0.99562073,0.122070,0.122070,-0.061035
453147791,0.01420593,0.00703430,-0.99562073,0.122070,0.244141,-0.061035
458211291,0.01364136,0.00469971,-0.99551392,0.122070,0.244141,-0.061035
463322166,0.01364136,0.00469971,-0.99551392,0.061035,0.122070,-0.061035
465872625,0.01347351,0.00311279,-0.99589539,0.061035,0.122070,-0.061035
473464208,0.01347351,0.00311279,-0.99589539,0.000000,0.244141,0.061035
476002375,0.01416016,0.00241089,-0.99580383,0.000000,0.244141,0.061035
483582333,0.01416016,0.00241089,-0.99580383,0.061035,0.183105,-0.122070
486118791,0.01287842,0.00221252,-0.99520874,0.061035,0.183105,-0.122070
493698500,0.01287842,0.00221252,-0.99520874,0.000000,0.122070,-0.183105
496242625,0.01362610,0.00190735,-0.99528503,0.000000,0.122070,-0.183105
503833375,0.01362610,0.00190735,-0.99528503,0.061035,0.244141,-0.061035
506372625,0.01329041,0.00242615,-0.99432373,0.061035,0.244141,-0.061035
513964750,0.01329041,0.00242615,-0.99432373,0.000000,0.305176,-0.122070
516509500,0.01205444,0.00384521,-0.99475098,0.000000,0.305176,-0.122070
524155500,0.01205444,0.00384521,-0.99475098,0.183105,0.183105,-0.061035
526690750,0.01283264,0.00498962,-0.99595642,0.183105,0.183105,-0.061035
534272291,0.01283264,0.00498962,-0.99595642,0.061035,0.122070,-0.122070
536807541,0.01312256,0.00584412,-0.99479675,0.061035,0.122070,-0.122070
541878666,0.01312256,0.00584412,-0.99479675,0.183105,0.366211,-0.122070
546961000,0.01298523,0.00531006,-0.99748230,0.183105,0.366211,-0.122070
552021166,0.01298523,0.00531006,-0.99748230,0.183105,0.183105,-0.122070
557081833,0.01303101,0.00585938,-0.99612427,0.183105,0.183105,-0.122070
562183250,0.01303101,0.00585938,-0.99612427,0.000000,0.183105,-0.122070
567240458,0.01446533,0.00614929,-0.99531555,0.000000,0.183105,-0.122070
572318750,0.01446533,0.00614929,-0.99531555,0.000000,0.244141,-0.122070
577394291,0.01513672,0.00585938,-0.99594116,0.000000,0.244141,-0.122070
582461000,0.01513672,0.00585938,-0.99594116,0.122070,0.122070,-0.183105
587582916,0.01519775,0.00582886,-0.99517822,0.122070,0.122070,-0.183105
592645416,0.01519775,0.00582886,-0.99517822,0.061035,0.183105,-0.061035
597714583,0.01484680,0.00503540,-0.99526978,0.061035,0.183105,-0.061035
602777541,0.01484680,0.00503540,-0.99526978,0.122070,0.183105,-0.061035
607832083,0.01513672,0.00462341,-0.99534607,0.122070,0.183105,-0.061035
612886708,0.01513672,0.00462341,-0.99534607,0.061035,0.122070,-0.183105
617941125,0.01373291,0.00376892,-0.99543762,0.061035,0.122070,-0.183105
623001958,0.01373291,0.00376892,-0.99543762,0.061035,0.122070,-0.183105
628063500,0.01290894,0.00329590,-0.99429321,0.061035,0.122070,-0.183105
633120833,0.01290894,0.00329590,-0.99429321,0.000000,0.122070,-0.122070
638198958,0.01254272,0.00279236,-0.99468994,0.000000,0.122070,-0.122070
643282125,0.01254272,0.00279236,-0.99468994,0.183105,0.305176,-0.061035
648372458,0.01286316,0.00299072,-0.99487305,0.183105,0.305176,-0.061035
653483916,0.01286316,0.00299072,-0.99487305,0.183105,0.061035,-0.122070
656020458,0.01367188,0.00338745,-0.99531555,0.183105,0.061035,-0.122070
663595708,0.01367188,0.00338745,-0.99531555,0.183105,0.122070,-0.183105
666131166,0.01307678,0.00382996,-0.99664307,0.183105,0.122070,-0.183105
673716416,0.01307678,0.00382996,-0.99664307,0.244141,0.305176,-0.122070
676258375,0.01356506,0.00419617,-0.99705505,0.244141,0.305176,-0.122070
683865375,0.01356506,0.00419617,-0.99705505,0.488281,0.244141,-0.305176
686411375,0.01368713,0.00404358,-0.99488831,0.488281,0.244141,-0.305176
694001125,0.01368713,0.00404358,-0.99488831,0.427246,0.244141,-0.061035
696549875,0.01409912,0.00373840,-0.99435425,0.427246,0.244141,-0.061035
704130000,0.01409912,0.00373840,-0.99435425,0.244141,0.183105,-0.183105
706665000,0.01400757,0.00227356,-0.99615479,0.244141,0.183105,-0.183105
714245000,0.01400757,0.00227356,-0.99615479,-0.122070,0.244141,-0.122070
716779541,0.01379395,0.00428772,-0.99604797,-0.122070,0.244141,-0.122070
724357416,0.01379395,0.00428772,-0.99604797,0.000000,0.244141,-0.122070
726890833,0.01383972,0.00689697,-0.99662781,0.000000,0.244141,-0.122070
734487333,0.01383972,0.00689697,-0.99662781,0.061035,0.183105,-0.061035
737024750,0.01268005,0.00915527,-0.99502563,0.061035,0.183105,-0.061035
744603083,0.01268005,0.00915527,-0.99502563,0.183105,0.122070,0.000000
747138708,0.01249695,0.01031494,-0.99464417,0.183105,0.122070,0.000000
754652416,0.01249695,0.01031494,-0.99464417,0.183105,0.122070,-0.183105
757186458,0.01330566,0.00837708,-0.99427795,0.183105,0.122070,-0.183105
764774583,0.01330566,0.00837708,-0.99427795,0.122070,0.244141,0.000000
767309125,0.01377869,0.00633240,-0.99548340,0.122070,0.244141,0.000000
774953666,0.01377869,0.00633240,-0.99548340,0.183105,0.122070,-0.183105
777502208,0.01414490,0.00410461,-0.99594116,0.183105,0.122070,-0.183105
785087833,0.01414490,0.00410461,-0.99594116,0.122070,0.122070,-0.183105
787624833,0.01335144,0.00196838,-0.99650574,0.122070,0.122070,-0.183105
795205250,0.01335144,0.00196838,-0.99650574,0.183105,0.183105,0.000000
797739541,0.01356506,0.00068665,-0.99668884,0.183105,0.183105,0.000000
805333208,0.01356506,0.00068665,-0.99668884,0.366211,0.122070,-0.122070
807875625,0.01329041,0.00042725,-0.99572754,0.366211,0.122070,-0.122070
812942041,0.01329041,0.00042725,-0.99572754,0.244141,0.244141,-0.061035
817999916,0.01211548,0.00292969,-0.99490356,0.244141,0.244141,-0.061035
823063666,0.01211548,0.00292969,-0.99490356,0.305176,0.061035,-0.061035
828120625,0.01358032,0.00413513,-0.99530029,0.305176,0.061035,-0.061035
833176375,0.01358032,0.00413513,-0.99530029,0.305176,0.244141,-0.122070
838231708,0.01437378,0.00500488,-0.99519348,0.305176,0.244141,-0.122070
843286500,0.01437378,0.00500488,-0.99519348,0.244141,0.122070,-0.122070
848339458,0.01400757,0.00598145,-0.99511719,0.244141,0.122070,-0.122070
853404166,0.01400757,0.00598145,-0.99511719,0.183105,0.122070,0.061035
858476416,0.01362610,0.00660706,-0.99565125,0.183105,0.122070,0.061035
863531666,0.01362610,0.00660706,-0.99565125,0.061035,0.183105,-0.122070
868588041,0.01359558,0.00680542,-0.99581909,0.061035,0.183105,-0.122070
873661166,0.01359558,0.00680542,-0.99581909,0.122070,0.244141,-0.061035
878716125,0.01354980,0.00634766,-0.99633789,0.122070,0.244141,-0.061035
883772833,0.01354980,0.00634766,-0.99633789,0.122070,0.244141,-0.061035
888845083,0.01245117,0.00588989,-0.99577332,0.122070,0.244141,-0.061035
893956083,0.01245117,0.00588989,-0.99577332,0.183105,0.183105,-0.061035
899033125,0.01300049,0.00471497,-0.99468994,0.183105,0.183105,-0.061035
904098166,0.01300049,0.00471497,-0.99468994,0.122070,0.244141,0.000000
909162666,0.01402283,0.00308228,-0.99546814,0.122070,0.244141,0.000000
914224166,0.01402283,0.00308228,-0.99546814,0.122070,0.183105,-0.061035
919295916,0.01504517,0.00108337,-0.99563599,0.122070,0.183105,-0.061035
924376291,0.01504517,0.00108337,-0.99563599,0.061035,0.244141,-0.061035
926916125,0.01481628,0.00056458,-0.99531555,0.061035,0.244141,-0.061035
934509708,0.01481628,0.00056458,-0.99531555,0.000000,0.183105,-0.061035
937052666,0.01351929,0.00000000,-0.99581909,0.000000,0.183105,-0.061035
944631333,0.01351929,0.00000000,-0.99581909,0.183105,0.305176,-0.183105
947165708,0.01388550,0.00010681,-0.99531555,0.183105,0.305176,-0.183105
954741083,0.01388550,0.00010681,-0.99531555,0.122070,0.183105,-0.122070
957285500,0.01292419,0.00170898,-0.99438477,0.122070,0.183105,-0.122070
964873875,0.01292419,0.00170898,-0.99438477,-0.061035,0.183105,-0.122070
967420458,0.01226807,0.00259399,-0.99467468,-0.061035,0.183105,-0.122070
975012250,0.01226807,0.00259399,-0.99467468,-0.122070,0.183105,-0.183105
977551750,0.01188660,0.00402832,-0.99514771,-0.122070,0.183105,-0.183105
985148375,0.01188660,0.00402832,-0.99514771,-0.244141,0.061035,-0.122070
987682916,0.01258850,0.00593567,-0.99522400,-0.244141,0.061035,-0.122070
995261625,0.01258850,0.00593567,-0.99522400,-0.061035,0.244141,-0.061035
997810833,0.01298523,0.00607300,-0.99572754,-0.061035,0.244141,-0.061035
1005390375,0.01298523,0.00607300,-0.99572754,-0.183105,0.183105,-0.122070
1007932125,0.01496887,0.00563049,-0.99456787,-0.183105,0.183105,-0.122070
1013002583,0.01496887,0.00563049,-0.99456787,-0.122070,0.183105,-0.061035
1018073958,0.01463318,0.00570679,-0.99700928,-0.122070,0.183105,-0.061035
1023147791,0.01463318,0.00570679,-0.99700928,0.000000,0.366211,0.000000
1028210541,0.01287842,0.00537109,-0.99606323,0.000000,0.366211,0.000000
1033265958,0.01287842,0.00537109,-0.99606323,0.000000,0.183105,-0.122070
1038353375,0.01379395,0.00437927,-0.99472046,0.000000,0.183105,-0.122070
1043434666,0.01379395,0.00437927,-0.99472046,0.000000,0.122070,-0.122070
1048497041,0.01441956,0.00233459,-0.99441528,0.000000,0.122070,-0.122070
1053560875,0.01441956,0.00233459,-0.99441528,0.183105,0.183105,-0.183105
1058618166,0.01316833,0.00199890,-0.99443054,0.183105,0.183105,-0.183105
1063675500,0.01316833,0.00199890,-0.99443054,-0.183105,0.244141,-0.244141
1068732833,0.01316833,0.00135803,-0.99330139,-0.183105,0.244141,-0.244141
1073799041,0.01316833,0.00135803,-0.99330139,0.000000,0.122070,-0.122070
1078860750,0.01492310,0.00144958,-0.99809265,0.000000,0.122070,-0.122070
1083919916,0.01492310,0.00144958,-0.99809265,-0.061035,0.305176,-0.122070
1088988708,0.01414490,0.00280762,-0.99417114,-0.061035,0.305176,-0.122070
1094047708,0.01414490,0.00280762,-0.99417114,-0.122070,0.183105,-0.122070
1099110875,0.01336670,0.00427246,-0.99548340,-0.122070,0.183105,-0.122070
1104199416,0.01336670,0.00427246,-0.99548340,-0.061035,0.244141,-0.183105
1109264166,0.01278687,0.00479126,-0.99508667,-0.061035,0.244141,-0.183105
1114342000,0.01278687,0.00479126,-0.99508667,0.122070,0.244141,-0.183105
1119398916,0.01187134,0.00587463,-0.99653625,0.122070,0.244141,-0.183105
1124468375,0.01187134,0.00587463,-0.99653625,0.061035,0.244141,-0.061035
1127006416,0.01269531,0.00666809,-0.99389648,0.061035,0.244141,-0.061035
1134588458,0.01269531,0.00666809,-0.99389648,0.122070,0.183105,-0.183105
1137123250,0.01321411,0.00643921,-0.99494934,0.122070,0.183105,-0.183105
1144708833,0.01321411,0.00643921,-0.99494934,0.122070,0.244141,0.000000
1147246000,0.01321411,0.00605774,-0.99549866,0.122070,0.244141,0.000000
1154860416,0.01321411,0.00605774,-0.99549866,0.061035,0.122070,-0.183105
1157420250,0.01373291,0.00573730,-0.99531555,0.061035,0.122070,-0.183105
1165008583,0.01373291,0.00573730,-0.99531555,0.183105,0.183105,-0.061035
1167549416,0.01429749,0.00424194,-0.99533081,0.183105,0.183105,-0.061035
1175134583,0.01429749,0.00424194,-0.99533081,0.122070,0.244141,-0.122070
1177668916,0.01333618,0.00340271,-0.99456787,0.122070,0.244141,-0.122070
1185245333,0.01333618,0.00340271,-0.99456787,0.122070,0.183105,-0.244141
1187780875,0.01316833,0.00302124,-0.99685669,0.122070,0.183105,-0.244141
1195269625,0.01316833,0.00302124,-0.99685669,0.000000,0.183105,-0.183105
1197810083,0.01295471,0.00376892,-0.99687195,0.000000,0.183105,-0.183105
1205387541,0.01295471,0.00376892,-0.99687195,0.183105,0.183105,-0.122070
1207929291,0.01434326,0.00311279,-0.99536133,0.183105,0.183105,-0.122070
1215552708,0.01434326,0.00311279,-0.99536133,0.122070,0.305176,-0.122070
1218091958,0.01463318,0.00338745,-0.99571228,0.122070,0.305176,-0.122070
1225677875,0.01463318,0.00338745,-0.99571228,0.061035,0.244141,0.000000
1228212958,0.01313782,0.00483704,-0.99563599,0.061035,0.244141,0.000000
1235804083,0.01313782,0.00483704,-0.99563599,0.244141,0.244141,-0.183105
1238342666,0.01345825,0.00596619,-0.99562073,0.244141,0.244141,-0.183105
1245993583,0.01345825,0.00596619,-0.99562073,0.061035,0.427246,0.000000
1248543708,0.01353455,0.00648499,-0.99554443,0.061035,0.427246,0.000000
1256096833,0.01353455,0.00648499,-0.99554443,0.183105,0.244141,-0.122070
1258624708,0.01338196,0.00726318,-0.99604797,0.183105,0.244141,-0.122070
1265928708,0.01338196,0.00726318,-0.99604797,0.122070,0.122070,-0.061035
1268461625,0.01330566,0.00857544,-0.99418640,0.122070,0.122070,-0.061035
1276102875,0.01330566,0.00857544,-0.99418640,0.183105,0.244141,-0.122070
1278641125,0.01292419,0.00675964,-0.99525452,0.183105,0.244141,-0.122070
1286256541,0.01292419,0.00675964,-0.99525452,0.061035,0.305176,-0.061035
1288798000,0.01272583,0.00573730,-0.99488831,0.061035,0.305176,-0.061035
1293903166,0.01272583,0.00573730,-0.99488831,0.244141,0.122070,0.000000
1298976458,0.01229858,0.00471497,-0.99684143,0.244141,0.122070,0.000000
1304049083,0.01229858,0.00471497,-0.99684143,0.000000,0.061035,-0.061035
1309112291,0.01496887,0.00318909,-0.99569702,0.000000,0.061035,-0.061035
1314224041,0.01496887,0.00318909,-0.99569702,0.183105,0.183105,-0.122070
1319286291,0.01513672,0.00245667,-0.99511719,0.183105,0.183105,-0.122070
1324351458,0.01513672,0.00245667,-0.99511719,0.122070,0.244141,-0.061035
1329417375,0.01522827,0.00241089,-0.99574280,0.122070,0.244141,-0.061035
1334476625,0.01522827,0.00241089,-0.99574280,0.183105,0.244141,-0.061035
1339535583,0.01449585,0.00167847,-0.99496460,0.183105,0.244141,-0.061035
1344594625,0.01449585,0.00167847,-0.99496460,0.244141,0.122070,-0.122070
1349658166,0.01339722,0.00079346,-0.99415588,0.244141,0.122070,-0.122070
1354715875,0.01339722,0.00079346,-0.99415588,0.183105,0.305176,-0.061035
1359775208,0.01332092,0.00230408,-0.99433899,0.183105,0.305176,-0.061035
1364890875,0.01332092,0.00230408,-0.99433899,0.122070,0.183105,0.000000
1369945833,0.01425171,0.00373840,-0.99569702,0.122070,0.183105,0.000000
1375030708,0.01425171,0.00373840,-0.99569702,0.061035,0.183105,-0.122070
1380122375,0.01441956,0.00354004,-0.99588013,0.061035,0.183105,-0.122070
1385186958,0.01441956,0.00354004,-0.99588013,0.061035,0.244141,-0.183105
1390246166,0.01295471,0.00546265,-0.99533081,0.061035,0.244141,-0.183105
1395320291,0.01295471,0.00546265,-0.99533081,0.183105,0.183105,-0.122070
1400433208,0.01390076,0.00656128,-0.99533081,0.183105,0.183105,-0.122070
1405495666,0.01390076,0.00656128,-0.99533081,0.244141,0.305176,-0.061035
1408032791,0.01431274,0.00643921,-0.99598694,0.244141,0.305176,-0.061035
1415614791,0.01431274,0.00643921,-0.99598694,0.183105,0.122070,-0.122070
1418150916,0.01364136,0.00527954,-0.99595642,0.183105,0.122070,-0.122070
1425731666,0.01364136,0.00527954,-0.99595642,0.122070,0.183105,-0.122070
1428265916,0.01325989,0.00462341,-0.99597168,0.122070,0.183105,-0.122070
1435848625,0.01325989,0.00462341,-0.99597168,0.122070,0.183105,-0.183105
1438389166,0.01350403,0.00500488,-0.99475098,0.122070,0.183105,-0.183105
1445981541,0.01350403,0.00500488,-0.99475098,0.122070,0.244141,-0.061035
1448522250,0.01353455,0.00451660,-0.99479675,0.122070,0.244141,-0.061035
1456101750,0.01353455,0.00451660,-0.99479675,0.122070,0.244141,-0.061035
1458636666,0.01296997,0.00366211,-0.99464417,0.122070,0.244141,-0.061035
1466214791,0.01296997,0.00366211,-0.99464417,0.000000,0.183105,-0.061035
1468746458,0.01324463,0.00288391,-0.99446106,0.000000,0.183105,-0.061035
1476334666,0.01324463,0.00288391,-0.99446106,0.122070,0.244141,0.000000
1478880958,0.01403809,0.00267029,-0.99525452,0.122070,0.244141,0.000000
1486542916,0.01403809,0.00267029,-0.99525452,0.000000,0.244141,-0.122070
1489079583,0.01412964,0.00263977,-0.99501038,0.000000,0.244141,-0.122070
1494137583,0.01412964,0.00263977,-0.99501038,0.122070,0.305176,-0.183105
1499196166,0.01466370,0.00288391,-0.99493408,0.122070,0.305176,-0.183105
1504257125,0.01466370,0.00288391,-0.99493408,0.061035,0.305176,-0.183105
1509322625,0.01376343,0.00314331,-0.99348450,0.061035,0.305176,-0.183105
1514391083,0.01376343,0.00314331,-0.99348450,0.183105,0.244141,-0.244141
1519460625,0.01356506,0.00289917,-0.99565125,0.183105,0.244141,-0.244141
1524519125,0.01356506,0.00289917,-0.99565125,0.244141,0.183105,0.000000
1529578500,0.01451111,0.00488281,-0.99519348,0.244141,0.183105,0.000000
1534643541,0.01451111,0.00488281,-0.99519348,-0.061035,0.122070,-0.183105
1539714125,0.01374817,0.00479126,-0.99568176,-0.061035,0.122070,-0.183105
1544780125,0.01374817,0.00479126,-0.99568176,0.061035,0.244141,-0.122070
1549838791,0.01387024,0.00428772,-0.99539185,0.061035,0.244141,-0.122070
1554899583,0.01387024,0.00428772,-0.99539185,0.061035,0.183105,-0.122070
1559957916,0.01376343,0.00473022,-0.99488831,0.061035,0.183105,-0.122070
1565020958,0.01376343,0.00473022,-0.99488831,0.061035,0.122070,-0.183105
1570078000,0.01278687,0.00469971,-0.99530029,0.061035,0.122070,-0.183105
1574828250,0.01278687,0.00469971,-0.99530029,0.061035,0.122070,-0.122070
1579888750,0.01338196,0.00358582,-0.99658203,0.061035,0.122070,-0.122070
1584984833,0.01338196,0.00358582,-0.99658203,0.183105,0.061035,0.000000
1590062958,0.01365662,0.00366211,-0.99536133,0.183105,0.061035,0.000000
1595136583,0.01365662,0.00366211,-0.99536133,0.122070,0.244141,-0.122070
1600202833,0.01319885,0.00335693,-0.99540710,0.122070,0.244141,-0.122070
1605266166,0.01319885,0.00335693,-0.99540710,0.183105,0.244141,-0.061035
1610325416,0.01387024,0.00354004,-0.99578857,0.183105,0.244141,-0.061035
1615390833,0.01387024,0.00354004,-0.99578857,0.061035,0.183105,-0.122070
1620468000,0.01371765,0.00276184,-0.99630737,0.061035,0.183105,-0.122070
1625642541,0.01371765,0.00276184,-0.99630737,0.183105,0.305176,-0.122070
1628196208,0.01402283,0.00268555,-0.99522400,0.183105,0.305176,-0.122070
1635834250,0.01402283,0.00268555,-0.99522400,0.122070,0.244141,-0.122070
1638404541,0.01406860,0.00321960,-0.99549866,0.122070,0.244141,-0.122070
1646039750,0.01406860,0.00321960,-0.99549866,0.183105,0.122070,-0.122070
1648601666,0.01345825,0.00376892,-0.99526978,0.183105,0.122070,-0.122070
1656247500,0.01345825,0.00376892,-0.99526978,0.122070,0.183105,-0.183105
1658814375,0.01374817,0.00448608,-0.99516296,0.122070,0.183105,-0.183105
1666475375,0.01374817,0.00448608,-0.99516296,0.061035,0.183105,-0.061035
1669041916,0.01376343,0.00422668,-0.99449158,0.061035,0.183105,-0.061035
1676711541,0.01376343,0.00422668,-0.99449158,0.000000,0.122070,-0.183105
1679280166,0.01431274,0.00418091,-0.99382019,0.000000,0.122070,-0.183105
1686916083,0.01431274,0.00418091,-0.99382019,0.061035,0.122070,0.000000
1689477291,0.01394653,0.00442505,-0.99468994,0.061035,0.122070,0.000000
1697146166,0.01394653,0.00442505,-0.99468994,0.122070,0.244141,-0.061035
1699692875,0.01383972,0.00430298,-0.99600220,0.122070,0.244141,-0.061035
1707314375,0.01383972,0.00430298,-0.99600220,0.000000,0.427246,-0.122070
1709858083,0.01467896,0.00482178,-0.99690247,0.000000,0.427246,-0.122070
1714947291,0.01467896,0.00482178,-0.99690247,0.061035,0.244141,0.061035
1720013375,0.01365662,0.00515747,-0.99548340,0.061035,0.244141,0.061035
1725091708,0.01365662,0.00515747,-0.99548340,0.122070,0.244141,-0.061035
1730154666,0.01350403,0.00340271,-0.99493408,0.122070,0.244141,-0.061035
1735225875,0.01350403,0.00340271,-0.99493408,0.061035,0.244141,-0.122070
1740325166,0.01435852,0.00367737,-0.99436951,0.061035,0.244141,-0.122070
1745404500,0.01435852,0.00367737,-0.99436951,0.061035,0.244141,-0.122070
1750479625,0.01432800,0.00402832,-0.99566650,0.061035,0.244141,-0.122070
1755543541,0.01432800,0.00402832,-0.99566650,0.061035,0.183105,-0.183105
1760602750,0.01394653,0.00201416,-0.99566650,0.061035,0.183105,-0.183105
1765664958,0.01394653,0.00201416,-0.99566650,-0.061035,0.183105,0.061035
1770724041,0.01371765,0.00173950,-0.99388123,-0.061035,0.183105,0.061035
1775802625,0.01371765,0.00173950,-0.99388123,0.122070,0.122070,-0.122070
1780871250,0.01409912,0.00216675,-0.99418640,0.122070,0.122070,-0.122070
1785954833,0.01409912,0.00216675,-0.99418640,0.183105,0.305176,0.000000
1791035208,0.01469421,0.00312805,-0.99447632,0.183105,0.305176,0.000000
1796111416,0.01469421,0.00312805,-0.99447632,0.122070,0.305176,-0.122070
1801171166,0.01501465,0.00289917,-0.99542236,0.122070,0.305176,-0.122070
1806228541,0.01501465,0.00289917,-0.99542236,0.061035,0.244141,-0.122070
1811311333,0.01388550,0.00262451,-0.99613953,0.061035,0.244141,-0.122070
1816401958,0.01388550,0.00262451,-0.99613953,0.122070,0.366211,-0.061035
1818942208,0.01388550,0.00297546,-0.99522400,0.122070,0.366211,-0.061035
1826525791,0.01388550,0.00297546,-0.99522400,0.122070,0.183105,-0.183105
1829062166,0.01428223,0.00529480,-0.99562073,0.122070,0.183105,-0.183105
1836639416,0.01428223,0.00529480,-0.99562073,0.061035,0.122070,-0.061035
1839174625,0.01345825,0.00572205,-0.99632263,0.061035,0.122070,-0.061035
1846754000,0.01345825,0.00572205,-0.99632263,0.061035,0.305176,-0.183105
1849289125,0.01388550,0.00576782,-0.99534607,0.061035,0.305176,-0.183105
1856881625,0.01388550,0.00576782,-0.99534607,0.000000,0.244141,-0.122070
1859424416,0.01417542,0.00587463,-0.99548340,0.000000,0.244141,-0.122070
1867004291,0.01417542,0.00587463,-0.99548340,0.122070,0.183105,-0.122070
1869538208,0.01432800,0.00575256,-0.99490356,0.122070,0.183105,-0.122070
1877119500,0.01432800,0.00575256,-0.99490356,0.061035,0.183105,-0.122070
1879671333,0.01364136,0.00511169,-0.99664307,0.061035,0.183105,-0.122070
1887269833,0.01364136,0.00511169,-0.99664307,0.122070,0.244141,-0.122070
1889823791,0.01393127,0.00357056,-0.99671936,0.122070,0.244141,-0.122070
1897430666,0.01393127,0.00357056,-0.99671936,0.000000,0.244141,-0.183105
1899559333,0.01321411,0.00282288,-0.99467468,0.000000,0.244141,-0.183105
1907160666,0.01321411,0.00282288,-0.99467468,0.183105,0.244141,0.000000
1909701666,0.01286316,0.00292969,-0.99545288,0.183105,0.244141,0.000000
1917351500,0.01286316,0.00292969,-0.99545288,0.122070,0.122070,-0.244141
1919894500,0.01278687,0.00297546,-0.99481201,0.122070,0.122070,-0.244141
1927492583,0.01278687,0.00297546,-0.99481201,0.000000,0.183105,-0.061035
1930040791,0.01351929,0.00358582,-0.99461365,0.000000,0.183105,-0.061035
1935138125,0.01351929,0.00358582,-0.99461365,0.183105,0.244141,-0.122070
1940197375,0.01368713,0.00326538,-0.99497986,0.183105,0.244141,-0.122070
1945257833,0.01368713,0.00326538,-0.99497986,0.061035,0.244141,-0.122070
1950349666,0.01365662,0.00395203,-0.99482727,0.061035,0.244141,-0.122070
1955412583,0.01365662,0.00395203,-0.99482727,0.061035,0.122070,-0.122070
1960379333,0.01356506,0.00382996,-0.99501038,0.061035,0.122070,-0.122070
1965451041,0.01356506,0.00382996,-0.99501038,0.000000,0.183105,-0.122070
1970521625,0.01335144,0.00323486,-0.99420166,0.000000,0.183105,-0.122070
1975587666,0.01335144,0.00323486,-0.99420166,0.183105,0.244141,-0.122070
1980656375,0.01458740,0.00415039,-0.99526978,0.183105,0.244141,-0.122070
1985713875,0.01458740,0.00415039,-0.99526978,0.061035,0.183105,-0.183105
1990784416,0.01354980,0.00389099,-0.99496460,0.061035,0.183105,-0.183105
1995863625,0.01354980,0.00389099,-0.99496460,0.061035,0.244141,-0.122070
2000934166,0.01394653,0.00386047,-0.99479675,0.061035,0.244141,-0.122070
2006000625,0.01394653,0.00386047,-0.99479675,0.244141,0.305176,-0.122070
2011058041,0.01431274,0.00337219,-0.99533081,0.244141,0.305176,-0.122070
2016116916,0.01431274,0.00337219,-0.99533081,-0.061035,0.122070,0.000000
2021175416,0.01345825,0.00337219,-0.99514771,-0.061035,0.122070,0.000000
2026234833,0.01345825,0.00337219,-0.99514771,0.000000,0.244141,-0.061035
2031292500,0.01368713,0.00439453,-0.99478149,0.000000,0.244141,-0.061035
2036359666,0.01368713,0.00439453,-0.99478149,0.122070,0.061035,-0.122070
2041437333,0.01345825,0.00401306,-0.99563599,0.122070,0.061035,-0.122070
2046513875,0.01345825,0.00401306,-0.99563599,0.061035,0.122070,-0.244141
2051620166,0.01358032,0.00361633,-0.99575806,0.061035,0.122070,-0.244141
2056678833,0.01358032,0.00361633,-0.99575806,0.061035,0.183105,-0.183105
2059213416,0.01284790,0.00411987,-0.99575806,0.061035,0.183105,-0.183105
2066798750,0.01284790,0.00411987,-0.99575806,0.000000,0.183105,-0.122070
2069365458,0.01377869,0.00462341,-0.99525452,0.000000,0.183105,-0.122070
2076953250,0.01377869,0.00462341,-0.99525452,0.061035,0.244141,-0.183105
2079490375,0.01438904,0.00404358,-0.99501038,0.061035,0.244141,-0.183105
2087073750,0.01438904,0.00404358,-0.99501038,0.000000,0.183105,-0.061035
2089609583,0.01373291,0.00439453,-0.99613953,0.000000,0.183105,-0.061035
2097188750,0.01373291,0.00439453,-0.99613953,0.000000,0.244141,-0.122070
2099722958,0.01313782,0.00413513,-0.99627686,0.000000,0.244141,-0.122070
2107300500,0.01313782,0.00413513,-0.99627686,0.122070,0.244141,-0.061035
2109834916,0.01385498,0.00410461,-0.99502563,0.122070,0.244141,-0.061035
2117432875,0.01385498,0.00410461,-0.99502563,0.061035,0.061035,-0.122070
2119982041,0.01473999,0.00422668,-0.99604797,0.061035,0.061035,-0.122070
2127566458,0.01473999,0.00422668,-0.99604797,0.000000,0.122070,-0.183105
2130109166,0.01396179,0.00384521,-0.99609375,0.000000,0.122070,-0.183105
2137826083,0.01396179,0.00384521,-0.99609375,0.122070,0.183105,-0.122070
2140379333,0.01312256,0.00363159,-0.99639893,0.122070,0.183105,-0.122070
2147982500,0.01312256,0.00363159,-0.99639893,0.000000,0.122070,-0.183105
2150548375,0.01330566,0.00341797,-0.99554443,0.000000,0.122070,-0.183105
2158144375,0.01330566,0.00341797,-0.99554443,0.061035,0.183105,-0.122070
2160683750,0.01385498,0.00399780,-0.99482727,0.061035,0.183105,-0.122070
2168264375,0.01385498,0.00399780,-0.99482727,0.183105,0.061035,-0.061035
2170813500,0.01431274,0.00300598,-0.99435425,0.183105,0.061035,-0.061035
2175874333,0.01431274,0.00300598,-0.99435425,0.061035,0.183105,-0.122070
2180963666,0.01393127,0.00257874,-0.99554443,0.061035,0.183105,-0.122070
2186045333,0.01393127,0.00257874,-0.99554443,-0.061035,0.244141,-0.061035
2191139166,0.01287842,0.00355530,-0.99520874,-0.061035,0.244141,-0.061035
2196212250,0.01287842,0.00355530,-0.99520874,0.122070,0.244141,-0.122070
2201281000,0.01341248,0.00370789,-0.99617004,0.122070,0.244141,-0.122070
2206348416,0.01341248,0.00370789,-0.99617004,0.183105,0.122070,-0.061035
2211432083,0.01486206,0.00402832,-0.99621582,0.183105,0.122070,-0.061035
2216493916,0.01486206,0.00402832,-0.99621582,0.183105,0.122070,-0.183105
2221556333,0.01364136,0.00422668,-0.99523926,0.183105,0.122070,-0.183105
2226616750,0.01364136,0.00422668,-0.99523926,0.061035,0.183105,-0.244141
2231682250,0.01387024,0.00352478,-0.99595642,0.061035,0.183105,-0.244141
2236748000,0.01387024,0.00352478,-0.99595642,0.000000,0.183105,-0.183105
2241730958,0.01287842,0.00390625,-0.99473572,0.000000,0.183105,-0.183105
2246794625,0.01287842,0.00390625,-0.99473572,0.122070,0.122070,-0.183105
2251862833,0.01419067,0.00363159,-0.99479675,0.122070,0.122070,-0.183105
2256943125,0.01419067,0.00363159,-0.99479675,0.061035,0.244141,0.000000
2262083541,0.01387024,0.00350952,-0.99662781,0.061035,0.244141,0.000000
2267154750,0.01387024,0.00350952,-0.99662781,0.061035,0.122070,-0.183105
2272214541,0.01274109,0.00477600,-0.99729919,0.061035,0.122070,-0.183105
2277281250,0.01274109,0.00477600,-0.99729919,0.122070,0.244141,-0.061035
2282349541,0.01306152,0.00454712,-0.99479675,0.122070,0.244141,-0.061035
2287425750,0.01306152,0.00454712,-0.99479675,0.183105,0.305176,-0.122070
2289963791,0.01281738,0.00457764,-0.99473572,0.183105,0.305176,-0.122070
2297554958,0.01281738,0.00457764,-0.99473572,0.000000,0.122070,-0.183105
2300100833,0.01350403,0.00413513,-0.99562073,0.000000,0.122070,-0.183105
2307696250,0.01350403,0.00413513,-0.99562073,0.061035,0.244141,-0.061035
2310231208,0.01350403,0.00399780,-0.99566650,0.061035,0.244141,-0.061035
2317810458,0.01350403,0.00399780,-0.99566650,0.000000,0.183105,0.000000
2320345708,0.01383972,0.00367737,-0.99635315,0.000000,0.183105,0.000000
2327950458,0.01383972,0.00367737,-0.99635315,0.122070,0.183105,-0.122070
2330493333,0.01406860,0.00384521,-0.99432373,0.122070,0.183105,-0.122070
2338079875,0.01406860,0.00384521,-0.99432373,0.183105,0.244141,-0.122070
2340615166,0.01377869,0.00381470,-0.99400330,0.183105,0.244141,-0.122070
2348196666,0.01377869,0.00381470,-0.99400330,0.061035,0.244141,0.000000
2350732541,0.01521301,0.00291443,-0.99449158,0.061035,0.244141,0.000000
2358312041,0.01521301,0.00291443,-0.99449158,0.061035,0.305176,-0.122070
2360846125,0.01466370,0.00236511,-0.99569702,0.061035,0.305176,-0.122070
2368447041,0.01466370,0.00236511,-0.99569702,0.183105,0.244141,-0.061035
2370984791,0.01321411,0.00204468,-0.99642944,0.183105,0.244141,-0.061035
2376075875,0.01321411,0.00204468,-0.99642944,0.061035,0.183105,-0.122070
2381142916,0.01240540,0.00326538,-0.99546814,0.061035,0.183105,-0.122070
2386201791,0.01240540,0.00326538,-0.99546814,-0.061035,0.183105,-0.244141
2391259291,0.01364136,0.00372314,-0.99574280,-0.061035,0.183105,-0.244141
2396319541,0.01364136,0.00372314,-0.99574280,0.061035,0.183105,-0.061035
2401388708,0.01458740,0.00390625,-0.99536133,0.061035,0.183105,-0.061035
2406388083,0.01458740,0.00390625,-0.99536133,0.122070,0.244141,-0.061035
2411452875,0.01301575,0.00477600,-0.99511719,0.122070,0.244141,-0.061035
2416516666,0.01301575,0.00477600,-0.99511719,0.122070,0.061035,-0.183105
2421583125,0.01373291,0.00492859,-0.99623108,0.122070,0.061035,-0.183105
2426641458,0.01373291,0.00492859,-0.99623108,0.000000,0.122070,-0.122070
2431696166,0.01512146,0.00433350,-0.99571228,0.000000,0.122070,-0.122070
2436751166,0.01512146,0.00433350,-0.99571228,0.000000,0.305176,0.000000
2441808708,0.01330566,0.00372314,-0.99482727,0.000000,0.305176,0.000000
2446925458,0.01330566,0.00372314,-0.99482727,0.061035,0.183105,-0.061035
2451992541,0.01380920,0.00379944,-0.99575806,0.061035,0.183105,-0.061035
2457049208,0.01380920,0.00379944,-0.99575806,0.061035,0.183105,-0.122070
2462106208,0.01502991,0.00363159,-0.99522400,0.061035,0.183105,-0.122070
2467165958,0.01502991,0.00363159,-0.99522400,0.061035,0.183105,-0.061035
2472223708,0.01400757,0.00378418,-0.99433899,0.061035,0.183105,-0.061035
2477292541,0.01400757,0.00378418,-0.99433899,0.122070,0.366211,-0.061035
2482357000,0.01411438,0.00410461,-0.99534607,0.122070,0.366211,-0.061035
2487434625,0.01411438,0.00410461,-0.99534607,0.061035,0.244141,0.000000
2492524375,0.01406860,0.00366211,-0.99516296,0.061035,0.244141,0.000000
2497593833,0.01406860,0.00366211,-0.99516296,0.122070,0.061035,-0.122070
2502659833,0.01370239,0.00332642,-0.99517822,0.122070,0.061035,-0.122070
2507723708,0.01370239,0.00332642,-0.99517822,0.061035,0.244141,-0.122070
2510258750,0.01362610,0.00292969,-0.99566650,0.061035,0.244141,-0.122070
2517875875,0.01362610,0.00292969,-0.99566650,0.061035,0.244141,0.000000
2520415208,0.01350403,0.00296021,-0.99484253,0.061035,0.244141,0.000000
2528013208,0.01350403,0.00296021,-0.99484253,0.122070,0.061035,-0.183105
2530559791,0.01380920,0.00381470,-0.99563599,0.122070,0.061035,-0.183105
2538138958,0.01380920,0.00381470,-0.99563599,0.000000,0.122070,-0.244141
2540673583,0.01373291,0.00340271,-0.99586487,0.000000,0.122070,-0.244141
2548254041,0.01373291,0.00340271,-0.99586487,0.122070,0.122070,-0.061035
2550805958,0.01338196,0.00285339,-0.99496460,0.122070,0.122070,-0.061035
2558390875,0.01338196,0.00285339,-0.99496460,0.000000,0.183105,-0.183105
2560925958,0.01332092,0.00444031,-0.99598694,0.000000,0.183105,-0.183105
2568532000,0.01332092,0.00444031,-0.99598694,0.061035,0.244141,-0.061035
2571068041,0.01286316,0.00425720,-0.99465942,0.061035,0.244141,-0.061035
2578569958,0.01286316,0.00425720,-0.99465942,0.061035,0.244141,-0.122070
2581113666,0.01307678,0.00428772,-0.99481201,0.061035,0.244141,-0.122070
2588714625,0.01307678,0.00428772,-0.99481201,0.183105,0.305176,-0.122070
2591275500,0.01327515,0.00384521,-0.99531555,0.183105,0.305176,-0.122070
2598876333,0.01327515,0.00384521,-0.99531555,0.061035,0.183105,-0.061035
2601435791,0.01272583,0.00361633,-0.99546814,0.061035,0.183105,-0.061035
2609114000,0.01272583,0.00361633,-0.99546814,0.122070,0.183105,-0.061035
2611661416,0.01380920,0.00325012,-0.99484253,0.122070,0.183105,-0.061035
2619250333,0.01380920,0.00325012,-0.99484253,0.122070,0.244141,-0.122070
2621807708,0.01440430,0.00445557,-0.99487305,0.122070,0.244141,-0.122070
2629397333,0.01440430,0.00445557,-0.99487305,0.183105,0.122070,-0.183105
2631937791,0.01319885,0.00451660,-0.99578857,0.183105,0.122070,-0.183105
2637008583,0.01319885,0.00451660,-0.99578857,0.122070,0.244141,-0.061035
2642096125,0.01339722,0.00465393,-0.99609375,0.122070,0.244141,-0.061035
2647162416,0.01339722,0.00465393,-0.99609375,0.183105,0.244141,-0.183105
2652235458,0.01390076,0.00341797,-0.99531555,0.183105,0.244141,-0.183105
2657297166,0.01390076,0.00341797,-0.99531555,0.000000,0.122070,0.000000
2662385125,0.01307678,0.00341797,-0.99479675,0.000000,0.122070,0.000000
2667458666,0.01307678,0.00341797,-0.99479675,0.000000,0.061035,-0.122070
2672523125,0.01399231,0.00346375,-0.99400330,0.000000,0.061035,-0.122070
2677586000,0.01399231,0.00346375,-0.99400330,0.061035,0.244141,-0.061035
2682644166,0.01397705,0.00321960,-0.99507141,0.061035,0.244141,-0.061035
2687702625,0.01397705,0.00321960,-0.99507141,0.122070,0.305176,-0.183105
2692758625,0.01455688,0.00415039,-0.99459839,0.122070,0.305176,-0.183105
2697819958,0.01455688,0.00415039,-0.99459839,0.000000,0.244141,0.000000
2702882916,0.01420593,0.00331116,-0.99555969,0.000000,0.244141,0.000000
2707979708,0.01420593,0.00331116,-0.99555969,0.122070,0.183105,0.000000
2713052041,0.01277161,0.00361633,-0.99601746,0.122070,0.183105,0.000000
2718135958,0.01277161,0.00361633,-0.99601746,0.061035,0.183105,-0.122070
2723191958,0.01412964,0.00366211,-0.99490356,0.061035,0.183105,-0.122070
2728262750,0.01412964,0.00366211,-0.99490356,-0.061035,0.183105,-0.061035
2733327625,0.01399231,0.00248718,-0.99577332,-0.061035,0.183105,-0.061035
2738394625,0.01399231,0.00248718,-0.99577332,0.183105,0.183105,-0.183105
2740930333,0.01388550,0.00282288,-0.99563599,0.183105,0.183105,-0.183105
2748522708,0.01388550,0.00282288,-0.99563599,0.061035,0.122070,-0.061035
2751059375,0.01333618,0.00355530,-0.99470520,0.061035,0.122070,-0.061035
2758638875,0.01333618,0.00355530,-0.99470520,0.122070,0.183105,-0.122070
2761174625,0.01361084,0.00311279,-0.99508667,0.122070,0.183105,-0.122070
2768756000,0.01361084,0.00311279,-0.99508667,0.061035,0.183105,-0.122070
2771302125,0.01361084,0.00395203,-0.99526978,0.061035,0.183105,-0.122070
2778882666,0.01361084,0.00395203,-0.99526978,0.122070,0.244141,0.061035
2781418541,0.01477051,0.00366211,-0.99493408,0.122070,0.244141,0.061035
2789008333,0.01477051,0.00366211,-0.99493408,0.122070,0.183105,-0.122070
2791541916,0.01422119,0.00321960,-0.99491882,0.122070,0.183105,-0.122070
2799056458,0.01422119,0.00321960,-0.99491882,0.122070,0.244141,-0.122070
2801592375,0.01338196,0.00360107,-0.99560547,0.122070,0.244141,-0.122070
2809175666,0.01338196,0.00360107,-0.99560547,0.061035,0.305176,-0.183105
2811709541,0.01367188,0.00477600,-0.99636841,0.061035,0.305176,-0.183105
2819286833,0.01367188,0.00477600,-0.99636841,0.183105,0.122070,-0.244141
2821823125,0.01307678,0.00343323,-0.99607849,0.183105,0.122070,-0.244141
2829406291,0.01307678,0.00343323,-0.99607849,0.061035,0.183105,-0.122070
2831940083,0.01368713,0.00285339,-0.99635315,0.061035,0.183105,-0.122070
2839540875,0.01368713,0.00285339,-0.99635315,-0.061035,0.305176,-0.183105
2842094083,0.01394653,0.00398254,-0.99530029,-0.061035,0.305176,-0.183105
2847196458,0.01394653,0.00398254,-0.99530029,0.000000,0.305176,-0.183105
2852279333,0.01388550,0.00390625,-0.99404907,0.000000,0.305176,-0.183105
2857345875,0.01388550,0.00390625,-0.99404907,0.061035,0.244141,-0.122070
2862406666,0.01354980,0.00413513,-0.99569702,0.061035,0.244141,-0.122070
2867465833,0.01354980,0.00413513,-0.99569702,0.061035,0.305176,-0.183105
2872537833,0.01296997,0.00448608,-0.99559021,0.061035,0.305176,-0.183105
2877601583,0.01296997,0.00448608,-0.99559021,0.122070,0.305176,-0.061035
2882663125,0.01396179,0.00415039,-0.99510193,0.122070,0.305176,-0.061035
2887750875,0.01396179,0.00415039,-0.99510193,0.061035,0.183105,-0.061035
2892811250,0.01432800,0.00436401,-0.99560547,0.061035,0.183105,-0.061035
2897875166,0.01432800,0.00436401,-0.99560547,0.122070,0.183105,-0.183105
2902948333,0.01431274,0.00331116,-0.99569702,0.122070,0.183105,-0.183105
2908015625,0.01431274,0.00331116,-0.99569702,0.244141,0.244141,-0.244141
2913073583,0.01423645,0.00314331,-0.99461365,0.244141,0.244141,-0.244141
2918139541,0.01423645,0.00314331,-0.99461365,0.183105,0.183105,-0.061035
2923199875,0.01335144,0.00361633,-0.99394226,0.183105,0.183105,-0.061035
2928257250,0.01335144,0.00361633,-0.99394226,-0.061035,0.305176,-0.122070
2933313375,0.01432800,0.00418091,-0.99482727,-0.061035,0.305176,-0.122070
2938370125,0.01432800,0.00418091,-0.99482727,0.061035,0.244141,-0.122070
2943440458,0.01463318,0.00224304,-0.99578857,0.061035,0.244141,-0.122070
2948500166,0.01463318,0.00224304,-0.99578857,0.000000,0.305176,-0.122070
2953558750,0.01287842,0.00302124,-0.99458313,0.000000,0.305176,-0.122070
2958616333,0.01287842,0.00302124,-0.99458313,0.000000,0.183105,-0.061035
2961216041,0.01348877,0.00405884,-0.99502563,0.000000,0.183105,-0.061035
2968839500,0.01348877,0.00405884,-0.99502563,0.061035,0.122070,-0.061035
2971384583,0.01435852,0.00376892,-0.99612427,0.061035,0.122070,-0.061035
2978969708,0.01435852,0.00376892,-0.99612427,0.183105,0.244141,-0.061035
2981518250,0.01441956,0.00265503,-0.99603271,0.183105,0.244141,-0.061035
2989128750,0.01441956,0.00265503,-0.99603271,0.183105,0.061035,-0.061035
2991681583,0.01426697,0.00405884,-0.99494934,0.183105,0.061035,-0.061035
2999263250,0.01426697,0.00405884,-0.99494934,0.000000,0.183105,-0.183105
3001800250,0.01414490,0.00532532,-0.99583435,0.000000,0.183105,-0.183105
3009377291,0.01414490,0.00532532,-0.99583435,0.122070,0.244141,-0.183105
3011911958,0.01412964,0.00480652,-0.99555969,0.122070,0.244141,-0.183105
3019492000,0.01412964,0.00480652,-0.99555969,-0.061035,0.183105,-0.061035
3022033583,0.01379395,0.00469971,-0.99497986,-0.061035,0.183105,-0.061035
3029620291,0.01379395,0.00469971,-0.99497986,0.122070,0.305176,0.000000
3032156875,0.01248169,0.00364685,-0.99523926,0.122070,0.305176,0.000000
3039762416,0.01248169,0.00364685,-0.99523926,0.061035,0.122070,-0.061035
3042296125,0.01380920,0.00381470,-0.99494934,0.061035,0.122070,-0.061035
3049890541,0.01380920,0.00381470,-0.99494934,0.000000,0.183105,-0.061035
3052435166,0.01504517,0.00392151,-0.99491882,0.000000,0.183105,-0.061035
3060046333,0.01504517,0.00392151,-0.99491882,0.061035,0.305176,-0.122070
3062597875,0.01359558,0.00415039,-0.99432373,0.061035,0.305176,-0.122070
3070194375,0.01359558,0.00415039,-0.99432373,-0.061035,0.244141,-0.183105
3072733791,0.01406860,0.00448608,-0.99525452,-0.061035,0.244141,-0.183105
3080315250,0.01406860,0.00448608,-0.99525452,0.061035,0.122070,-0.061035
3082858041,0.01472473,0.00405884,-0.99502563,0.061035,0.122070,-0.061035
3087926375,0.01472473,0.00405884,-0.99502563,0.122070,0.305176,-0.061035
3093013166,0.01416016,0.00311279,-0.99513245,0.122070,0.305176,-0.061035
3098069708,0.01416016,0.00311279,-0.99513245,-0.061035,0.183105,-0.122070
3103129250,0.01351929,0.00354004,-0.99514771,-0.061035,0.183105,-0.122070
3108196083,0.01351929,0.00354004,-0.99514771,0.122070,0.244141,-0.061035
3113253625,0.01289368,0.00311279,-0.99497986,0.122070,0.244141,-0.061035
3118322541,0.01289368,0.00311279,-0.99497986,0.183105,0.183105,-0.183105
3123377583,0.01344299,0.00361633,-0.99453735,0.183105,0.183105,-0.183105
3128447000,0.01344299,0.00361633,-0.99453735,0.061035,0.183105,-0.061035
3133503291,0.01364136,0.00286865,-0.99501038,0.061035,0.183105,-0.061035
3138560708,0.01364136,0.00286865,-0.99501038,0.122070,0.244141,-0.122070
3143619541,0.01405334,0.00257874,-0.99551392,0.122070,0.244141,-0.122070
3148688458,0.01405334,0.00257874,-0.99551392,0.000000,0.122070,-0.122070
3153747791,0.01382446,0.00300598,-0.99531555,0.000000,0.122070,-0.122070
3158810541,0.01382446,0.00300598,-0.99531555,0.000000,0.183105,-0.183105
3163550791,0.01397705,0.00347900,-0.99534607,0.000000,0.183105,-0.183105
3168612541,0.01397705,0.00347900,-0.99534607,0.183105,0.122070,-0.122070
3173706041,0.01380920,0.00454712,-0.99534607,0.183105,0.122070,-0.122070
3178706958,0.01380920,0.00454712,-0.99534607,0.061035,0.183105,-0.061035
3183752541,0.01408386,0.00428772,-0.99540710,0.061035,0.183105,-0.061035
3188793083,0.01408386,0.00428772,-0.99540710,0.061035,0.122070,-0.122070
3193857791,0.01390076,0.00442505,-0.99653625,0.061035,0.122070,-0.122070
3198920833,0.01390076,0.00442505,-0.99653625,0.122070,0.244141,-0.061035
3203988000,0.01371765,0.00411987,-0.99563599,0.122070,0.244141,-0.061035
3209055750,0.01371765,0.00411987,-0.99563599,0.000000,0.183105,-0.122070
3214127291,0.01322937,0.00469971,-0.99455261,0.000000,0.183105,-0.122070
3218956000,0.01322937,0.00469971,-0.99455261,-0.061035,0.244141,-0.183105
3224007750,0.01382446,0.00428772,-0.99519348,-0.061035,0.244141,-0.183105
3229065375,0.01382446,0.00428772,-0.99519348,0.122070,0.183105,-0.122070
3234130875,0.01364136,0.00471497,-0.99494934,0.122070,0.183105,-0.122070
3239210875,0.01364136,0.00471497,-0.99494934,0.061035,0.244141,0.000000
3244289333,0.01330566,0.00386047,-0.99493408,0.061035,0.244141,0.000000
3249361000,0.01330566,0.00386047,-0.99493408,0.000000,0.061035,-0.061035
3251902875,0.01283264,0.00302124,-0.99533081,0.000000,0.061035,-0.061035
3259486166,0.01283264,0.00302124,-0.99533081,0.122070,0.183105,-0.061035
3262031291,0.01280212,0.00392151,-0.99516296,0.122070,0.183105,-0.061035
3269617875,0.01280212,0.00392151,-0.99516296,0.183105,0.183105,-0.061035
3272158375,0.01304626,0.00350952,-0.99536133,0.183105,0.183105,-0.061035
3279754416,0.01304626,0.00350952,-0.99536133,0.183105,0.183105,0.000000
3282289958,0.01426697,0.00378418,-0.99542236,0.183105,0.183105,0.000000
3289876375,0.01426697,0.00378418,-0.99542236,0.000000,0.244141,-0.183105
3292421666,0.01374817,0.00450134,-0.99548340,0.000000,0.244141,-0.183105
3300007083,0.01374817,0.00450134,-0.99548340,-0.122070,0.122070,-0.183105
3302541625,0.01416016,0.00410461,-0.99571228,-0.122070,0.122070,-0.183105
3310201833,0.01416016,0.00410461,-0.99571228,0.000000,0.244141,-0.122070
3312738458,0.01287842,0.00326538,-0.99539185,0.000000,0.244141,-0.122070
3320317125,0.01287842,0.00326538,-0.99539185,0.183105,0.122070,-0.122070
3322916291,0.01374817,0.00444031,-0.99542236,0.183105,0.122070,-0.122070
3330505916,0.01374817,0.00444031,-0.99542236,0.061035,0.183105,-0.122070
3333041791,0.01354980,0.00398254,-0.99552917,0.061035,0.183105,-0.122070
3340625833,0.01354980,0.00398254,-0.99552917,0.000000,0.183105,-0.122070
3343173958,0.01310730,0.00453186,-0.99543762,0.000000,0.183105,-0.122070
3348231625,0.01310730,0.00453186,-0.99543762,-0.061035,0.305176,-0.061035
3353298291,0.01431274,0.00433350,-0.99589539,-0.061035,0.305176,-0.061035
3358371416,0.01431274,0.00433350,-0.99589539,-0.061035,0.122070,-0.122070
3363432458,0.01350403,0.00402832,-0.99555969,-0.061035,0.122070,-0.122070
3368488500,0.01350403,0.00402832,-0.99555969,0.122070,0.122070,-0.122070
3373547958,0.01286316,0.00477600,-0.99450684,0.122070,0.122070,-0.122070
3378604875,0.01286316,0.00477600,-0.99450684,0.061035,0.305176,-0.183105
3383669541,0.01379395,0.00454712,-0.99462891,0.061035,0.305176,-0.183105
3388735875,0.01379395,0.00454712,-0.99462891,0.122070,0.244141,-0.122070
3393802708,0.01449585,0.00331116,-0.99542236,0.122070,0.244141,-0.122070
3401275416,0.01449585,0.00331116,-0.99542236,0.061035,0.244141,-0.122070
3403823000,0.01405334,0.00302124,-0.99536133,0.061035,0.244141,-0.122070
3408912750,0.01405334,0.00302124,-0.99536133,0.000000,0.244141,0.000000
3414005208,0.01446533,0.00308228,-0.99511719,0.000000,0.244141,0.000000
3419062166,0.01446533,0.00308228,-0.99511719,0.061035,0.183105,-0.061035
3424129750,0.01448059,0.00299072,-0.99551392,0.061035,0.183105,-0.061035
3429186333,0.01448059,0.00299072,-0.99551392,0.061035,0.305176,-0.244141
3434242375,0.01408386,0.00433350,-0.99586487,0.061035,0.305176,-0.244141
3439298458,0.01408386,0.00433350,-0.99586487,0.122070,0.183105,-0.183105
3444372500,0.01350403,0.00453186,-0.99522400,0.122070,0.183105,-0.183105
3449452166,0.01350403,0.00453186,-0.99522400,-0.061035,0.061035,0.000000
3454517375,0.01454163,0.00354004,-0.99472046,-0.061035,0.061035,0.000000
3459573625,0.01454163,0.00354004,-0.99472046,-0.061035,0.183105,-0.122070
3464634958,0.01307678,0.00379944,-0.99542236,-0.061035,0.183105,-0.122070
3469704458,0.01307678,0.00379944,-0.99542236,-0.061035,0.244141,-0.122070
3474820583,0.01261902,0.00483704,-0.99624634,-0.061035,0.244141,-0.122070
3479876125,0.01261902,0.00483704,-0.99624634,0.122070,0.183105,-0.061035
3482412083,0.01339722,0.00376892,-0.99530029,0.122070,0.183105,-0.061035
3490004166,0.01339722,0.00376892,-0.99530029,0.122070,0.305176,-0.122070
3492565833,0.01380920,0.00347900,-0.99580383,0.122070,0.305176,-0.122070
3500160791,0.01380920,0.00347900,-0.99580383,0.000000,0.183105,-0.183105
3502703583,0.01242065,0.00273132,-0.99594116,0.000000,0.183105,-0.183105
3510300458,0.01242065,0.00273132,-0.99594116,0.061035,0.305176,-0.183105
3515379375,0.01307678,0.00334167,-0.99530029,0.061035,0.305176,-0.183105
3520438250,0.01307678,0.00334167,-0.99530029,-0.122070,0.183105,-0.122070
3522972375,0.01365662,0.00358582,-0.99557495,-0.122070,0.183105,-0.122070
3530551333,0.01365662,0.00358582,-0.99557495,0.000000,0.061035,-0.244141
3533089666,0.01434326,0.00335693,-0.99539185,0.000000,0.061035,-0.244141
3540684750,0.01434326,0.00335693,-0.99539185,-0.061035,0.244141,-0.244141
3543232333,0.01422119,0.00373840,-0.99453735,-0.061035,0.244141,-0.244141
3550825541,0.01422119,0.00373840,-0.99453735,-0.061035,0.183105,-0.122070
3553362958,0.01332092,0.00424194,-0.99613953,-0.061035,0.183105,-0.122070
3560963666,0.01332092,0.00424194,-0.99613953,-0.061035,0.122070,0.000000
3563497541,0.01390076,0.00480652,-0.99528503,-0.061035,0.122070,0.000000
3571172750,0.01390076,0.00480652,-0.99528503,0.000000,0.122070,-0.061035
3573716416,0.01327515,0.00419617,-0.99504089,0.000000,0.122070,-0.061035
3578868583,0.01327515,0.00419617,-0.99504089,0.061035,0.366211,-0.122070
3583929375,0.01382446,0.00486755,-0.99548340,0.061035,0.366211,-0.122070
3589007208,0.01382446,0.00486755,-0.99548340,0.000000,0.366211,-0.183105
3594085375,0.01379395,0.00506592,-0.99497986,0.000000,0.366211,-0.183105
3601274666,0.01379395,0.00506592,-0.99497986,0.000000,0.305176,-0.122070
3603862416,0.01350403,0.00608826,-0.99429321,0.000000,0.305176,-0.122070
3608935416,0.01350403,0.00608826,-0.99429321,-0.061035,0.183105,-0.122070
3613994250,0.01277161,0.00549316,-0.99418640,-0.061035,0.183105,-0.122070
3619051041,0.01277161,0.00549316,-0.99418640,0.000000,0.122070,-0.061035
3624113458,0.01376343,0.00407410,-0.99499512,0.000000,0.122070,-0.061035
3629172958,0.01376343,0.00407410,-0.99499512,0.122070,0.244141,-0.061035
3634231208,0.01519775,0.00311279,-0.99404907,0.122070,0.244141,-0.061035
3639303625,0.01519775,0.00311279,-0.99404907,0.061035,0.122070,-0.061035
3644377041,0.01594543,0.00192261,-0.99633789,0.061035,0.122070,-0.061035
3649449875,0.01594543,0.00192261,-0.99633789,-0.061035,0.244141,0.000000
3654508208,0.01507568,0.00166321,-0.99472046,-0.061035,0.244141,0.000000
3659570250,0.01507568,0.00166321,-0.99472046,0.061035,0.244141,-0.122070
3664627333,0.01368713,0.00273132,-0.99490356,0.061035,0.244141,-0.122070
3669694291,0.01368713,0.00273132,-0.99490356,0.061035,0.305176,-0.122070
3674768291,0.01327515,0.00265503,-0.99478149,0.061035,0.305176,-0.122070
3679839708,0.01327515,0.00265503,-0.99478149,0.183105,0.061035,-0.061035
3684899416,0.01451111,0.00285339,-0.99485779,0.183105,0.061035,-0.061035
3689970916,0.01451111,0.00285339,-0.99485779,0.000000,0.305176,-0.061035
3695077583,0.01358032,0.00329590,-0.99589539,0.000000,0.305176,-0.061035
3700177458,0.01358032,0.00329590,-0.99589539,0.061035,0.183105,-0.183105
3705282500,0.01237488,0.00498962,-0.99562073,0.061035,0.183105,-0.183105
3710363041,0.01237488,0.00498962,-0.99562073,0.000000,0.244141,-0.122070
3712899750,0.01309204,0.00593567,-0.99588013,0.000000,0.244141,-0.122070
3720481250,0.01309204,0.00593567,-0.99588013,0.183105,0.183105,-0.061035
3723018583,0.01445007,0.00663757,-0.99574280,0.183105,0.183105,-0.061035
3730608250,0.01445007,0.00663757,-0.99574280,0.183105,0.244141,-0.061035
3733143750,0.01348877,0.00556946,-0.99472046,0.183105,0.244141,-0.061035
3740720208,0.01348877,0.00556946,-0.99472046,0.000000,0.305176,-0.183105
3743255583,0.01432800,0.00503540,-0.99588013,0.000000,0.305176,-0.183105
3750834625,0.01432800,0.00503540,-0.99588013,0.061035,0.183105,-0.061035
3753370291,0.01499939,0.00463867,-0.99586487,0.061035,0.183105,-0.061035
3760980625,0.01499939,0.00463867,-0.99586487,0.061035,0.305176,-0.183105
3763525166,0.01466370,0.00344849,-0.99543762,0.061035,0.305176,-0.183105
3771106166,0.01466370,0.00344849,-0.99543762,0.122070,0.183105,-0.061035
3773640625,0.01396179,0.00224304,-0.99588013,0.122070,0.183105,-0.061035
3781218750,0.01396179,0.00224304,-0.99588013,0.000000,0.122070,-0.183105
3783750750,0.01336670,0.00170898,-0.99623108,0.000000,0.122070,-0.183105
3791355583,0.01336670,0.00170898,-0.99623108,0.061035,0.244141,-0.061035
3793903250,0.01287842,0.00282288,-0.99537659,0.061035,0.244141,-0.061035
3801494875,0.01287842,0.00282288,-0.99537659,0.122070,0.183105,-0.061035
3804036291,0.01361084,0.00408936,-0.99476624,0.122070,0.183105,-0.061035
3811616916,0.01361084,0.00408936,-0.99476624,0.183105,0.183105,-0.183105
3814151625,0.01304626,0.00489807,-0.99603271,0.183105,0.183105,-0.183105
3821734208,0.01304626,0.00489807,-0.99603271,-0.061035,0.122070,-0.183105
3824278625,0.01391602,0.00546265,-0.99433899,-0.061035,0.122070,-0.183105
3829372833,0.01391602,0.00546265,-0.99433899,0.061035,0.183105,-0.122070
3834446250,0.01321411,0.00509644,-0.99438477,0.061035,0.183105,-0.122070
3842035333,0.01321411,0.00509644,-0.99438477,0.183105,0.183105,-0.061035
3844573500,0.01342773,0.00476074,-0.99571228,0.183105,0.183105,-0.061035
3852175208,0.01342773,0.00476074,-0.99571228,0.000000,0.183105,-0.122070
3854709416,0.01429749,0.00407410,-0.99555969,0.000000,0.183105,-0.122070
3862300125,0.01429749,0.00407410,-0.99555969,0.000000,0.122070,-0.244141
3864884875,0.01347351,0.00469971,-0.99592590,0.000000,0.122070,-0.244141
3869963541,0.01347351,0.00469971,-0.99592590,0.122070,0.244141,-0.183105
3875026541,0.01420593,0.00405884,-0.99398804,0.122070,0.244141,-0.183105
3880089416,0.01420593,0.00405884,-0.99398804,0.061035,0.366211,-0.183105
3885143916,0.01449585,0.00337219,-0.99447632,0.061035,0.366211,-0.183105
3890198333,0.01449585,0.00337219,-0.99447632,0.183105,0.244141,-0.122070
3895264791,0.01423645,0.00230408,-0.99537659,0.183105,0.244141,-0.122070
3900320000,0.01423645,0.00230408,-0.99537659,0.122070,0.122070,-0.183105
3905374500,0.01367188,0.00166321,-0.99389648,0.122070,0.122070,-0.183105
3910442583,0.01367188,0.00166321,-0.99389648,0.122070,0.244141,-0.183105
3915505458,0.01445007,0.00193787,-0.99746704,0.122070,0.244141,-0.183105
3920565750,0.01445007,0.00193787,-0.99746704,0.061035,0.366211,-0.061035
3925623083,0.01252747,0.00239563,-0.99363708,0.061035,0.366211,-0.061035
3930681541,0.01252747,0.00239563,-0.99363708,0.061035,0.183105,-0.122070
3935743791,0.01406860,0.00292969,-0.99612427,0.061035,0.183105,-0.122070
3940837041,0.01406860,0.00292969,-0.99612427,0.000000,0.244141,-0.122070
3943376583,0.01411438,0.00411987,-0.99821472,0.000000,0.244141,-0.122070
3950959500,0.01411438,0.00411987,-0.99821472,0.061035,0.244141,-0.122070
3956023000,0.01318359,0.00476074,-0.99351501,0.061035,0.244141,-0.122070
3961081750,0.01318359,0.00476074,-0.99351501,0.122070,0.244141,-0.183105
3966148500,0.01268005,0.00428772,-0.99617004,0.122070,0.244141,-0.183105
3971203958,0.01268005,0.00428772,-0.99617004,0.061035,0.061035,-0.122070
3976258333,0.01223755,0.00434875,-0.99496460,0.061035,0.061035,-0.122070
3981314458,0.01223755,0.00434875,-0.99496460,0.122070,0.061035,-0.122070
3986373500,0.01287842,0.00483704,-0.99494934,0.122070,0.061035,-0.122070
3991432875,0.01287842,0.00483704,-0.99494934,0.061035,0.183105,-0.061035
3996505583,0.01373291,0.00497437,-0.99575806,0.061035,0.183105,-0.061035
4001583083,0.01373291,0.00497437,-0.99575806,0.000000,0.305176,-0.061035
4004116958,0.01303101,0.00500488,-0.99594116,0.000000,0.305176,-0.061035
4011707083,0.01303101,0.00500488,-0.99594116,0.000000,0.244141,-0.122070
4014242208,0.01345825,0.00515747,-0.99617004,0.000000,0.244141,-0.122070
4021820375,0.01345825,0.00515747,-0.99617004,-0.061035,0.183105,-0.122070
4024353541,0.01405334,0.00457764,-0.99510193,-0.061035,0.183105,-0.122070
4031931416,0.01405334,0.00457764,-0.99510193,0.122070,0.244141,-0.061035
4034472750,0.01449585,0.00421143,-0.99420166,0.122070,0.244141,-0.061035
4042055375,0.01449585,0.00421143,-0.99420166,0.122070,0.244141,-0.122070
4044589333,0.01382446,0.00354004,-0.99580383,0.122070,0.244141,-0.122070
4052188875,0.01382446,0.00354004,-0.99580383,0.061035,0.244141,-0.122070
4054747000,0.01457214,0.00283813,-0.99528503,0.061035,0.244141,-0.122070
4062388416,0.01457214,0.00283813,-0.99528503,0.061035,0.305176,-0.183105
4064925208,0.01527405,0.00265503,-0.99497986,0.061035,0.305176,-0.183105
4069985625,0.01527405,0.00265503,-0.99497986,0.061035,0.244141,-0.061035
4075055791,0.01327515,0.00289917,-0.99522400,0.061035,0.244141,-0.061035
4080114666,0.01327515,0.00289917,-0.99522400,0.000000,0.183105,-0.183105
4085172583,0.01219177,0.00325012,-0.99560547,0.000000,0.183105,-0.183105
4090235041,0.01219177,0.00325012,-0.99560547,0.122070,0.244141,-0.061035
4095307166,0.01342773,0.00332642,-0.99447632,0.122070,0.244141,-0.061035
4100378291,0.01342773,0.00332642,-0.99447632,0.122070,0.122070,0.000000
4105436458,0.01419067,0.00372314,-0.99644470,0.122070,0.122070,0.000000
4110500458,0.01419067,0.00372314,-0.99644470,-0.061035,0.183105,-0.122070
4115564375,0.01449585,0.00418091,-0.99679565,-0.061035,0.183105,-0.122070
4120630500,0.01449585,0.00418091,-0.99679565,0.061035,0.305176,-0.061035
4125692416,0.01445007,0.00471497,-0.99623108,0.061035,0.305176,-0.061035
4130763041,0.01445007,0.00471497,-0.99623108,0.122070,0.183105,-0.183105
4135820208,0.01333618,0.00575256,-0.99533081,0.122070,0.183105,-0.183105
4140884000,0.01333618,0.00575256,-0.99533081,0.061035,0.183105,-0.122070
4145994208,0.01391602,0.00581360,-0.99505615,0.061035,0.183105,-0.122070
4151059833,0.01391602,0.00581360,-0.99505615,0.000000,0.244141,0.061035
4156133291,0.01351929,0.00701904,-0.99453735,0.000000,0.244141,0.061035
4161192833,0.01351929,0.00701904,-0.99453735,0.061035,0.305176,0.000000
4166112666,0.01414490,0.00521851,-0.99424744,0.061035,0.305176,0.000000
4171176458,0.01414490,0.00521851,-0.99424744,0.000000,0.305176,-0.061035
4176241875,0.01455688,0.00469971,-0.99511719,0.000000,0.305176,-0.061035
4181227916,0.01455688,0.00469971,-0.99511719,0.000000,0.122070,-0.061035
4186285416,0.01411438,0.00320435,-0.99562073,0.000000,0.122070,-0.061035
4191350125,0.01411438,0.00320435,-0.99562073,-0.122070,0.244141,-0.061035
4193885041,0.01504517,0.00163269,-0.99508667,-0.122070,0.244141,-0.061035
4201491875,0.01504517,0.00163269,-0.99508667,-0.244141,0.244141,-0.122070
4204033625,0.01541138,0.00086975,-0.99499512,-0.244141,0.244141,-0.122070
4211629250,0.01541138,0.00086975,-0.99499512,-0.244141,0.305176,-0.183105
4214195833,0.01458740,0.00161743,-0.99476624,-0.244141,0.305176,-0.183105
4221826083,0.01458740,0.00161743,-0.99476624,-0.183105,0.244141,-0.122070
4224386666,0.01394653,0.00198364,-0.99426270,-0.183105,0.244141,-0.122070
4231973166,0.01394653,0.00198364,-0.99426270,-0.244141,0.122070,-0.244141
4234517666,0.01319885,0.00245667,-0.99684143,-0.244141,0.122070,-0.244141
4242105125,0.01319885,0.00245667,-0.99684143,-0.061035,0.122070,-0.122070
4244651708,0.01286316,0.00315857,-0.99443054,-0.061035,0.122070,-0.122070
4252231083,0.01286316,0.00315857,-0.99443054,-0.305176,0.244141,-0.122070
4254765625,0.01358032,0.00511169,-0.99491882,-0.305176,0.244141,-0.122070
4262352791,0.01358032,0.00511169,-0.99491882,-0.305176,0.244141,-0.122070
4264889833,0.01322937,0.00779724,-0.99545288,-0.305176,0.244141,-0.122070
4272490458,0.01322937,0.00779724,-0.99545288,-0.183105,0.244141,-0.122070
4275037291,0.01217651,0.00938416,-0.99458313,-0.183105,0.244141,-0.122070
4282625541,0.01217651,0.00938416,-0.99458313,-0.061035,0.244141,-0.061035
4285163708,0.01313782,0.00952148,-0.99499512,-0.061035,0.244141,-0.061035
4292767666,0.01313782,0.00952148,-0.99499512,-0.183105,0.122070,-0.061035
4295310291,0.01329041,0.00933838,-0.99476624,-0.183105,0.122070,-0.061035
4302896625,0.01329041,0.00933838,-0.99476624,-0.061035,0.061035,-0.061035
4305431708,0.01403809,0.00839233,-0.99467468,-0.061035,0.061035,-0.061035
4313009458,0.01403809,0.00839233,-0.99467468,-0.061035,0.122070,-0.061035
4315551458,0.01466370,0.00509644,-0.99638367,-0.061035,0.122070,-0.061035
4323133458,0.01466370,0.00509644,-0.99638367,0.061035,0.122070,0.000000
4325665541,0.01467896,0.00205994,-0.99468994,0.061035,0.122070,0.000000
4333245250,0.01467896,0.00205994,-0.99468994,0.000000,0.000000,0.000000
4335778750,0.01457214,0.00079346,-0.99382019,0.000000,0.000000,0.000000
4340875791,0.01457214,0.00079346,-0.99382019,0.122070,0.122070,-0.061035
4345947000,0.01412964,0.00015259,-0.99450684,0.122070,0.122070,-0.061035
4351011750,0.01412964,0.00015259,-0.99450684,0.061035,0.244141,-0.183105
4356072666,0.01370239,0.00013733,-0.99530029,0.061035,0.244141,-0.183105
4361129458,0.01370239,0.00013733,-0.99530029,-0.122070,0.244141,-0.122070
4366186708,0.01210022,0.00152588,-0.99444580,-0.122070,0.244141,-0.122070
4371241083,0.01210022,0.00152588,-0.99444580,0.122070,0.244141,-0.183105
4376296916,0.01303101,0.00268555,-0.99877930,0.122070,0.244141,-0.183105
4381353458,0.01303101,0.00268555,-0.99877930,-0.122070,0.061035,0.000000
4386423750,0.01292419,0.00585938,-0.99188232,-0.122070,0.061035,0.000000
4391511458,0.01292419,0.00585938,-0.99188232,0.183105,0.305176,0.000000
4396570208,0.01287842,0.00613403,-0.99520874,0.183105,0.305176,0.000000
4401652625,0.01287842,0.00613403,-0.99520874,0.061035,0.122070,-0.183105
4406710291,0.01271057,0.00692749,-0.99661255,0.061035,0.122070,-0.183105
4411766750,0.01271057,0.00692749,-0.99661255,0.000000,0.244141,0.000000
4416853625,0.01309204,0.00753784,-0.99519348,0.000000,0.244141,0.000000
4421918208,0.01309204,0.00753784,-0.99519348,0.122070,0.244141,-0.183105
4426981125,0.01394653,0.00627136,-0.99436951,0.122070,0.244141,-0.183105
4432041625,0.01394653,0.00627136,-0.99436951,0.122070,0.061035,0.000000
4437106083,0.01391602,0.00480652,-0.99497986,0.122070,0.061035,0.000000
4442162875,0.01391602,0.00480652,-0.99497986,0.122070,0.122070,-0.183105
4447218750,0.01362610,0.00413513,-0.99673462,0.122070,0.122070,-0.183105
4452288416,0.01362610,0.00413513,-0.99673462,0.000000,0.183105,-0.122070
4454822000,0.01429749,0.00292969,-0.99600220,0.000000,0.183105,-0.122070
4462406000,0.01429749,0.00292969,-0.99600220,0.000000,0.183105,-0.122070
4464939541,0.01484680,0.00178528,-0.99331665,0.000000,0.183105,-0.122070
4472528666,0.01484680,0.00178528,-0.99331665,0.000000,0.244141,0.000000
4475062291,0.01432800,0.00140381,-0.99302673,0.000000,0.244141,0.000000
4482639833,0.01432800,0.00140381,-0.99302673,0.061035,0.122070,-0.061035
4485173083,0.01487732,0.00244141,-0.99545288,0.061035,0.122070,-0.061035
4492770833,0.01487732,0.00244141,-0.99545288,0.122070,0.244141,-0.122070
4495305083,0.01429749,0.00289917,-0.99441528,0.122070,0.244141,-0.122070
4502905541,0.01429749,0.00289917,-0.99441528,0.000000,0.244141,-0.183105
4505442041,0.01351929,0.00315857,-0.99633789,0.000000,0.244141,-0.183105
4513084458,0.01351929,0.00315857,-0.99633789,0.061035,0.122070,-0.061035
4515618875,0.01290894,0.00547791,-0.99584961,0.061035,0.122070,-0.061035
4523211458,0.01290894,0.00547791,-0.99584961,0.000000,0.305176,-0.061035
4525806166,0.01293945,0.00584412,-0.99583435,0.000000,0.305176,-0.061035
4531021958,0.01293945,0.00584412,-0.99583435,0.183105,0.244141,-0.183105
4536114083,0.01327515,0.00558472,-0.99566650,0.183105,0.244141,-0.183105
4541183500,0.01327515,0.00558472,-0.99566650,0.122070,0.183105,-0.061035
4546249958,0.01275635,0.00621033,-0.99568176,0.122070,0.183105,-0.061035
4551310250,0.01275635,0.00621033,-0.99568176,0.183105,0.366211,-0.061035
4556368375,0.01316833,0.00721741,-0.99673462,0.183105,0.366211,-0.061035
4561437416,0.01316833,0.00721741,-0.99673462,0.061035,0.122070,-0.061035
4566505791,0.01458740,0.00674438,-0.99537659,0.061035,0.122070,-0.061035
4571567958,0.01458740,0.00674438,-0.99537659,0.183105,0.244141,-0.122070
4576645208,0.01423645,0.00610352,-0.99429321,0.183105,0.244141,-0.122070
4581724333,0.01423645,0.00610352,-0.99429321,0.061035,0.183105,-0.183105
4586827583,0.01458740,0.00541687,-0.99459839,0.061035,0.183105,-0.183105
4591878583,0.01458740,0.00541687,-0.99459839,0.000000,0.305176,-0.122070
4596956500,0.01498413,0.00437927,-0.99688721,0.000000,0.305176,-0.122070
4602019208,0.01498413,0.00437927,-0.99688721,0.061035,0.366211,-0.061035
4607077041,0.01448059,0.00306702,-0.99467468,0.061035,0.366211,-0.061035
4612131375,0.01448059,0.00306702,-0.99467468,0.183105,0.183105,-0.244141
4617199125,0.01335144,0.00393677,-0.99447632,0.183105,0.183105,-0.244141
4622254083,0.01335144,0.00393677,-0.99447632,0.061035,0.122070,-0.122070
4627316958,0.01368713,0.00308228,-0.99449158,0.061035,0.122070,-0.122070
4632373750,0.01368713,0.00308228,-0.99449158,0.122070,0.122070,-0.183105
4634922208,0.01399231,0.00311279,-0.99586487,0.122070,0.122070,-0.183105
4642533208,0.01399231,0.00311279,-0.99586487,0.244141,0.122070,-0.122070
4645080833,0.01364136,0.00279236,-0.99528503,0.244141,0.122070,-0.122070
4652668916,0.01364136,0.00279236,-0.99528503,0.305176,0.183105,-0.061035
4654972875,0.01408386,0.00372314,-0.99374390,0.305176,0.183105,-0.061035
4662561625,0.01408386,0.00372314,-0.99374390,0.061035,0.122070,-0.183105
4665001708,0.01414490,0.00476074,-0.99490356,0.061035,0.122070,-0.183105
4672581500,0.01414490,0.00476074,-0.99490356,0.183105,0.244141,-0.061035
4677490666,0.01373291,0.00592041,-0.99636841,0.183105,0.244141,-0.061035
4682553458,0.01373291,0.00592041,-0.99636841,0.122070,0.183105,-0.122070
4685094958,0.01405334,0.00640869,-0.99505615,0.122070,0.183105,-0.122070
4692679166,0.01405334,0.00640869,-0.99505615,0.244141,0.183105,-0.061035
4695221458,0.01382446,0.00675964,-0.99577332,0.244141,0.183105,-0.061035
4702821166,0.01382446,0.00675964,-0.99577332,0.122070,0.122070,-0.122070
4705362416,0.01441956,0.00708008,-0.99546814,0.122070,0.122070,-0.122070
4712946208,0.01441956,0.00708008,-0.99546814,0.183105,0.183105,-0.061035
4715490083,0.01524353,0.00607300,-0.99456787,0.183105,0.183105,-0.061035
4723072291,0.01524353,0.00607300,-0.99456787,0.000000,0.183105,0.000000
4725608625,0.01499939,0.00572205,-0.99588013,0.000000,0.183105,0.000000
4733192208,0.01499939,0.00572205,-0.99588013,0.122070,0.122070,-0.061035
4735736000,0.01535034,0.00463867,-0.99386597,0.122070,0.122070,-0.061035
4743318083,0.01535034,0.00463867,-0.99386597,0.122070,0.305176,-0.122070
4745855458,0.01539612,0.00375366,-0.99496460,0.122070,0.305176,-0.122070
4753448208,0.01539612,0.00375366,-0.99496460,0.000000,0.244141,0.000000
4755984291,0.01411438,0.00250244,-0.99530029,0.000000,0.244141,0.000000
4763569416,0.01411438,0.00250244,-0.99530029,0.122070,0.183105,-0.183105
4766108750,0.01356506,0.00306702,-0.99441528,0.122070,0.183105,-0.183105
4773699291,0.01356506,0.00306702,-0.99441528,0.061035,0.122070,-0.122070
4776246833,0.01345825,0.00323486,-0.99591064,0.061035,0.122070,-0.122070
4783828333,0.01345825,0.00323486,-0.99591064,0.000000,0.183105,-0.122070
4786364916,0.01335144,0.00386047,-0.99455261,0.000000,0.183105,-0.122070
4793977041,0.01335144,0.00386047,-0.99455261,0.183105,0.183105,-0.183105
4796524458,0.01301575,0.00300598,-0.99528503,0.183105,0.183105,-0.183105
4804130791,0.01301575,0.00300598,-0.99528503,0.122070,0.122070,0.000000
4806673208,0.01332092,0.00274658,-0.99601746,0.122070,0.122070,0.000000
4814260375,0.01332092,0.00274658,-0.99601746,0.305176,0.122070,-0.122070
4816809250,0.01336670,0.00314331,-0.99554443,0.305176,0.122070,-0.122070
4821875500,0.01336670,0.00314331,-0.99554443,0.244141,-0.061035,-0.244141
4826958958,0.01307678,0.00297546,-0.99453735,0.244141,-0.061035,-0.244141
4832016916,0.01307678,0.00297546,-0.99453735,0.305176,0.000000,-0.183105
4837072250,0.01420593,0.00399780,-0.99150085,0.305176,0.000000,-0.183105
4842126208,0.01420593,0.00399780,-0.99150085,0.366211,0.854492,-0.061035
4847190625,0.01390076,0.00230408,-0.99481201,0.366211,0.854492,-0.061035
4852256291,0.01390076,0.00230408,-0.99481201,0.549316,0.061035,-0.122070
4857334875,0.01461792,0.00329590,-0.99652100,0.549316,0.061035,-0.122070
4862411250,0.01461792,0.00329590,-0.99652100,0.000000,0.000000,-0.061035
4867474291,0.01612854,0.00474548,-0.99450684,0.000000,0.000000,-0.061035
4872544625,0.01612854,0.00474548,-0.99450684,-0.061035,0.061035,-0.183105
4877617583,0.01440430,0.00544739,-1.00128174,-0.061035,0.061035,-0.183105
4882689791,0.01440430,0.00544739,-1.00128174,0.000000,0.305176,-0.183105
4887396083,0.01382446,0.00819397,-0.99661255,0.000000,0.305176,-0.183105
4892480916,0.01382446,0.00819397,-0.99661255,0.061035,0.305176,-0.122070
4897544416,0.01240540,0.01039124,-0.99778748,0.061035,0.305176,-0.122070
4902607458,0.01240540,0.01039124,-0.99778748,0.305176,0.183105,-0.122070
4907670750,0.01271057,0.00987244,-0.99594116,0.305176,0.183105,-0.122070
4912731083,0.01271057,0.00987244,-0.99594116,0.183105,0.305176,-0.061035
4917789416,0.01359558,0.00752258,-0.99409485,0.183105,0.305176,-0.061035
4922845083,0.01359558,0.00752258,-0.99409485,0.305176,0.305176,-0.183105
4927695833,0.01464844,0.00521851,-0.99441528,0.305176,0.305176,-0.183105
4932762208,0.01464844,0.00521851,-0.99441528,0.244141,0.183105,-0.122070
4937878875,0.01388550,0.00225830,-0.99243164,0.244141,0.183105,-0.122070
4942935791,0.01388550,0.00225830,-0.99243164,0.244141,0.183105,-0.183105
4948016916,0.01283264,0.00119019,-0.99530029,0.244141,0.183105,-0.183105
4953085166,0.01283264,0.00119019,-0.99530029,0.366211,0.366211,-0.061035
4958185500,0.01298523,0.00254822,-0.99133301,0.366211,0.366211,-0.061035
4963259625,0.01298523,0.00254822,-0.99133301,0.488281,0.122070,-0.061035
4968321958,0.01252747,0.00379944,-1.00128174,0.488281,0.122070,-0.061035
4973384416,0.01252747,0.00379944,-1.00128174,0.061035,0.061035,-0.122070
4975920791,0.01362610,0.00379944,-0.98928833,0.061035,0.061035,-0.122070
4983526666,0.01362610,0.00379944,-0.98928833,0.305176,0.122070,0.000000
4986073791,0.01475525,0.00404358,-0.99833679,0.305176,0.122070,0.000000
4993660458,0.01475525,0.00404358,-0.99833679,0.122070,0.244141,-0.061035
4996216250,0.01510620,0.00424194,-0.99491882,0.122070,0.244141,-0.061035
5003789666,0.01510620,0.00424194,-0.99491882,0.122070,0.244141,0.000000
5006324916,0.01513672,0.00518799,-0.99563599,0.122070,0.244141,0.000000
5013897708,0.01513672,0.00518799,-0.99563599,0.122070,0.183105,-0.183105
5016438125,0.01412964,0.00550842,-0.99401855,0.122070,0.183105,-0.183105
5024041875,0.01412964,0.00550842,-0.99401855,0.061035,0.244141,-0.183105
5026608500,0.01251221,0.00535583,-0.99563599,0.061035,0.244141,-0.183105
5034197583,0.01251221,0.00535583,-0.99563599,0.122070,0.183105,-0.061035
5036736833,0.01330566,0.00382996,-0.99499512,0.122070,0.183105,-0.061035
5044315375,0.01330566,0.00382996,-0.99499512,0.122070,0.183105,-0.244141
5046849291,0.01414490,0.00177002,-0.99403381,0.122070,0.183105,-0.244141
5054466208,0.01414490,0.00177002,-0.99403381,0.122070,0.122070,-0.061035
5057024125,0.01335144,0.00042725,-0.99534607,0.122070,0.122070,-0.061035
5062109458,0.01335144,0.00042725,-0.99534607,0.183105,0.244141,-0.122070
5067188375,0.01466370,-0.00192261,-0.99551392,0.183105,0.244141,-0.122070
5072258083,0.01466370,-0.00192261,-0.99551392,0.061035,0.183105,-0.244141
5077319250,0.01446533,-0.00152588,-0.99569702,0.061035,0.183105,-0.244141
5082387583,0.01446533,-0.00152588,-0.99569702,0.122070,0.183105,-0.244141
5087453916,0.01387024,0.00102234,-0.99563599,0.122070,0.183105,-0.244141
5092529416,0.01387024,0.00102234,-0.99563599,0.122070,0.183105,-0.244141
5097596708,0.01293945,0.00358582,-0.99586487,0.122070,0.183105,-0.244141
5102664541,0.01293945,0.00358582,-0.99586487,0.061035,0.061035,-0.183105
5107723166,0.01277161,0.00611877,-0.99603271,0.061035,0.061035,-0.183105
5112781083,0.01277161,0.00611877,-0.99603271,0.000000,0.122070,-0.183105
5117845958,0.01229858,0.00776672,-0.99542236,0.000000,0.122070,-0.183105
5122918208,0.01229858,0.00776672,-0.99542236,0.061035,0.183105,-0.122070
5127975875,0.01330566,0.00793457,-0.99562073,0.061035,0.183105,-0.122070
5133043791,0.01330566,0.00793457,-0.99562073,0.000000,0.183105,-0.183105
5138117791,0.01464844,0.00828552,-0.99533081,0.000000,0.183105,-0.183105
5143180833,0.01464844,0.00828552,-0.99533081,0.061035,0.122070,-0.183105
5148240666,0.01527405,0.00796509,-0.99626160,0.061035,0.122070,-0.183105
5153304958,0.01527405,0.00796509,-0.99626160,0.000000,0.183105,-0.061035
5158371000,0.01457214,0.00752258,-0.99456787,0.000000,0.183105,-0.061035
5163451125,0.01457214,0.00752258,-0.99456787,0.122070,0.122070,-0.061035
5168516625,0.01437378,0.00614929,-0.99517822,0.122070,0.122070,-0.061035
5173574541,0.01437378,0.00614929,-0.99517822,-0.061035,0.061035,0.000000
5178635583,0.01449585,0.00500488,-0.99626160,-0.061035,0.061035,0.000000
5183695583,0.01449585,0.00500488,-0.99626160,0.061035,0.244141,-0.183105
5186229500,0.01353455,0.00480652,-0.99618530,0.061035,0.244141,-0.183105
5193849166,0.01353455,0.00480652,-0.99618530,0.122070,0.183105,-0.122070
5196391125,0.01263428,0.00369263,-0.99635315,0.122070,0.183105,-0.122070
5203968583,0.01263428,0.00369263,-0.99635315,0.183105,0.183105,-0.122070
5206537708,0.01466370,0.00163269,-0.99530029,0.183105,0.183105,-0.122070
5214137166,0.01466370,0.00163269,-0.99530029,0.000000,0.244141,-0.061035
5216678916,0.01303101,0.00170898,-0.99411011,0.000000,0.244141,-0.061035
5224263625,0.01303101,0.00170898,-0.99411011,-0.061035,0.122070,-0.122070
5226805875,0.01335144,0.00212097,-0.99423218,-0.061035,0.122070,-0.122070
5234384500,0.01335144,0.00212097,-0.99423218,0.000000,0.183105,-0.122070
5236918500,0.01252747,0.00263977,-0.99533081,0.000000,0.183105,-0.122070
5244506750,0.01252747,0.00263977,-0.99533081,0.122070,0.122070,-0.061035
5247053041,0.01263428,0.00260925,-0.99586487,0.122070,0.122070,-0.061035
5254648666,0.01263428,0.00260925,-0.99586487,0.000000,0.244141,-0.122070
5257184541,0.01275635,0.00317383,-0.99562073,0.000000,0.244141,-0.122070
5264766583,0.01275635,0.00317383,-0.99562073,0.061035,0.183105,-0.061035
5267303000,0.01361084,0.00329590,-0.99627686,0.061035,0.183105,-0.061035
5274884833,0.01361084,0.00329590,-0.99627686,0.122070,0.183105,-0.122070
5277468583,0.01518250,0.00448608,-0.99613953,0.122070,0.183105,-0.122070
5285056666,0.01518250,0.00448608,-0.99613953,0.122070,0.122070,-0.183105
5287591000,0.01515198,0.00419617,-0.99542236,0.122070,0.122070,-0.183105
5295237125,0.01515198,0.00419617,-0.99542236,0.122070,0.183105,-0.061035
5297791375,0.01402283,0.00498962,-0.99592590,0.122070,0.183105,-0.061035
5305388083,0.01402283,0.00498962,-0.99592590,0.244141,0.183105,-0.183105
5307924041,0.01312256,0.00535583,-0.99613953,0.244141,0.183105,-0.183105
5312993291,0.01312256,0.00535583,-0.99613953,0.000000,0.183105,0.000000
5318055750,0.01470947,0.00437927,-0.99476624,0.000000,0.183105,0.000000
5323165750,0.01470947,0.00437927,-0.99476624,0.000000,0.183105,-0.183105
5328324458,0.01388550,0.00444031,-0.99525452,0.000000,0.183105,-0.183105
5333493250,0.01388550,0.00444031,-0.99525452,0.183105,0.244141,-0.122070
5338590250,0.01240540,0.00425720,-0.99468994,0.183105,0.244141,-0.122070
5343657041,0.01240540,0.00425720,-0.99468994,0.000000,0.061035,-0.061035
5348705041,0.01419067,0.00366211,-0.99476624,0.000000,0.061035,-0.061035
5353752083,0.01419067,0.00366211,-0.99476624,0.244141,0.061035,-0.061035
5358813333,0.01351929,0.00305176,-0.99507141,0.244141,0.061035,-0.061035
5363902958,0.01351929,0.00305176,-0.99507141,0.183105,-0.122070,-0.122070
5369007041,0.01292419,0.00250244,-0.99101257,0.183105,-0.122070,-0.122070
5374082750,0.01292419,0.00250244,-0.99101257,-0.061035,-0.122070,-0.244141
5379162375,0.01390076,0.00199890,-0.99581909,-0.061035,-0.122070,-0.244141
5384243958,0.01390076,0.00199890,-0.99581909,-0.488281,0.244141,-0.183105
5389310666,0.01380920,0.00325012,-0.98985291,-0.488281,0.244141,-0.183105
5394350125,0.01380920,0.00325012,-0.98985291,0.244141,0.183105,-0.122070
5396876708,0.01414490,0.00552368,-1.00531006,0.244141,0.183105,-0.122070
5404449416,0.01414490,0.00552368,-1.00531006,-0.183105,0.366211,-0.122070
5406995125,0.01362610,0.00688171,-0.99333191,-0.183105,0.366211,-0.122070
5414465333,0.01362610,0.00688171,-0.99333191,0.122070,0.427246,-0.061035
5417014625,0.01350403,0.00700378,-1.00099182,0.122070,0.427246,-0.061035
5424599500,0.01350403,0.00700378,-1.00099182,0.000000,0.366211,-0.061035
5427133375,0.01371765,0.00679016,-0.99394226,0.000000,0.366211,-0.061035
5434716458,0.01371765,0.00679016,-0.99394226,0.122070,0.427246,-0.122070
5437253416,0.01310730,0.00682068,-0.99697876,0.122070,0.427246,-0.122070
5444828375,0.01310730,0.00682068,-0.99697876,0.183105,0.183105,-0.061035
5447363458,0.01167297,0.00650024,-0.99389648,0.183105,0.183105,-0.061035
5454975083,0.01167297,0.00650024,-0.99389648,0.244141,0.183105,-0.183105
5457534291,0.01251221,0.00552368,-0.99621582,0.244141,0.183105,-0.183105
5465130375,0.01251221,0.00552368,-0.99621582,0.122070,0.183105,0.000000
5467669875,0.01274109,0.00489807,-0.99420166,0.122070,0.183105,0.000000
5475253166,0.01274109,0.00489807,-0.99420166,0.122070,0.122070,-0.122070
5477806541,0.01359558,0.00314331,-0.99496460,0.122070,0.122070,-0.122070
5485412375,0.01359558,0.00314331,-0.99496460,-0.061035,-0.183105,-0.183105
5487953291,0.01458740,0.00306702,-0.99601746,-0.061035,-0.183105,-0.183105
5495578708,0.01458740,0.00306702,-0.99601746,-0.244141,0.183105,-0.122070
5498119333,0.01525879,0.00224304,-0.99295044,-0.244141,0.183105,-0.122070
5503193125,0.01525879,0.00224304,-0.99295044,0.305176,0.244141,0.000000
5508269250,0.01611328,0.00169373,-0.99896240,0.305176,0.244141,0.000000
5513347333,0.01611328,0.00169373,-0.99896240,0.061035,0.183105,-0.061035
5518394750,0.01487732,0.00273132,-0.99023438,0.061035,0.183105,-0.061035
5523463333,0.01487732,0.00273132,-0.99023438,0.122070,0.183105,-0.122070
5528534208,0.01464844,0.00378418,-0.99679565,0.122070,0.183105,-0.122070
5533600166,0.01464844,0.00378418,-0.99679565,0.183105,0.183105,-0.122070
5538650958,0.01255798,0.00350952,-0.99563599,0.183105,0.183105,-0.122070
5543709625,0.01255798,0.00350952,-0.99563599,-0.061035,0.122070,-0.061035
5548766125,0.01184082,0.00312805,-0.99656677,-0.061035,0.122070,-0.061035
5553869541,0.01184082,0.00312805,-0.99656677,0.061035,0.183105,-0.183105
5558950291,0.01280212,0.00344849,-0.99356079,0.061035,0.183105,-0.183105
5564024208,0.01280212,0.00344849,-0.99356079,0.000000,0.183105,-0.122070
5569361750,0.01264954,0.00259399,-0.99487305,0.000000,0.183105,-0.122070
5574432833,0.01264954,0.00259399,-0.99487305,0.061035,0.183105,-0.061035
5579014458,0.01391602,0.00317383,-0.99520874,0.061035,0.183105,-0.061035
5584071708,0.01391602,0.00317383,-0.99520874,0.061035,0.183105,-0.061035
5589139500,0.01419067,0.00341797,-0.99259949,0.061035,0.183105,-0.061035
5594218666,0.01419067,0.00341797,-0.99259949,0.122070,0.183105,-0.122070
5599277916,0.01411438,0.00292969,-0.99815369,0.122070,0.183105,-0.122070
5604342625,0.01411438,0.00292969,-0.99815369,0.000000,0.183105,-0.122070
5609401458,0.01358032,0.00369263,-0.99520874,0.000000,0.183105,-0.122070
5614460916,0.01358032,0.00369263,-0.99520874,0.061035,0.183105,-0.183105
5619524333,0.01440430,0.00466919,-0.99510193,0.061035,0.183105,-0.183105
5624586916,0.01440430,0.00466919,-0.99510193,0.061035,0.061035,-0.061035
5629680416,0.01513672,0.00361633,-0.99554443,0.061035,0.061035,-0.061035
5634738625,0.01513672,0.00361633,-0.99554443,0.000000,0.244141,-0.183105
5637273500,0.01394653,0.00257874,-0.99624634,0.000000,0.244141,-0.183105
5644878666,0.01394653,0.00257874,-0.99624634,0.000000,0.244141,-0.122070
5649669041,0.01275635,0.00285339,-0.99623108,0.000000,0.244141,-0.122070
5654738833,0.01275635,0.00285339,-0.99623108,-0.061035,0.122070,-0.183105
5657274333,0.01353455,0.00396729,-0.99682617,-0.061035,0.122070,-0.183105
5664949416,0.01353455,0.00396729,-0.99682617,0.000000,0.244141,-0.183105
5667524750,0.01393127,0.00439453,-0.99449158,0.000000,0.244141,-0.183105
5675139375,0.01393127,0.00439453,-0.99449158,0.061035,0.061035,-0.061035
5677676500,0.01281738,0.00529480,-0.99571228,0.061035,0.061035,-0.061035
5685258375,0.01281738,0.00529480,-0.99571228,0.061035,0.244141,-0.122070
5687793958,0.01235962,0.00596619,-0.99572754,0.061035,0.244141,-0.122070
5695387125,0.01235962,0.00596619,-0.99572754,0.061035,0.244141,-0.122070
5697934666,0.01310730,0.00605774,-0.99583435,0.061035,0.244141,-0.122070
5705527583,0.01310730,0.00605774,-0.99583435,0.122070,0.183105,-0.244141
5708070791,0.01452637,0.00495911,-0.99575806,0.122070,0.183105,-0.244141
5715665000,0.01452637,0.00495911,-0.99575806,0.000000,0.122070,-0.061035
5718201083,0.01400757,0.00364685,-0.99421692,0.000000,0.122070,-0.061035
5725782875,0.01400757,0.00364685,-0.99421692,0.000000,0.305176,-0.122070
5728326166,0.01406860,0.00402832,-0.99446106,0.000000,0.305176,-0.122070
5735906083,0.01406860,0.00402832,-0.99446106,0.000000,0.183105,-0.122070
5738457625,0.01383972,0.00338745,-0.99482727,0.000000,0.183105,-0.122070
5746048500,0.01383972,0.00338745,-0.99482727,0.000000,0.061035,-0.122070
5748584208,0.01402283,0.00308228,-0.99519348,0.000000,0.061035,-0.122070
5756228166,0.01402283,0.00308228,-0.99519348,-0.061035,0.244141,-0.183105
5758783416,0.01383972,0.00268555,-0.99522400,-0.061035,0.244141,-0.183105
5763871916,0.01383972,0.00268555,-0.99522400,0.000000,0.244141,-0.061035
5768936916,0.01428223,0.00248718,-0.99465942,0.000000,0.244141,-0.061035
5774022500,0.01428223,0.00248718,-0.99465942,-0.061035,0.061035,-0.183105
5779095250,0.01457214,0.00277710,-0.99534607,-0.061035,0.061035,-0.183105
5783995666,0.01457214,0.00277710,-0.99534607,0.061035,0.183105,-0.244141
5789052541,0.01387024,0.00302124,-0.99414062,0.061035,0.183105,-0.244141
5794109291,0.01387024,0.00302124,-0.99414062,0.183105,0.305176,-0.183105
5799166375,0.01428223,0.00340271,-0.99430847,0.183105,0.305176,-0.183105
5804222041,0.01428223,0.00340271,-0.99430847,0.061035,0.183105,-0.122070
5809281125,0.01446533,0.00444031,-0.99539185,0.061035,0.183105,-0.122070
5814342958,0.01446533,0.00444031,-0.99539185,-0.061035,0.183105,-0.183105
5819406291,0.01321411,0.00558472,-0.99659729,-0.061035,0.183105,-0.183105
5824467791,0.01321411,0.00558472,-0.99659729,-0.061035,0.061035,-0.244141
5829529375,0.01301575,0.00581360,-0.99577332,-0.061035,0.061035,-0.244141
5834585916,0.01301575,0.00581360,-0.99577332,0.061035,0.122070,-0.183105
5839642375,0.01387024,0.00559998,-0.99624634,0.061035,0.122070,-0.183105
5844700000,0.01387024,0.00559998,-0.99624634,0.183105,0.122070,-0.244141
5849756291,0.01336670,0.00553894,-0.99476624,0.183105,0.122070,-0.244141
5854813416,0.01336670,0.00553894,-0.99476624,0.122070,0.122070,-0.183105
5859870333,0.01269531,0.00627136,-0.99398804,0.122070,0.122070,-0.183105
5864938708,0.01269531,0.00627136,-0.99398804,0.122070,0.183105,-0.183105
5870058166,0.01441956,0.00553894,-0.99435425,0.122070,0.183105,-0.183105
5875140958,0.01441956,0.00553894,-0.99435425,0.244141,0.183105,-0.061035
5880286500,0.01214600,0.00440979,-0.99487305,0.244141,0.183105,-0.061035
5885369625,0.01214600,0.00440979,-0.99487305,-0.122070,0.183105,-0.183105
5887911958,0.01278687,0.00379944,-0.99470520,-0.122070,0.183105,-0.183105
5895494583,0.01278687,0.00379944,-0.99470520,0.122070,0.122070,-0.122070
5898039458,0.01364136,0.00222778,-0.99552917,0.122070,0.122070,-0.122070
5905620500,0.01364136,0.00222778,-0.99552917,0.122070,0.183105,0.000000
5908158416,0.01422119,0.00152588,-0.99496460,0.122070,0.183105,0.000000
5915738875,0.01422119,0.00152588,-0.99496460,0.122070,0.244141,-0.183105
5918273000,0.01416016,0.00125122,-0.99491882,0.122070,0.244141,-0.183105
5925850583,0.01416016,0.00125122,-0.99491882,0.183105,0.122070,-0.122070
5928385333,0.01412964,0.00158691,-0.99572754,0.183105,0.122070,-0.122070
5935962375,0.01412964,0.00158691,-0.99572754,0.061035,0.000000,-0.061035
5938496541,0.01356506,0.00292969,-0.99412537,0.061035,0.000000,-0.061035
5946072333,0.01356506,0.00292969,-0.99412537,0.244141,0.732422,-0.183105
5948603833,0.01394653,0.00456238,-0.99261475,0.244141,0.732422,-0.183105
5956180375,0.01394653,0.00456238,-0.99261475,0.366211,0.183105,-0.061035
5958712708,0.01298523,0.00573730,-0.99816895,0.366211,0.183105,-0.061035
5966302416,0.01298523,0.00573730,-0.99816895,-0.366211,0.061035,-0.183105
5968845208,0.01330566,0.00599670,-0.98886108,-0.366211,0.061035,-0.183105
5976436666,0.01330566,0.00599670,-0.98886108,-0.122070,0.000000,0.000000
5978975333,0.01266479,0.00645447,-1.00399780,-0.122070,0.000000,0.000000
5986560291,0.01266479,0.00645447,-1.00399780,-0.122070,0.183105,-0.061035
5989098250,0.01287842,0.00711060,-0.99382019,-0.122070,0.183105,-0.061035
5996676875,0.01287842,0.00711060,-0.99382019,0.122070,0.244141,0.061035
5999215875,0.01260376,0.00761414,-0.99888611,0.122070,0.244141,0.061035
6004302208,0.01260376,0.00761414,-0.99888611,0.488281,0.183105,0.000000
6009389833,0.01118469,0.00628662,-0.99435425,0.488281,0.183105,0.000000
6014458041,0.01118469,0.00628662,-0.99435425,0.183105,0.305176,-0.183105
6019527958,0.01333618,0.00550842,-0.99577332,0.183105,0.305176,-0.183105
6024628250,0.01333618,0.00550842,-0.99577332,0.244141,0.488281,-0.061035
6029691708,0.01425171,0.00350952,-0.99566650,0.244141,0.488281,-0.061035
6034770083,0.01425171,0.00350952,-0.99566650,0.244141,0.305176,-0.183105
6039837166,0.01396179,0.00251770,-0.99433899,0.244141,0.305176,-0.183105
6044921041,0.01396179,0.00251770,-0.99433899,0.244141,0.366211,-0.183105
6049984666,0.01539612,0.00273132,-0.99624634,0.244141,0.366211,-0.183105
6057208833,0.01539612,0.00273132,-0.99624634,0.122070,0.183105,-0.061035
6059777583,0.01510620,0.00267029,-0.99447632,0.122070,0.183105,-0.061035
6064861833,0.01510620,0.00267029,-0.99447632,0.061035,0.305176,-0.122070
6069924291,0.01437378,0.00309753,-0.99642944,0.061035,0.305176,-0.122070
6074991583,0.01437378,0.00309753,-0.99642944,0.183105,0.427246,-0.183105
6080062625,0.01387024,0.00440979,-0.99267578,0.183105,0.427246,-0.183105
6085125375,0.01387024,0.00440979,-0.99267578,0.244141,0.305176,-0.122070
6090185958,0.01470947,0.00418091,-1.00045776,0.244141,0.305176,-0.122070
6095245791,0.01470947,0.00418091,-1.00045776,0.000000,0.305176,0.000000
6100303041,0.01437378,0.00410461,-0.98980713,0.000000,0.305176,0.000000
6105359750,0.01437378,0.00410461,-0.98980713,0.122070,0.183105,-0.244141
6110419375,0.01437378,0.00422668,-0.99685669,0.122070,0.183105,-0.244141
6115478583,0.01437378,0.00422668,-0.99685669,0.000000,0.244141,-0.122070
6120611625,0.01336670,0.00393677,-0.99343872,0.000000,0.244141,-0.122070
6125671125,0.01336670,0.00393677,-0.99343872,-0.061035,0.061035,0.000000
6130820375,0.01301575,0.00384521,-0.99647522,-0.061035,0.061035,0.000000
6135887875,0.01301575,0.00384521,-0.99647522,0.061035,0.183105,-0.061035
6138425708,0.01252747,0.00424194,-0.99433899,0.061035,0.183105,-0.061035
6146005666,0.01252747,0.00424194,-0.99433899,0.122070,0.061035,-0.061035
6148543666,0.01197815,0.00245667,-0.99554443,0.122070,0.061035,-0.061035
6156144125,0.01197815,0.00245667,-0.99554443,0.183105,0.183105,-0.122070
6158677750,0.01361084,0.00271606,-0.99639893,0.183105,0.183105,-0.122070
6166258833,0.01361084,0.00271606,-0.99639893,0.061035,0.122070,-0.061035
6171337291,0.01417542,0.00189209,-0.99479675,0.061035,0.122070,-0.061035
6176401083,0.01417542,0.00189209,-0.99479675,-0.061035,0.305176,-0.122070
6178943583,0.01393127,0.00100708,-0.99504089,-0.061035,0.305176,-0.122070
6186554541,0.01393127,0.00100708,-0.99504089,0.183105,0.122070,-0.061035
6189097541,0.01417542,0.00213623,-0.99520874,0.183105,0.122070,-0.061035
6196687000,0.01417542,0.00213623,-0.99520874,0.061035,0.244141,-0.061035
6199222333,0.01332092,0.00421143,-0.99577332,0.061035,0.244141,-0.061035
6206858500,0.01332092,0.00421143,-0.99577332,0.000000,0.122070,-0.122070
6211920083,0.01431274,0.00419617,-0.99560547,0.000000,0.122070,-0.122070
6217001125,0.01431274,0.00419617,-0.99560547,0.061035,0.244141,-0.122070
6219540666,0.01391602,0.00442505,-0.99548340,0.061035,0.244141,-0.122070
6227125708,0.01391602,0.00442505,-0.99548340,0.000000,0.244141,-0.122070
6229660125,0.01330566,0.00494385,-0.99461365,0.000000,0.244141,-0.122070
6237250208,0.01330566,0.00494385,-0.99461365,0.061035,0.061035,-0.122070
6239802875,0.01391602,0.00531006,-0.99481201,0.061035,0.061035,-0.122070
6244877208,0.01391602,0.00531006,-0.99481201,0.183105,0.183105,-0.122070
6249935000,0.01445007,0.00546265,-0.99456787,0.183105,0.183105,-0.122070
6255000083,0.01445007,0.00546265,-0.99456787,0.122070,0.366211,-0.122070
6260066500,0.01325989,0.00505066,-0.99514771,0.122070,0.366211,-0.122070
6265141208,0.01325989,0.00505066,-0.99514771,0.122070,0.183105,-0.061035
6270204208,0.01319885,0.00544739,-0.99632263,0.122070,0.183105,-0.061035
6275288666,0.01319885,0.00544739,-0.99632263,0.122070,0.183105,-0.061035
6280351250,0.01368713,0.00515747,-0.99623108,0.122070,0.183105,-0.061035
6285424833,0.01368713,0.00515747,-0.99623108,-0.061035,0.061035,-0.061035
6290483708,0.01359558,0.00483704,-0.99479675,-0.061035,0.061035,-0.061035
6295551625,0.01359558,0.00483704,-0.99479675,0.000000,0.183105,-0.061035
6300612041,0.01269531,0.00408936,-0.99485779,0.000000,0.183105,-0.061035
6305671666,0.01269531,0.00408936,-0.99485779,0.000000,0.183105,-0.061035
6310732333,0.01329041,0.00389099,-0.99514771,0.000000,0.183105,-0.061035
6315797458,0.01329041,0.00389099,-0.99514771,0.000000,0.183105,-0.122070
6320857166,0.01344299,0.00271606,-0.99571228,0.000000,0.183105,-0.122070
6325921583,0.01344299,0.00271606,-0.99571228,0.061035,0.244141,-0.122070
6330997166,0.01364136,0.00299072,-0.99536133,0.061035,0.244141,-0.122070
6336064125,0.01364136,0.00299072,-0.99536133,0.183105,0.366211,0.061035
6341118500,0.01396179,0.00349426,-0.99450684,0.183105,0.366211,0.061035
6346174625,0.01396179,0.00349426,-0.99450684,0.000000,0.244141,-0.122070
6351244083,0.01365662,0.00253296,-0.99475098,0.000000,0.244141,-0.122070
6356309583,0.01365662,0.00253296,-0.99475098,0.000000,0.183105,-0.183105
6358855458,0.01463318,0.00181580,-0.99584961,0.000000,0.183105,-0.183105
6366435708,0.01463318,0.00181580,-0.99584961,0.000000,0.122070,-0.122070
6368969666,0.01489258,0.00305176,-0.99568176,0.000000,0.122070,-0.122070
6376288750,0.01489258,0.00305176,-0.99568176,0.183105,0.305176,-0.122070
6378884125,0.01437378,0.00340271,-0.99540710,0.183105,0.305176,-0.122070
6386472416,0.01437378,0.00340271,-0.99540710,0.000000,0.122070,-0.183105
6389007791,0.01258850,0.00454712,-0.99525452,0.000000,0.122070,-0.183105
6396581916,0.01258850,0.00454712,-0.99525452,0.000000,0.244141,-0.183105
6399118583,0.01367188,0.00547791,-0.99456787,0.000000,0.244141,-0.183105
6406699083,0.01367188,0.00547791,-0.99456787,0.061035,0.122070,-0.061035
6409244250,0.01394653,0.00494385,-0.99526978,0.061035,0.122070,-0.061035
6416897125,0.01394653,0.00494385,-0.99526978,0.122070,0.183105,-0.061035
6419441291,0.01358032,0.00547791,-0.99557495,0.122070,0.183105,-0.061035
6427021833,0.01358032,0.00547791,-0.99557495,-0.061035,0.122070,-0.183105
6429565166,0.01339722,0.00465393,-0.99609375,-0.061035,0.122070,-0.183105
6437146416,0.01339722,0.00465393,-0.99609375,0.183105,0.366211,-0.122070
6439680666,0.01310730,0.00424194,-0.99549866,0.183105,0.366211,-0.122070
6447256875,0.01310730,0.00424194,-0.99549866,0.122070,0.183105,-0.061035
6449790916,0.01361084,0.00349426,-0.99572754,0.122070,0.183105,-0.061035
6457366833,0.01361084,0.00349426,-0.99572754,0.000000,0.183105,-0.122070
6459909083,0.01435852,0.00222778,-0.99636841,0.000000,0.183105,-0.122070
6467490875,0.01435852,0.00222778,-0.99636841,0.061035,0.122070,-0.061035
6470028541,0.01351929,0.00172424,-0.99621582,0.061035,0.122070,-0.061035
6477673166,0.01351929,0.00172424,-0.99621582,0.122070,0.183105,-0.183105
6480213083,0.01336670,0.00204468,-0.99595642,0.122070,0.183105,-0.183105
6485306625,0.01336670,0.00204468,-0.99595642,0.061035,0.244141,-0.122070
6490388875,0.01325989,0.00419617,-0.99377441,0.061035,0.244141,-0.122070
6497976250,0.01325989,0.00419617,-0.99377441,0.061035,0.122070,-0.183105
6500518625,0.01342773,0.00347900,-0.99494934,0.061035,0.122070,-0.183105
6508098666,0.01342773,0.00347900,-0.99494934,0.244141,-0.061035,-0.183105
6510630375,0.01400757,0.00357056,-0.99504089,0.244141,-0.061035,-0.183105
6518231375,0.01400757,0.00357056,-0.99504089,0.183105,-0.061035,-0.122070
6520783250,0.01411438,0.00323486,-0.99258423,0.183105,-0.061035,-0.122070
6528426208,0.01411438,0.00323486,-0.99258423,-0.366211,-0.244141,-0.122070
6530963333,0.01461792,0.00382996,-0.99575806,-0.366211,-0.244141,-0.122070
6536029958,0.01461792,0.00382996,-0.99575806,-0.549316,0.305176,-0.183105
6541101500,0.01402283,0.00494385,-0.99018860,-0.549316,0.305176,-0.183105
6546173833,0.01402283,0.00494385,-0.99018860,0.244141,0.061035,-0.122070
6551247750,0.01226807,0.00524902,-1.00381470,0.244141,0.061035,-0.122070
6556325208,0.01226807,0.00524902,-1.00381470,0.000000,0.427246,-0.183105
6561392166,0.01252747,0.00572205,-0.99334717,0.000000,0.427246,-0.183105
6568205041,0.01252747,0.00572205,-0.99334717,0.183105,0.244141,-0.183105
6570762875,0.01275635,0.00622559,-1.00135803,0.183105,0.244141,-0.183105
6578408625,0.01275635,0.00622559,-1.00135803,-0.061035,0.244141,-0.122070
6580945958,0.01345825,0.00564575,-0.99424744,-0.061035,0.244141,-0.122070
6586003458,0.01345825,0.00564575,-0.99424744,0.061035,0.183105,-0.183105
6591067375,0.01234436,0.00491333,-0.99772644,0.061035,0.183105,-0.183105
6596149916,0.01234436,0.00491333,-0.99772644,0.244141,0.244141,-0.061035
6601212000,0.01351929,0.00471497,-0.99377441,0.244141,0.244141,-0.061035
6606275083,0.01351929,0.00471497,-0.99377441,0.244141,0.366211,0.000000
6611334250,0.01350403,0.00439453,-0.99499512,0.244141,0.366211,0.000000
6616197375,0.01350403,0.00439453,-0.99499512,0.183105,0.244141,-0.122070
6621257583,0.01390076,0.00413513,-0.99385071,0.183105,0.244141,-0.122070
6626329541,0.01390076,0.00413513,-0.99385071,0.061035,-0.122070,-0.122070
6631386958,0.01391602,0.00498962,-0.99565125,0.061035,-0.122070,-0.122070
6636461375,0.01391602,0.00498962,-0.99565125,-0.244141,0.122070,0.000000
6641521500,0.01329041,0.00607300,-0.99295044,-0.244141,0.122070,0.000000
6646580958,0.01329041,0.00607300,-0.99295044,0.244141,0.366211,0.000000
6651634166,0.01376343,0.00584412,-1.00190735,0.244141,0.366211,0.000000
6656693083,0.01376343,0.00584412,-1.00190735,0.183105,0.244141,-0.061035
6661762500,0.01399231,0.00579834,-0.98922729,0.183105,0.244141,-0.061035
6666827166,0.01399231,0.00579834,-0.98922729,0.000000,0.244141,-0.122070
6671905583,0.01402283,0.00480652,-0.99751282,0.000000,0.244141,-0.122070
6676994875,0.01402283,0.00480652,-0.99751282,-0.061035,0.122070,-0.122070
6682068833,0.01429749,0.00296021,-0.99314880,-0.061035,0.122070,-0.122070
6687128750,0.01429749,0.00296021,-0.99314880,-0.183105,0.183105,-0.183105
6692188250,0.01385498,0.00155640,-0.99531555,-0.183105,0.183105,-0.183105
6697254250,0.01385498,0.00155640,-0.99531555,0.061035,0.183105,-0.122070
6702326333,0.01387024,0.00094604,-0.99453735,0.061035,0.183105,-0.122070
6707341000,0.01387024,0.00094604,-0.99453735,0.061035,0.183105,-0.122070
6709879125,0.01324463,0.00025940,-0.99342346,0.061035,0.183105,-0.122070
6717468166,0.01324463,0.00025940,-0.99342346,0.061035,0.122070,-0.122070
6720005458,0.01309204,0.00027466,-0.99618530,0.061035,0.122070,-0.122070
6727591000,0.01309204,0.00027466,-0.99618530,0.000000,0.244141,-0.244141
6730127000,0.01275635,0.00134277,-0.99440002,0.000000,0.244141,-0.244141
6737479375,0.01275635,0.00134277,-0.99440002,0.061035,0.183105,-0.122070
6740016208,0.01309204,0.00350952,-0.99601746,0.061035,0.183105,-0.122070
6747594000,0.01309204,0.00350952,-0.99601746,0.061035,0.183105,-0.122070
6750128791,0.01379395,0.00360107,-0.99592590,0.061035,0.183105,-0.122070
6757710125,0.01379395,0.00360107,-0.99592590,0.122070,0.061035,-0.122070
6760243833,0.01484680,0.00537109,-0.99534607,0.122070,0.061035,-0.122070
6767822791,0.01484680,0.00537109,-0.99534607,0.122070,0.000000,-0.183105
6770356708,0.01445007,0.00682068,-0.99438477,0.122070,0.000000,-0.183105
6777934541,0.01445007,0.00682068,-0.99438477,0.061035,0.122070,-0.061035
6780468916,0.01364136,0.00686646,-0.99504089,0.061035,0.122070,-0.061035
6788049791,0.01364136,0.00686646,-0.99504089,0.061035,0.122070,-0.061035
6790582416,0.01396179,0.00694275,-0.99575806,0.061035,0.122070,-0.061035
6798165208,0.01396179,0.00694275,-0.99575806,0.061035,0.122070,-0.122070
6800700583,0.01335144,0.00555420,-0.99555969,0.061035,0.122070,-0.122070
6808276875,0.01335144,0.00555420,-0.99555969,0.061035,0.244141,-0.183105
6810810833,0.01473999,0.00515747,-0.99560547,0.061035,0.244141,-0.183105
6818398250,0.01473999,0.00515747,-0.99560547,0.061035,0.244141,-0.183105
6820935708,0.01390076,0.00332642,-0.99571228,0.061035,0.244141,-0.183105
6828537500,0.01390076,0.00332642,-0.99571228,0.061035,0.305176,-0.183105
6831121916,0.01445007,0.00334167,-0.99537659,0.061035,0.305176,-0.183105
6836188250,0.01445007,0.00334167,-0.99537659,0.061035,0.305176,-0.122070
6841261583,0.01460266,0.00271606,-0.99462891,0.061035,0.305176,-0.122070
6846324958,0.01460266,0.00271606,-0.99462891,0.000000,0.244141,-0.183105
6851400125,0.01356506,0.00325012,-0.99588013,0.000000,0.244141,-0.183105
6856486458,0.01356506,0.00325012,-0.99588013,0.122070,0.122070,-0.122070
6861556041,0.01377869,0.00338745,-0.99526978,0.122070,0.122070,-0.122070
6866615375,0.01377869,0.00338745,-0.99526978,0.122070,0.183105,-0.061035
6871672208,0.01312256,0.00352478,-0.99613953,0.122070,0.183105,-0.061035
6876730041,0.01312256,0.00352478,-0.99613953,0.122070,0.244141,0.000000
6881792416,0.01213074,0.00390625,-0.99507141,0.122070,0.244141,0.000000
6886643875,0.01213074,0.00390625,-0.99507141,0.061035,0.244141,-0.122070
6891762916,0.01188660,0.00492859,-0.99522400,0.061035,0.244141,-0.122070
6896834208,0.01188660,0.00492859,-0.99522400,0.061035,0.244141,-0.061035
6901894750,0.01194763,0.00527954,-0.99566650,0.061035,0.244141,-0.061035
6906978250,0.01194763,0.00527954,-0.99566650,0.122070,0.122070,-0.122070
6912042875,0.01237488,0.00416565,-0.99603271,0.122070,0.122070,-0.122070
6917121458,0.01237488,0.00416565,-0.99603271,0.122070,0.122070,-0.183105
6922185708,0.01318359,0.00457764,-0.99562073,0.122070,0.122070,-0.183105
6927242375,0.01318359,0.00457764,-0.99562073,0.061035,0.122070,-0.061035
6932298166,0.01336670,0.00440979,-0.99467468,0.061035,0.122070,-0.061035
6937356416,0.01336670,0.00440979,-0.99467468,0.061035,0.244141,-0.061035
6942437458,0.01377869,0.00350952,-0.99589539,0.061035,0.244141,-0.061035
6947504750,0.01377869,0.00350952,-0.99589539,0.122070,0.305176,-0.061035
6952567333,0.01412964,0.00239563,-0.99555969,0.122070,0.305176,-0.061035
6957645500,0.01412964,0.00239563,-0.99555969,0.122070,0.183105,-0.061035
6962772291,0.01385498,0.00231934,-0.99505615,0.122070,0.183105,-0.061035
6967879291,0.01385498,0.00231934,-0.99505615,0.183105,0.183105,-0.061035
6970423625,0.01364136,0.00225830,-0.99481201,0.183105,0.183105,-0.061035
6978013083,0.01364136,0.00225830,-0.99481201,0.061035,0.244141,-0.122070
6980548041,0.01350403,0.00320435,-0.99443054,0.061035,0.244141,-0.122070
6988133125,0.01350403,0.00320435,-0.99443054,0.061035,0.305176,-0.061035
6990674333,0.01371765,0.00341797,-0.99411011,0.061035,0.305176,-0.061035
6998251291,0.01371765,0.00341797,-0.99411011,0.061035,0.244141,-0.061035
7000784541,0.01382446,0.00395203,-0.99414062,0.061035,0.244141,-0.061035
7008358916,0.01382446,0.00395203,-0.99414062,0.061035,0.122070,-0.183105
7010891416,0.01272583,0.00540161,-0.99447632,0.061035,0.122070,-0.183105
7018485000,0.01272583,0.00540161,-0.99447632,0.183105,0.183105,-0.122070
7021021375,0.01217651,0.00489807,-0.99455261,0.183105,0.183105,-0.122070
7028603833,0.01217651,0.00489807,-0.99455261,0.183105,0.244141,-0.183105
7031144625,0.01316833,0.00537109,-0.99520874,0.183105,0.244141,-0.183105
7038786666,0.01316833,0.00537109,-0.99520874,-0.061035,0.122070,0.000000
7040858375,0.01408386,0.00572205,-0.99501038,-0.061035,0.122070,0.000000
7048439250,0.01408386,0.00572205,-0.99501038,0.183105,0.183105,-0.061035
7050974458,0.01472473,0.00474548,-0.99516296,0.183105,0.183105,-0.061035
7058568500,0.01472473,0.00474548,-0.99516296,0.244141,0.000000,-0.183105
7061106166,0.01344299,0.00476074,-0.99497986,0.244141,0.000000,-0.183105
7068683958,0.01344299,0.00476074,-0.99497986,0.305176,0.000000,-0.122070
7071218708,0.01469421,0.00428772,-0.99549866,0.305176,0.000000,-0.122070
7078794666,0.01469421,0.00428772,-0.99549866,0.061035,-0.061035,-0.122070
7081328166,0.01477051,0.00292969,-0.99298096,0.061035,-0.061035,-0.122070
7088719000,0.01477051,0.00292969,-0.99298096,-0.854492,-0.427246,-0.122070
7091253375,0.01437378,0.00166321,-0.99380493,-0.854492,-0.427246,-0.122070
7098833250,0.01437378,0.00166321,-0.99380493,-0.183105,-0.122070,-0.183105
7101380250,0.01373291,0.00210571,-0.99015808,-0.183105,-0.122070,-0.183105
7108982833,0.01373291,0.00210571,-0.99015808,0.244141,0.122070,-0.183105
7111522958,0.01202393,0.00254822,-1.00167847,0.244141,0.122070,-0.183105
7119121083,0.01202393,0.00254822,-1.00167847,0.061035,0.244141,-0.122070
7121664583,0.01243591,0.00276184,-0.99504089,0.061035,0.244141,-0.122070
7126876166,0.01243591,0.00276184,-0.99504089,0.183105,0.244141,-0.183105
7131937458,0.01315308,0.00341797,-1.00245667,0.183105,0.244141,-0.183105
7136997083,0.01315308,0.00341797,-1.00245667,-0.122070,0.305176,-0.061035
7142062166,0.01155090,0.00448608,-0.99467468,-0.122070,0.305176,-0.061035
7147122625,0.01155090,0.00448608,-0.99467468,0.183105,0.244141,-0.061035
7152194166,0.01210022,0.00566101,-0.99989319,0.183105,0.244141,-0.061035
7157262583,0.01210022,0.00566101,-0.99989319,0.061035,0.305176,-0.061035
7162335541,0.01483154,0.00537109,-0.99363708,0.061035,0.305176,-0.061035
7167240708,0.01483154,0.00537109,-0.99363708,0.366211,0.183105,-0.061035
7172308958,0.01489258,0.00491333,-0.99632263,0.366211,0.183105,-0.061035
7177372250,0.01489258,0.00491333,-0.99632263,0.305176,0.244141,-0.183105
7182435041,0.01571655,0.00457764,-0.99353027,0.305176,0.244141,-0.183105
7187503541,0.01571655,0.00457764,-0.99353027,0.244141,0.244141,-0.061035
7192571083,0.01454163,0.00456238,-0.99458313,0.244141,0.244141,-0.061035
7197350500,0.01454163,0.00456238,-0.99458313,0.122070,0.244141,-0.183105
7202087958,0.01185608,0.00630188,-0.99517822,0.122070,0.244141,-0.183105
7207166583,0.01185608,0.00630188,-0.99517822,0.183105,0.366211,-0.061035
7212262708,0.01298523,0.00677490,-0.99467468,0.183105,0.366211,-0.061035
7217351041,0.01298523,0.00677490,-0.99467468,0.061035,0.366211,-0.183105
7222414083,0.01356506,0.00767517,-0.99656677,0.061035,0.366211,-0.183105
7227485375,0.01356506,0.00767517,-0.99656677,0.366211,0.671387,-0.122070
7232552500,0.01387024,0.00575256,-0.99411011,0.366211,0.671387,-0.122070
7237627958,0.01387024,0.00575256,-0.99411011,-0.366211,0.183105,-0.061035
7242329500,0.01470947,0.00469971,-0.99642944,-0.366211,0.183105,-0.061035
7247396500,0.01470947,0.00469971,-0.99642944,-0.183105,0.183105,-0.122070
7252453750,0.01574707,0.00285339,-0.99360657,-0.183105,0.183105,-0.122070
7257513000,0.01574707,0.00285339,-0.99360657,0.000000,0.183105,-0.061035
7262569458,0.01513672,0.00247192,-0.99298096,0.000000,0.183105,-0.061035
7267681833,0.01513672,0.00247192,-0.99298096,0.122070,0.122070,-0.183105
7272766083,0.01382446,0.00100708,-0.99546814,0.122070,0.122070,-0.183105
7277831291,0.01382446,0.00100708,-0.99546814,0.183105,0.122070,-0.122070
7282889375,0.01356506,0.00068665,-0.99394226,0.183105,0.122070,-0.122070
7287967250,0.01356506,0.00068665,-0.99394226,0.000000,0.183105,-0.122070
7293033166,0.01272583,0.00099182,-0.99421692,0.000000,0.183105,-0.122070
7298094666,0.01272583,0.00099182,-0.99421692,0.122070,0.244141,-0.122070
7303164333,0.01222229,0.00027466,-0.99574280,0.122070,0.244141,-0.122070
7308222291,0.01222229,0.00027466,-0.99574280,0.122070,0.122070,-0.122070
7313278333,0.01309204,0.00161743,-0.99433899,0.122070,0.122070,-0.122070
7318342000,0.01309204,0.00161743,-0.99433899,0.183105,0.305176,-0.061035
7323419000,0.01315308,0.00360107,-0.99505615,0.183105,0.305176,-0.061035
7328500583,0.01315308,0.00360107,-0.99505615,0.000000,0.122070,-0.122070
7331043125,0.01316833,0.00518799,-0.99621582,0.000000,0.122070,-0.122070
7338625875,0.01316833,0.00518799,-0.99621582,0.061035,0.244141,-0.244141
7341160375,0.01487732,0.00556946,-0.99522400,0.061035,0.244141,-0.244141
7348754416,0.01487732,0.00556946,-0.99522400,0.000000,0.244141,-0.061035
7351290375,0.01515198,0.00703430,-0.99531555,0.000000,0.244141,-0.061035
7358954750,0.01515198,0.00703430,-0.99531555,-0.061035,0.183105,-0.122070
7361506750,0.01490784,0.00689697,-0.99618530,-0.061035,0.183105,-0.122070
7369084000,0.01490784,0.00689697,-0.99618530,-0.061035,0.183105,-0.122070
7371620208,0.01594543,0.00579834,-0.99478149,-0.061035,0.183105,-0.122070
7379199750,0.01594543,0.00579834,-0.99478149,0.061035,0.122070,-0.122070
7381735041,0.01472473,0.00416565,-0.99404907,0.061035,0.122070,-0.122070
7389325458,0.01472473,0.00416565,-0.99404907,0.061035,0.061035,-0.122070
7391858291,0.01321411,0.00338745,-0.99526978,0.061035,0.061035,-0.122070
7399449750,0.01321411,0.00338745,-0.99526978,0.122070,0.122070,-0.122070
7401983625,0.01348877,0.00286865,-0.99534607,0.122070,0.122070,-0.122070
7409572125,0.01348877,0.00286865,-0.99534607,-0.122070,0.244141,-0.122070
7412108333,0.01277161,0.00247192,-0.99588013,-0.122070,0.244141,-0.122070
7419277750,0.01277161,0.00247192,-0.99588013,0.000000,0.366211,-0.183105
7421819500,0.01345825,0.00392151,-0.99478149,0.000000,0.366211,-0.183105
7429404333,0.01345825,0.00392151,-0.99478149,0.061035,0.244141,-0.061035
7431951458,0.01344299,0.00454712,-0.99388123,0.061035,0.244141,-0.061035
7439551166,0.01344299,0.00454712,-0.99388123,0.000000,0.244141,-0.122070
7442089500,0.01362610,0.00445557,-0.99484253,0.000000,0.244141,-0.122070
7449666666,0.01362610,0.00445557,-0.99484253,0.122070,0.183105,-0.122070
7452199916,0.01425171,0.00532532,-0.99534607,0.122070,0.183105,-0.122070
7459777291,0.01425171,0.00532532,-0.99534607,0.122070,0.244141,-0.183105
7462312375,0.01466370,0.00518799,-0.99551392,0.122070,0.244141,-0.183105
7469889375,0.01466370,0.00518799,-0.99551392,0.061035,0.244141,-0.183105
7472436458,0.01557922,0.00364685,-0.99542236,0.061035,0.244141,-0.183105
7480045875,0.01557922,0.00364685,-0.99542236,0.122070,0.122070,-0.183105
7482586041,0.01484680,0.00329590,-0.99534607,0.122070,0.122070,-0.183105
7490163958,0.01484680,0.00329590,-0.99534607,0.122070,0.244141,-0.122070
7492697541,0.01316833,0.00355530,-0.99510193,0.122070,0.244141,-0.122070
7500275416,0.01316833,0.00355530,-0.99510193,0.061035,0.183105,-0.122070
7502809083,0.01466370,0.00280762,-0.99453735,0.061035,0.183105,-0.122070
7507883833,0.01466370,0.00280762,-0.99453735,0.122070,0.183105,-0.122070
7512954000,0.01435852,0.00292969,-0.99423218,0.122070,0.183105,-0.122070
7518010333,0.01435852,0.00292969,-0.99423218,0.122070,0.244141,0.000000
7523081375,0.01338196,0.00349426,-0.99574280,0.122070,0.244141,0.000000
7528150041,0.01338196,0.00349426,-0.99574280,0.061035,0.122070,-0.122070
7533213166,0.01449585,0.00363159,-0.99505615,0.061035,0.122070,-0.122070
7538284958,0.01449585,0.00363159,-0.99505615,0.183105,0.244141,-0.122070
7543347291,0.01400757,0.00401306,-0.99528503,0.183105,0.244141,-0.122070
7548404041,0.01400757,0.00401306,-0.99528503,0.061035,0.305176,-0.061035
7553470375,0.01388550,0.00415039,-0.99475098,0.061035,0.305176,-0.061035
7558564125,0.01388550,0.00415039,-0.99475098,0.061035,0.244141,-0.183105
7563619625,0.01429749,0.00407410,-0.99415588,0.061035,0.244141,-0.183105
7568676041,0.01429749,0.00407410,-0.99415588,0.061035,0.122070,-0.122070
7573731833,0.01338196,0.00373840,-0.99501038,0.061035,0.122070,-0.122070
7578298958,0.01338196,0.00373840,-0.99501038,0.061035,0.183105,-0.061035
7583360125,0.01347351,0.00289917,-0.99459839,0.061035,0.183105,-0.061035
7588442833,0.01347351,0.00289917,-0.99459839,0.122070,0.244141,-0.122070
7593510625,0.01301575,0.00329590,-0.99531555,0.122070,0.244141,-0.122070
7598572958,0.01301575,0.00329590,-0.99531555,0.000000,0.244141,-0.122070
7603630708,0.01293945,0.00370789,-0.99545288,0.000000,0.244141,-0.122070
7608689125,0.01293945,0.00370789,-0.99545288,0.061035,0.183105,-0.183105
7613745458,0.01387024,0.00439453,-0.99560547,0.061035,0.183105,-0.183105
7618802291,0.01387024,0.00439453,-0.99560547,0.244141,0.244141,0.000000
7623859083,0.01373291,0.00457764,-0.99684143,0.244141,0.244141,0.000000
7628915791,0.01373291,0.00457764,-0.99684143,0.122070,0.183105,-0.122070
7633969958,0.01342773,0.00502014,-0.99528503,0.122070,0.183105,-0.122070
7639036458,0.01342773,0.00502014,-0.99528503,0.000000,0.305176,-0.183105
7644121250,0.01420593,0.00492859,-0.99441528,0.000000,0.305176,-0.183105
7649184125,0.01420593,0.00492859,-0.99441528,0.244141,0.122070,-0.122070
7654253958,0.01373291,0.00485229,-0.99440002,0.244141,0.122070,-0.122070
7659312333,0.01373291,0.00485229,-0.99440002,0.000000,-0.122070,-0.122070
7664392041,0.01390076,0.00508118,-0.99249268,0.000000,-0.122070,-0.122070
7669451291,0.01390076,0.00508118,-0.99249268,-0.183105,-0.366211,-0.061035
7671986375,0.01434326,0.00398254,-0.99624634,-0.183105,-0.366211,-0.061035
7679584750,0.01434326,0.00398254,-0.99624634,-0.732422,-0.183105,-0.183105
7682125750,0.01391602,0.00279236,-0.98545837,-0.732422,-0.183105,-0.183105
7689712875,0.01391602,0.00279236,-0.98545837,-0.183105,0.061035,-0.122070
7692250083,0.01223755,0.00279236,-1.00779724,-0.183105,0.061035,-0.122070
7699831708,0.01223755,0.00279236,-1.00779724,-0.244141,0.305176,-0.183105
7702369208,0.01301575,0.00390625,-0.99298096,-0.244141,0.305176,-0.183105
7709959000,0.01301575,0.00390625,-0.99298096,0.122070,0.366211,-0.183105
7712494541,0.01292419,0.00378418,-1.00283813,0.122070,0.366211,-0.183105
7720081208,0.01292419,0.00378418,-1.00283813,0.183105,0.305176,-0.183105
7722618875,0.01332092,0.00440979,-0.99461365,0.183105,0.305176,-0.183105
7730201416,0.01332092,0.00440979,-0.99461365,0.061035,0.305176,0.000000
7732346625,0.01318359,0.00608826,-0.99722290,0.061035,0.305176,0.000000
7739951541,0.01318359,0.00608826,-0.99722290,0.244141,0.305176,-0.183105
7742493166,0.01325989,0.00524902,-0.99581909,0.244141,0.305176,-0.183105
7750079083,0.01325989,0.00524902,-0.99581909,0.183105,0.244141,-0.122070
7752616791,0.01362610,0.00494385,-0.99386597,0.183105,0.244141,-0.122070
7760197875,0.01362610,0.00494385,-0.99386597,0.366211,0.183105,0.000000
7762732958,0.01324463,0.00576782,-0.99600220,0.366211,0.183105,0.000000
7770380958,0.01324463,0.00576782,-0.99600220,0.366211,0.183105,-0.122070
7772918833,0.01292419,0.00524902,-0.99247742,0.366211,0.183105,-0.122070
7780512541,0.01292419,0.00524902,-0.99247742,0.122070,0.183105,-0.061035
7783113791,0.01470947,0.00447083,-0.99617004,0.122070,0.183105,-0.061035
7790734750,0.01470947,0.00447083,-0.99617004,0.000000,0.305176,0.061035
7793284416,0.01489258,0.00596619,-0.99684143,0.000000,0.305176,0.061035
7798363000,0.01489258,0.00596619,-0.99684143,-0.061035,0.122070,0.000000
7803439625,0.01451111,0.00709534,-0.99595642,-0.061035,0.122070,0.000000
7808502166,0.01451111,0.00709534,-0.99595642,0.061035,0.549316,0.061035
7813721625,0.01432800,0.00492859,-0.99212646,0.061035,0.549316,0.061035
7818757541,0.01432800,0.00492859,-0.99212646,0.366211,0.366211,0.000000
7823491750,0.01495361,0.00439453,-1.00192261,0.366211,0.366211,0.000000
7831066875,0.01495361,0.00439453,-1.00192261,0.061035,0.305176,-0.122070
7833592125,0.01423645,0.00381470,-0.98669434,0.061035,0.305176,-0.122070
7841168416,0.01423645,0.00381470,-0.98669434,0.244141,0.183105,-0.122070
7843703791,0.01272583,0.00244141,-0.99794006,0.244141,0.183105,-0.122070
7851308416,0.01272583,0.00244141,-0.99794006,0.122070,0.244141,-0.061035
7853857791,0.01353455,0.00169373,-0.99322510,0.122070,0.244141,-0.061035
7858939208,0.01353455,0.00169373,-0.99322510,0.122070,0.183105,-0.122070
7863999208,0.01248169,0.00097656,-0.99612427,0.122070,0.183105,-0.122070
7869057291,0.01248169,0.00097656,-0.99612427,0.061035,0.183105,-0.122070
7874116208,0.01219177,0.00061035,-0.99450684,0.061035,0.183105,-0.122070
7879173500,0.01219177,0.00061035,-0.99450684,0.061035,0.183105,-0.061035
7884229291,0.01261902,0.00155640,-0.99635315,0.061035,0.183105,-0.061035
7889293125,0.01261902,0.00155640,-0.99635315,0.061035,0.061035,-0.183105
7894351166,0.01385498,0.00270081,-0.99574280,0.061035,0.061035,-0.183105
7899408000,0.01385498,0.00270081,-0.99574280,-0.061035,0.244141,-0.183105
7904463416,0.01426697,0.00382996,-0.99589539,-0.061035,0.244141,-0.183105
7909533166,0.01426697,0.00382996,-0.99589539,0.122070,0.244141,-0.183105
7914592250,0.01380920,0.00434875,-0.99577332,0.122070,0.244141,-0.183105
7919650416,0.01380920,0.00434875,-0.99577332,0.061035,0.122070,-0.183105
7924716166,0.01420593,0.00578308,-0.99446106,0.061035,0.122070,-0.183105
7929806625,0.01420593,0.00578308,-0.99446106,0.183105,0.305176,-0.061035
7932404541,0.01414490,0.00628662,-0.99488831,0.183105,0.305176,-0.061035
7939988291,0.01414490,0.00628662,-0.99488831,0.061035,0.244141,-0.122070
7945045666,0.01437378,0.00643921,-0.99441528,0.061035,0.244141,-0.122070
7950103416,0.01437378,0.00643921,-0.99441528,-0.061035,0.122070,-0.061035
7955161041,0.01371765,0.00556946,-0.99487305,-0.061035,0.122070,-0.061035
7960219125,0.01371765,0.00556946,-0.99487305,0.183105,0.244141,-0.183105
7965291500,0.01353455,0.00453186,-0.99546814,0.183105,0.244141,-0.183105
7970365875,0.01353455,0.00453186,-0.99546814,0.122070,0.122070,-0.122070
7972899000,0.01383972,0.00341797,-0.99580383,0.122070,0.122070,-0.122070
7980480958,0.01383972,0.00341797,-0.99580383,0.183105,0.183105,-0.122070
7983015458,0.01422119,0.00311279,-0.99487305,0.183105,0.183105,-0.122070
7990594291,0.01422119,0.00311279,-0.99487305,0.061035,0.305176,-0.122070
7993128958,0.01470947,0.00277710,-0.99523926,0.061035,0.305176,-0.122070
8000708875,0.01470947,0.00277710,-0.99523926,0.000000,0.061035,-0.244141
8003243291,0.01489258,0.00390625,-0.99499512,0.000000,0.061035,-0.244141
8010831000,0.01489258,0.00390625,-0.99499512,0.183105,0.183105,-0.244141
8013388541,0.01335144,0.00367737,-0.99440002,0.183105,0.183105,-0.244141
8020971458,0.01335144,0.00367737,-0.99440002,-0.061035,0.183105,-0.061035
8023511791,0.01412964,0.00369263,-0.99545288,-0.061035,0.183105,-0.061035
8031092166,0.01412964,0.00369263,-0.99545288,0.122070,0.061035,0.000000
8033630583,0.01376343,0.00363159,-0.99612427,0.122070,0.061035,0.000000
8041205458,0.01376343,0.00363159,-0.99612427,0.061035,0.061035,-0.061035
8043743833,0.01361084,0.00515747,-0.99580383,0.061035,0.061035,-0.061035
8051340041,0.01361084,0.00515747,-0.99580383,0.061035,0.183105,-0.183105
8053875791,0.01359558,0.00415039,-0.99479675,0.061035,0.183105,-0.183105
8058969875,0.01359558,0.00415039,-0.99479675,0.183105,0.305176,-0.122070
8064025291,0.01356506,0.00372314,-0.99543762,0.183105,0.305176,-0.122070
8069086541,0.01356506,0.00372314,-0.99543762,0.000000,0.122070,-0.122070
8074147125,0.01365662,0.00373840,-0.99479675,0.000000,0.122070,-0.122070
8079204250,0.01365662,0.00373840,-0.99479675,0.061035,0.183105,0.061035
8084282375,0.01451111,0.00315857,-0.99499512,0.061035,0.183105,0.061035
8089352125,0.01451111,0.00315857,-0.99499512,0.244141,0.244141,0.000000
8094407583,0.01428223,0.00317383,-0.99534607,0.244141,0.244141,0.000000
8099464458,0.01428223,0.00317383,-0.99534607,0.122070,0.122070,-0.183105
8104523208,0.01538086,0.00415039,-0.99461365,0.122070,0.122070,-0.183105
8109579708,0.01538086,0.00415039,-0.99461365,0.000000,0.122070,-0.122070
8114652125,0.01368713,0.00361633,-0.99548340,0.000000,0.122070,-0.122070
8119708208,0.01368713,0.00361633,-0.99548340,0.000000,0.183105,-0.183105
8124793250,0.01376343,0.00309753,-0.99594116,0.000000,0.183105,-0.183105
8129872375,0.01376343,0.00309753,-0.99594116,-0.061035,0.122070,0.000000
8134943250,0.01289368,0.00294495,-0.99497986,-0.061035,0.122070,0.000000
8140012625,0.01289368,0.00294495,-0.99497986,0.061035,0.183105,-0.061035
8145068291,0.01306152,0.00314331,-0.99505615,0.061035,0.183105,-0.061035
8150125083,0.01306152,0.00314331,-0.99505615,0.061035,0.244141,-0.061035
8154761625,0.01239014,0.00392151,-0.99588013,0.061035,0.244141,-0.061035
8159528500,0.01239014,0.00392151,-0.99588013,0.000000,0.122070,-0.183105
8164607875,0.01257324,0.00466919,-0.99513245,0.000000,0.122070,-0.183105
8169666625,0.01257324,0.00466919,-0.99513245,0.061035,0.183105,-0.122070
8174722541,0.01217651,0.00524902,-0.99468994,0.061035,0.183105,-0.122070
8179788458,0.01217651,0.00524902,-0.99468994,0.000000,0.183105,0.000000
8184876500,0.01367188,0.00440979,-0.99501038,0.000000,0.183105,0.000000
8189950416,0.01367188,0.00440979,-0.99501038,0.061035,0.183105,-0.183105
8195013791,0.01416016,0.00492859,-0.99407959,0.061035,0.183105,-0.183105
8200072083,0.01416016,0.00492859,-0.99407959,0.122070,0.183105,-0.061035
8205132458,0.01397705,0.00431824,-0.99394226,0.122070,0.183105,-0.061035
8210191375,0.01397705,0.00431824,-0.99394226,0.061035,0.183105,-0.122070
