timestamp_ns,accel_x,accel_y,accel_z,gyro_x,gyro_y,gyro_z
96225166,0.01257324,0.00042725,-0.99620056,0.000000,0.000000,0.000000
98881375,0.01257324,0.00042725,-0.99620056,0.000000,0.183105,-0.061035
104069416,0.01181030,0.00137329,-0.99644470,0.000000,0.183105,-0.061035
106858666,0.01181030,0.00137329,-0.99644470,0.061035,0.183105,-0.122070
120778250,0.01220703,0.00225830,-0.99681091,0.000000,0.061035,-0.244141
132256000,0.01306152,0.00248718,-0.99617004,0.061035,0.183105,-0.183105
134988125,0.01353455,0.00404358,-0.99647522,0.061035,0.122070,-0.061035
145513791,0.01382446,0.00511169,-0.99642944,0.122070,0.122070,-0.183105
155837125,0.01426697,0.00448608,-0.99697876,0.000000,0.122070,-0.183105
165112375,0.01275635,0.00456238,-0.99681091,0.000000,0.122070,-0.183105
167624958,0.01275635,0.00456238,-0.99681091,0.122070,0.183105,-0.061035
176011333,0.01232910,0.00500488,-0.99745178,0.183105,0.183105,-0.183105
183562375,0.01289368,0.00338745,-0.99679565,0.183105,0.183105,-0.183105
186091625,0.01289368,0.00338745,-0.99679565,0.122070,0.122070,-0.183105
193620666,0.01208496,0.00296021,-0.99555969,0.122070,0.122070,-0.183105
196129583,0.01208496,0.00296021,-0.99555969,0.122070,0.244141,-0.122070
203651250,0.01245117,0.00285339,-0.99707031,0.122070,0.244141,-0.122070
206163791,0.01245117,0.00285339,-0.99707031,0.061035,0.183105,-0.244141
213689708,0.01358032,0.00331116,-0.99720764,0.061035,0.183105,-0.244141
216203750,0.01358032,0.00331116,-0.99720764,0.000000,0.061035,-0.061035
223737041,0.01361084,0.00260925,-0.99601746,0.000000,0.061035,-0.061035
226246416,0.01361084,0.00260925,-0.99601746,0.061035,0.183105,-0.122070
236307458,0.01385498,0.00370789,-0.99462891,0.000000,0.244141,-0.061035
243835833,0.01268005,0.00389099,-0.99563599,0.000000,0.244141,-0.061035
246350333,0.01268005,0.00389099,-0.99563599,0.000000,0.183105,-0.122070
256416416,0.01293945,0.00326538,-0.99511719,0.122070,0.244141,-0.061035
266499500,0.01325989,0.00354004,-0.99578857,0.061035,0.244141,-0.061035
274081500,0.01298523,0.00408936,-0.99647522,0.061035,0.244141,-0.061035
276594875,0.01298523,0.00408936,-0.99647522,0.000000,0.244141,-0.183105
284157708,0.01435852,0.00544739,-0.99626160,0.000000,0.244141,-0.183105
286673416,0.01435852,0.00544739,-0.99626160,0.061035,0.183105,-0.061035
294225666,0.01409912,0.00524902,-0.99588013,0.061035,0.183105,-0.061035
296754208,0.01409912,0.00524902,-0.99588013,0.183105,0.122070,-0.061035
304314041,0.01261902,0.00411987,-0.99607849,0.183105,0.122070,-0.061035
306849083,0.01261902,0.00411987,-0.99607849,0.000000,0.061035,0.061035
314410500,0.01269531,0.00413513,-0.99607849,0.000000,0.061035,0.061035
316942916,0.01269531,0.00413513,-0.99607849,0.122070,0.183105,-0.122070
324499875,0.01321411,0.00337219,-0.99627686,0.122070,0.183105,-0.122070
327012375,0.01321411,0.00337219,-0.99627686,0.061035,0.183105,-0.122070
334570541,0.01190186,0.00262451,-0.99623108,0.061035,0.183105,-0.122070
337086708,0.01190186,0.00262451,-0.99623108,0.061035,0.244141,0.000000
344641625,0.01141357,0.00282288,-0.99641418,0.061035,0.244141,0.000000
347173500,0.01141357,0.00282288,-0.99641418,0.122070,0.061035,-0.061035
354743166,0.01170349,0.00190735,-0.99543762,0.122070,0.061035,-0.061035
357274750,0.01170349,0.00190735,-0.99543762,0.122070,0.183105,-0.122070
364867125,0.01176453,0.00245667,-0.99508667,0.122070,0.183105,-0.122070
367398333,0.01176453,0.00245667,-0.99508667,0.061035,0.183105,-0.061035
374963708,0.01187134,0.00317383,-0.99542236,0.061035,0.183105,-0.061035
377489458,0.01187134,0.00317383,-0.99542236,0.061035,0.244141,-0.122070
385067875,0.01298523,0.00317383,-0.99633789,0.061035,0.244141,-0.122070
387604000,0.01298523,0.00317383,-0.99633789,0.000000,0.122070,-0.061035
395162375,0.01249695,0.00389099,-0.99633789,0.122070,0.305176,0.000000
405325500,0.01249695,0.00396729,-0.99617004,0.061035,0.061035,-0.183105
415453541,0.01376343,0.00424194,-0.99627686,0.061035,0.000000,-0.122070
425108375,0.01367188,0.00396729,-0.99696350,0.061035,0.000000,-0.122070
427685041,0.01367188,0.00396729,-0.99696350,0.061035,0.427246,-0.061035
435062416,0.01275635,0.00544739,-0.99731445,0.061035,0.427246,-0.061035
437614208,0.01275635,0.00544739,-0.99731445,0.061035,0.244141,-0.122070
444778958,0.01274109,0.00518799,-0.99537659,0.061035,0.244141,-0.122070
447316500,0.01274109,0.00518799,-0.99537659,0.000000,0.122070,0.000000
454916875,0.01359558,0.00399780,-0.99494934,0.000000,0.122070,0.000000
457460875,0.01359558,0.00399780,-0.99494934,0.122070,0.122070,-0.061035
465045708,0.01350403,0.00288391,-0.99592590,0.122070,0.122070,-0.061035
467606875,0.01350403,0.00288391,-0.99592590,-0.061035,0.183105,-0.061035
475010833,0.01315308,0.00271606,-0.99763489,-0.061035,0.183105,-0.061035
477568166,0.01315308,0.00271606,-0.99763489,0.000000,0.244141,-0.183105
484830958,0.01301575,0.00244141,-0.99668884,0.000000,0.244141,-0.183105
487073375,0.01301575,0.00244141,-0.99668884,0.061035,0.183105,-0.122070
494158500,0.01321411,0.00234985,-0.99548340,0.061035,0.183105,-0.122070
496716625,0.01321411,0.00234985,-0.99548340,0.122070,0.183105,-0.061035
506485791,0.01371765,0.00260925,-0.99575806,0.061035,0.305176,-0.122070
516619833,0.01286316,0.00268555,-0.99635315,0.061035,0.122070,-0.244141
524567125,0.01287842,0.00280762,-0.99833679,0.061035,0.122070,-0.244141
527159916,0.01287842,0.00280762,-0.99833679,0.061035,0.122070,-0.061035
534779250,0.01255798,0.00352478,-0.99655151,0.061035,0.122070,-0.061035
537380125,0.01255798,0.00352478,-0.99655151,0.122070,0.244141,-0.183105
545037041,0.01376343,0.00299072,-0.99632263,0.122070,0.244141,-0.183105
547610166,0.01376343,0.00299072,-0.99632263,0.061035,0.122070,-0.183105
555247708,0.01353455,0.00399780,-0.99588013,0.061035,0.122070,-0.183105
557798625,0.01353455,0.00399780,-0.99588013,0.000000,0.244141,-0.183105
565382250,0.01245117,0.00468445,-0.99624634,0.000000,0.244141,-0.183105
567934125,0.01245117,0.00468445,-0.99624634,0.000000,0.305176,-0.122070
575692833,0.01223755,0.00465393,-0.99661255,0.061035,0.244141,-0.061035
585410666,0.01293945,0.00466919,-0.99645996,0.061035,0.244141,-0.061035
587976583,0.01293945,0.00466919,-0.99645996,0.000000,0.183105,-0.183105
595556375,0.01274109,0.00410461,-0.99681091,0.000000,0.183105,-0.183105
598081791,0.01274109,0.00410461,-0.99681091,0.122070,0.244141,-0.061035
605676791,0.01219177,0.00413513,-0.99699402,0.122070,0.244141,-0.061035
608051083,0.01219177,0.00413513,-0.99699402,0.061035,0.061035,-0.061035
615737875,0.01258850,0.00297546,-0.99510193,0.061035,0.061035,-0.061035
620444666,0.01258850,0.00297546,-0.99510193,0.122070,0.183105,-0.061035
625730250,0.01177979,0.00303650,-0.99586487,0.122070,0.183105,-0.061035
628341000,0.01177979,0.00303650,-0.99586487,-0.122070,0.122070,-0.183105
635546333,0.01220703,0.00259399,-0.99693298,-0.122070,0.122070,-0.183105
638121416,0.01220703,0.00259399,-0.99693298,-0.061035,0.244141,0.000000
645867708,0.01313782,0.00248718,-0.99607849,-0.061035,0.244141,0.000000
648791916,0.01313782,0.00248718,-0.99607849,0.061035,0.122070,-0.061035
661979750,0.01325989,0.00187683,-0.99645996,0.183105,0.183105,-0.061035
664644333,0.01318359,0.00254822,-0.99676514,0.183105,0.183105,-0.061035
667218083,0.01318359,0.00254822,-0.99676514,0.061035,0.122070,-0.183105
676993541,0.01309204,0.00387573,-0.99525452,0.061035,0.183105,-0.183105
686873291,0.01365662,0.00436401,-0.99673462,0.122070,0.122070,-0.122070
696734500,0.01324463,0.00421143,-0.99598694,0.000000,0.122070,-0.122070
706861583,0.01202393,0.00485229,-0.99578857,0.061035,0.244141,-0.122070
716521083,0.01232910,0.00450134,-0.99635315,0.061035,0.061035,0.000000
725908666,0.01153564,0.00334167,-0.99609375,0.061035,0.061035,0.000000
728478333,0.01153564,0.00334167,-0.99609375,0.122070,0.122070,-0.183105
736258041,0.01336670,0.00321960,-0.99592590,0.122070,0.183105,-0.122070
746079583,0.01214600,0.00361633,-0.99676514,0.122070,0.122070,-0.061035
756238916,0.01211548,0.00299072,-0.99688721,0.061035,0.183105,-0.122070
770149583,0.01242065,0.00244141,-0.99684143,-0.061035,0.122070,-0.122070
775295000,0.01353455,0.00338745,-0.99598694,-0.061035,0.122070,-0.122070
777968916,0.01353455,0.00338745,-0.99598694,0.061035,0.061035,-0.122070
785771166,0.01182556,0.00332642,-0.99542236,0.061035,0.061035,-0.122070
788397625,0.01182556,0.00332642,-0.99542236,-0.061035,0.305176,-0.061035
796069916,0.01168823,0.00288391,-0.99711609,-0.061035,0.305176,-0.122070
806239041,0.01260376,0.00393677,-0.99650574,0.000000,0.183105,-0.061035
816378875,0.01220703,0.00390625,-0.99682617,0.122070,0.244141,0.061035
826517541,0.01287842,0.00338745,-0.99636841,0.061035,0.122070,-0.183105
836246750,0.01319885,0.00415039,-0.99662781,0.122070,0.183105,-0.061035
846177791,0.01263428,0.00437927,-0.99685669,0.122070,0.183105,-0.061035
848762375,0.01263428,0.00437927,-0.99685669,0.061035,0.183105,-0.061035
856381500,0.01235962,0.00308228,-0.99504089,0.000000,0.244141,0.000000
866614708,0.01394653,0.00314331,-0.99723816,0.244141,0.183105,-0.122070
876689750,0.01434326,0.00257874,-0.99650574,0.000000,0.183105,-0.122070
886476833,0.01235962,0.00242615,-0.99697876,-0.061035,0.244141,-0.183105
896660583,0.01200867,0.00328064,-0.99693298,-0.061035,0.183105,-0.061035
906807916,0.01255798,0.00363159,-0.99551392,0.061035,0.183105,-0.122070
916537125,0.01303101,0.00381470,-0.99653625,0.122070,0.122070,0.000000
926673916,0.01287842,0.00453186,-0.99642944,0.061035,0.244141,0.000000
936443000,0.01292419,0.00497437,-0.99606323,0.000000,0.183105,-0.061035
946569625,0.01385498,0.00483704,-0.99588013,0.122070,0.122070,-0.122070
956723375,0.01362610,0.00477600,-0.99627686,0.061035,0.122070,-0.183105
966433375,0.01237488,0.00346375,-0.99650574,0.061035,0.122070,-0.183105
968975083,0.01237488,0.00346375,-0.99650574,0.061035,0.183105,-0.122070
976569250,0.01255798,0.00242615,-0.99697876,0.183105,0.183105,-0.061035
986722750,0.01364136,0.00253296,-0.99662781,0.000000,0.061035,-0.122070
996858750,0.01312256,0.00321960,-0.99661255,-0.061035,0.183105,-0.061035
1007001375,0.01266479,0.00262451,-0.99697876,0.122070,0.183105,-0.122070
1017149500,0.01309204,0.00218201,-0.99562073,0.183105,0.305176,-0.183105
1027298333,0.01200867,0.00294495,-0.99504089,0.000000,0.122070,-0.122070
1037401500,0.01246643,0.00315857,-0.99652100,0.000000,0.061035,-0.305176
1047094833,0.01353455,0.00251770,-0.99562073,0.000000,0.061035,-0.305176
1049662625,0.01353455,0.00251770,-0.99562073,0.061035,0.122070,-0.061035
1057291375,0.01184082,0.00375366,-0.99705505,0.061035,0.122070,-0.122070
1067434458,0.01188660,0.00340271,-0.99581909,0.061035,0.244141,0.000000
1077573875,0.01202393,0.00366211,-0.99565125,0.000000,0.305176,-0.122070
1087531291,0.01307678,0.00505066,-0.99610901,0.000000,0.183105,-0.122070
1097374875,0.01315308,0.00442505,-0.99679565,0.061035,0.305176,0.061035
1107532375,0.01348877,0.00303650,-0.99647522,0.000000,0.183105,-0.122070
1117660291,0.01377869,0.00309753,-0.99559021,0.000000,0.305176,-0.122070
1127737416,0.01350403,0.00390625,-0.99601746,0.061035,0.183105,-0.183105
1137858250,0.01202393,0.00421143,-0.99688721,0.000000,0.122070,-0.122070
1147989916,0.01266479,0.00430298,-0.99652100,0.061035,-0.122070,0.000000
1158161166,0.01277161,0.00311279,-0.99601746,0.000000,0.061035,-0.244141
1168286583,0.01269531,0.00381470,-0.99642944,0.061035,0.183105,-0.061035
1178432125,0.01278687,0.00254822,-0.99682617,0.122070,0.183105,-0.122070
1188394208,0.01293945,0.00283813,-0.99627686,0.061035,0.183105,-0.122070
1198296666,0.01332092,0.00227356,-0.99589539,0.061035,0.183105,-0.183105
1208420833,0.01274109,0.00302124,-0.99644470,0.183105,0.244141,0.000000
1218581166,0.01220703,0.00375366,-0.99757385,0.061035,0.366211,-0.122070
1228719041,0.01242065,0.00286865,-0.99566650,0.061035,0.122070,-0.061035
1236320208,0.01191711,0.00396729,-0.99615479,0.061035,0.122070,-0.061035
1238858041,0.01191711,0.00396729,-0.99615479,0.061035,0.061035,-0.061035
1246460458,0.01298523,0.00454712,-0.99482727,0.061035,0.061035,-0.061035
1249004166,0.01298523,0.00454712,-0.99482727,0.000000,0.122070,-0.061035
1256261375,0.01303101,0.00357056,-0.99610901,0.000000,0.122070,-0.061035
1258894333,0.01303101,0.00357056,-0.99610901,0.122070,0.183105,0.000000
1266228416,0.01347351,0.00508118,-0.99649048,0.122070,0.183105,0.000000
1268773958,0.01347351,0.00508118,-0.99649048,0.000000,0.061035,-0.061035
1278414250,0.01251221,0.00479126,-0.99696350,0.061035,0.183105,0.000000
1288540583,0.01304626,0.00358582,-0.99668884,0.000000,0.244141,-0.183105
1296126625,0.01278687,0.00395203,-0.99700928,0.000000,0.244141,-0.183105
1298220833,0.01278687,0.00395203,-0.99700928,0.061035,0.061035,-0.061035
1307990125,0.01286316,0.00370789,-0.99670410,0.061035,0.122070,-0.122070
1318141541,0.01260376,0.00282288,-0.99697876,0.061035,0.305176,-0.061035
1328367250,0.01234436,0.00311279,-0.99647522,0.061035,0.122070,-0.061035
1338512166,0.01269531,0.00352478,-0.99626160,0.061035,0.122070,-0.183105
1346161208,0.01301575,0.00190735,-0.99630737,0.061035,0.122070,-0.183105
1348520875,0.01301575,0.00190735,-0.99630737,0.000000,0.183105,-0.183105
1356239208,0.01313782,0.00302124,-0.99641418,0.000000,0.183105,-0.183105
1358817625,0.01313782,0.00302124,-0.99641418,0.122070,0.244141,-0.183105
1366409833,0.01272583,0.00300598,-0.99682617,0.122070,0.244141,-0.183105
1368949500,0.01272583,0.00300598,-0.99682617,0.061035,0.183105,-0.244141
1376496458,0.01316833,0.00305176,-0.99694824,0.061035,0.183105,-0.244141
1379077000,0.01316833,0.00305176,-0.99694824,0.061035,0.122070,-0.122070
1386741875,0.01216125,0.00334167,-0.99551392,0.061035,0.122070,-0.122070
1389305250,0.01216125,0.00334167,-0.99551392,0.122070,0.183105,-0.183105
1396408250,0.01197815,0.00395203,-0.99633789,0.122070,0.183105,-0.183105
1398955375,0.01197815,0.00395203,-0.99633789,0.122070,0.183105,-0.122070
1406548000,0.01376343,0.00277710,-0.99647522,0.122070,0.183105,-0.122070
1409081041,0.01376343,0.00277710,-0.99647522,0.122070,0.244141,-0.061035
1416371958,0.01298523,0.00433350,-0.99597168,0.122070,0.244141,-0.061035
1418598083,0.01298523,0.00433350,-0.99597168,0.061035,0.183105,-0.183105
1426583791,0.01275635,0.00373840,-0.99462891,0.061035,0.183105,-0.183105
1429163541,0.01275635,0.00373840,-0.99462891,0.122070,0.183105,-0.122070
1436775750,0.01286316,0.00344849,-0.99621582,0.122070,0.183105,-0.122070
1438927083,0.01286316,0.00344849,-0.99621582,0.061035,0.305176,0.000000
1446580958,0.01387024,0.00372314,-0.99487305,0.061035,0.305176,0.000000
1449137000,0.01387024,0.00372314,-0.99487305,0.061035,0.183105,-0.122070
1456565958,0.01283264,0.00363159,-0.99639893,0.061035,0.183105,-0.122070
1459146375,0.01283264,0.00363159,-0.99639893,0.061035,0.183105,-0.183105
1468381625,0.01335144,0.00334167,-0.99699402,0.000000,0.183105,-0.122070
1478603375,0.01373291,0.00283813,-0.99607849,0.061035,0.244141,-0.122070
1488756458,0.01319885,0.00318909,-0.99559021,0.244141,0.244141,-0.244141
1501416291,0.01286316,0.00369263,-0.99583435,0.122070,0.122070,-0.183105
1508740791,0.01322937,0.00357056,-0.99734497,0.061035,0.244141,-0.061035
1518860291,0.01335144,0.00297546,-0.99690247,0.122070,0.183105,-0.122070
1528980750,0.01251221,0.00366211,-0.99578857,0.061035,0.244141,-0.183105
1536601250,0.01199341,0.00363159,-0.99624634,0.061035,0.244141,-0.183105
1539153333,0.01199341,0.00363159,-0.99624634,-0.061035,0.061035,-0.061035
1546729541,0.01261902,0.00343323,-0.99627686,-0.061035,0.061035,-0.061035
1549278375,0.01261902,0.00343323,-0.99627686,0.244141,0.244141,-0.122070
1556863750,0.01278687,0.00415039,-0.99624634,0.244141,0.244141,-0.122070
1559406375,0.01278687,0.00415039,-0.99624634,0.061035,0.183105,-0.061035
1566993041,0.01316833,0.00332642,-0.99606323,0.061035,0.183105,-0.061035
1569524000,0.01316833,0.00332642,-0.99606323,0.244141,0.244141,-0.122070
1577119000,0.01223755,0.00321960,-0.99601746,0.244141,0.244141,-0.122070
1579405208,0.01223755,0.00321960,-0.99601746,0.061035,0.122070,-0.061035
1589541083,0.01338196,0.00410461,-0.99580383,0.183105,0.183105,-0.122070
1597179708,0.01242065,0.00376892,-0.99687195,0.183105,0.183105,-0.122070
1599742291,0.01242065,0.00376892,-0.99687195,0.000000,0.244141,-0.122070
1607674916,0.01225281,0.00392151,-0.99647522,0.000000,0.244141,-0.122070
1610318208,0.01225281,0.00392151,-0.99647522,-0.061035,0.183105,-0.061035
1617965208,0.01258850,0.00294495,-0.99656677,-0.061035,0.183105,-0.061035
1620522125,0.01258850,0.00294495,-0.99656677,0.061035,0.183105,-0.061035
1628209416,0.01255798,0.00354004,-0.99642944,0.061035,0.122070,-0.122070
1637965291,0.01306152,0.00347900,-0.99644470,0.061035,0.122070,-0.122070
1640539333,0.01306152,0.00347900,-0.99644470,0.061035,0.183105,-0.183105
1648161791,0.01293945,0.00357056,-0.99662781,0.061035,0.244141,-0.061035
1658302208,0.01171875,0.00408936,-0.99635315,-0.122070,0.183105,-0.061035
1668424875,0.01144409,0.00364685,-0.99784851,0.061035,0.183105,-0.183105
1678307250,0.01269531,0.00329590,-0.99690247,0.183105,0.122070,0.000000
1687968291,0.01306152,0.00381470,-0.99597168,0.183105,0.122070,0.000000
1690324625,0.01306152,0.00381470,-0.99597168,0.122070,0.183105,-0.183105
1697599166,0.01452637,0.00369263,-0.99658203,0.122070,0.183105,-0.183105
1700138958,0.01452637,0.00369263,-0.99658203,0.183105,0.244141,0.000000
1707453250,0.01351929,0.00347900,-0.99674988,0.183105,0.244141,0.000000
1710006833,0.01351929,0.00347900,-0.99674988,-0.061035,0.122070,0.000000
1717192208,0.01284790,0.00415039,-0.99723816,-0.061035,0.122070,0.000000
1719773416,0.01284790,0.00415039,-0.99723816,0.244141,0.244141,-0.061035
1727391875,0.01300049,0.00396729,-0.99514771,0.244141,0.244141,-0.061035
1729949291,0.01300049,0.00396729,-0.99514771,0.183105,0.366211,-0.183105
1737544958,0.01232910,0.00309753,-0.99632263,0.183105,0.366211,-0.183105
1740070791,0.01232910,0.00309753,-0.99632263,0.000000,0.244141,-0.122070
1747633708,0.01235962,0.00283813,-0.99707031,0.000000,0.244141,-0.122070
1750161416,0.01235962,0.00283813,-0.99707031,0.183105,0.183105,-0.061035
1757785458,0.01216125,0.00410461,-0.99624634,0.183105,0.183105,-0.061035
1760331416,0.01216125,0.00410461,-0.99624634,0.122070,0.183105,-0.061035
1767905750,0.01242065,0.00267029,-0.99546814,0.122070,0.183105,-0.061035
1770433583,0.01242065,0.00267029,-0.99546814,0.061035,0.122070,-0.122070
1778016583,0.01219177,0.00277710,-0.99591064,0.061035,0.122070,-0.122070
1780545125,0.01219177,0.00277710,-0.99591064,0.122070,0.122070,-0.183105
1788076708,0.01316833,0.00384521,-0.99613953,0.122070,0.122070,-0.183105
1790634875,0.01316833,0.00384521,-0.99613953,0.061035,0.183105,-0.122070
1797545416,0.01338196,0.00271606,-0.99736023,0.061035,0.183105,-0.122070
1800099541,0.01338196,0.00271606,-0.99736023,0.061035,0.183105,0.000000
1807422958,0.01310730,0.00292969,-0.99667358,0.061035,0.183105,0.000000
1809967166,0.01310730,0.00292969,-0.99667358,-0.061035,0.122070,-0.122070
1817579041,0.01307678,0.00392151,-0.99604797,-0.061035,0.122070,-0.122070
1820136250,0.01307678,0.00392151,-0.99604797,0.122070,0.183105,-0.183105
1827617333,0.01269531,0.00354004,-0.99641418,0.122070,0.183105,-0.183105
1830158250,0.01269531,0.00354004,-0.99641418,0.061035,0.183105,-0.122070
1837766125,0.01333618,0.00288391,-0.99641418,0.061035,0.183105,-0.122070
1840315000,0.01333618,0.00288391,-0.99641418,0.000000,0.183105,-0.122070
1847908208,0.01280212,0.00263977,-0.99713135,0.000000,0.183105,-0.122070
1850445250,0.01280212,0.00263977,-0.99713135,0.305176,0.244141,-0.244141
1858045958,0.01329041,0.00399780,-0.99591064,0.305176,0.244141,-0.244141
1860581791,0.01329041,0.00399780,-0.99591064,0.000000,0.122070,-0.122070
1868167708,0.01303101,0.00325012,-0.99653625,0.000000,0.122070,-0.122070
1870649083,0.01303101,0.00325012,-0.99653625,0.122070,0.183105,-0.061035
1878139000,0.01295471,0.00276184,-0.99623108,0.122070,0.183105,-0.061035
1880207708,0.01295471,0.00276184,-0.99623108,0.183105,0.122070,-0.122070
1887444833,0.01327515,0.00196838,-0.99617004,0.183105,0.122070,-0.122070
1889973250,0.01327515,0.00196838,-0.99617004,0.122070,0.244141,-0.122070
1897535208,0.01400757,0.00146484,-0.99444580,0.122070,0.244141,-0.122070
1900089833,0.01400757,0.00146484,-0.99444580,0.183105,0.244141,-0.122070
1907711458,0.01356506,0.00218201,-0.99560547,0.183105,0.244141,-0.122070
1909919541,0.01356506,0.00218201,-0.99560547,0.061035,0.183105,0.000000
1917515708,0.01268005,0.00265503,-0.99650574,0.061035,0.183105,0.000000
1920061708,0.01268005,0.00265503,-0.99650574,0.244141,0.122070,-0.183105
1927527541,0.01216125,0.00273132,-0.99645996,0.244141,0.122070,-0.183105
1930091041,0.01216125,0.00273132,-0.99645996,0.122070,0.183105,-0.183105
1937704666,0.01240540,0.00378418,-0.99633789,0.122070,0.183105,-0.183105
1940264958,0.01240540,0.00378418,-0.99633789,0.061035,0.244141,0.000000
1947552333,0.01281738,0.00410461,-0.99781799,0.061035,0.244141,0.000000
1950105375,0.01281738,0.00410461,-0.99781799,0.000000,0.183105,-0.244141
1957718708,0.01210022,0.00604248,-0.99633789,0.000000,0.183105,-0.244141
1960257708,0.01210022,0.00604248,-0.99633789,0.183105,0.183105,-0.122070
1967863291,0.01170349,0.00610352,-0.99516296,0.183105,0.183105,-0.122070
1970416416,0.01170349,0.00610352,-0.99516296,0.061035,0.000000,-0.061035
1979781583,0.01123047,0.00578308,-0.99504089,0.122070,0.244141,0.000000
1989946125,0.01161194,0.00559998,-0.99696350,0.000000,0.183105,-0.122070
1999839833,0.01295471,0.00468445,-0.99667358,0.061035,0.305176,-0.061035
2009825375,0.01211548,0.00399780,-0.99594116,0.061035,0.244141,-0.061035
2019969875,0.01277161,0.00216675,-0.99575806,0.000000,0.183105,-0.122070
2030094875,0.01211548,0.00149536,-0.99577332,0.000000,0.061035,-0.244141
2040244208,0.01292419,0.00093079,-0.99636841,0.183105,0.183105,-0.061035
2049903041,0.01353455,0.00128174,-0.99659729,0.122070,0.183105,-0.061035
2059992500,0.01333618,0.00048828,-0.99760437,0.122070,0.183105,-0.061035
2070043416,0.01225281,0.00175476,-0.99673462,0.122070,0.122070,-0.122070
2079782416,0.01228333,0.00234985,-0.99588013,0.122070,0.183105,-0.061035
2089939083,0.01246643,0.00262451,-0.99615479,0.122070,0.183105,-0.244141
2100107541,0.01306152,0.00355530,-0.99472046,0.305176,0.183105,-0.183105
2110045375,0.01156616,0.00442505,-0.99475098,0.183105,0.183105,-0.061035
2120176750,0.01300049,0.00486755,-0.99655151,0.061035,0.244141,-0.061035
2130211041,0.01330566,0.00480652,-0.99931335,0.061035,0.122070,-0.061035
2140339750,0.01315308,0.00559998,-0.99752808,0.122070,0.122070,-0.061035
2150497208,0.01390076,0.00520325,-0.99411011,0.122070,0.244141,-0.122070
2158184416,0.01490784,0.00347900,-0.99563599,0.122070,0.244141,-0.122070
2160745083,0.01490784,0.00347900,-0.99563599,0.000000,0.183105,-0.061035
2168372541,0.01464844,0.00222778,-0.99775696,0.000000,0.183105,-0.061035
2170919666,0.01464844,0.00222778,-0.99775696,0.122070,0.305176,-0.061035
2178553750,0.01382446,0.00212097,-0.99589539,0.122070,0.305176,-0.061035
2181101958,0.01382446,0.00212097,-0.99589539,0.061035,0.244141,-0.244141
2188708125,0.01338196,0.00210571,-0.99533081,0.061035,0.244141,-0.244141
2191263000,0.01338196,0.00210571,-0.99533081,0.122070,0.122070,-0.122070
2198666166,0.01225281,0.00268555,-0.99652100,0.122070,0.122070,-0.122070
2201190000,0.01225281,0.00268555,-0.99652100,0.000000,0.122070,-0.122070
2208772291,0.01200867,0.00280762,-0.99513245,0.000000,0.122070,-0.122070
2211320791,0.01200867,0.00280762,-0.99513245,0.122070,0.244141,-0.061035
2218926708,0.01194763,0.00378418,-0.99447632,0.122070,0.244141,-0.061035
2221469541,0.01194763,0.00378418,-0.99447632,0.122070,0.122070,0.000000
2229077416,0.01164246,0.00418091,-0.99583435,0.122070,0.122070,0.000000
2231554291,0.01164246,0.00418091,-0.99583435,0.366211,0.061035,-0.122070
2239164416,0.01181030,0.00361633,-0.99522400,0.366211,0.061035,-0.122070
2241709375,0.01181030,0.00361633,-0.99522400,0.183105,0.122070,-0.183105
2249307875,0.01234436,0.00318909,-0.99641418,0.183105,0.122070,-0.183105
2251841958,0.01234436,0.00318909,-0.99641418,-0.061035,0.244141,-0.122070
2259441833,0.01242065,0.00273132,-0.99945068,-0.061035,0.000000,-0.122070
2269718125,0.01205444,0.00190735,-0.99720764,0.061035,0.183105,0.000000
2279850291,0.01254272,0.00193787,-0.99604797,0.000000,0.183105,-0.122070
2289953458,0.01289368,0.00241089,-0.99636841,-0.122070,0.183105,-0.183105
2300069000,0.01406860,0.00236511,-0.99662781,0.000000,0.061035,-0.061035
2310257791,0.01281738,0.00207520,-0.99598694,0.122070,0.183105,-0.122070
2320413375,0.01200867,0.00370789,-0.99465942,0.000000,0.244141,-0.061035
2330357208,0.01194763,0.00370789,-0.99665833,0.061035,0.305176,-0.183105
2340540541,0.01193237,0.00440979,-0.99630737,0.000000,0.305176,0.000000
2350721500,0.01252747,0.00463867,-0.99583435,0.000000,0.183105,-0.122070
2360879375,0.01264954,0.00473022,-0.99685669,0.000000,0.183105,-0.061035
2368474416,0.01315308,0.00379944,-0.99583435,0.000000,0.183105,-0.061035
2371015625,0.01315308,0.00379944,-0.99583435,0.122070,0.183105,-0.183105
2378641708,0.01371765,0.00349426,-0.99642944,0.122070,0.183105,-0.183105
2380898833,0.01371765,0.00349426,-0.99642944,0.000000,0.244141,-0.061035
2391050875,0.01422119,0.00190735,-0.99725342,0.061035,0.244141,-0.061035
2398658833,0.01336670,0.00135803,-0.99784851,0.061035,0.244141,-0.061035
2401200125,0.01336670,0.00135803,-0.99784851,-0.061035,0.183105,-0.061035
2408798833,0.01266479,0.00157166,-0.99655151,-0.061035,0.183105,-0.061035
2411336000,0.01266479,0.00157166,-0.99655151,0.000000,0.122070,-0.122070
2418950333,0.01168823,0.00233459,-0.99583435,0.000000,0.122070,-0.122070
2421497500,0.01168823,0.00233459,-0.99583435,0.061035,0.305176,-0.183105
2428879875,0.01181030,0.00276184,-0.99604797,0.061035,0.305176,-0.183105
2431429416,0.01181030,0.00276184,-0.99604797,0.000000,0.061035,-0.183105
2439030625,0.01170349,0.00292969,-0.99688721,0.000000,0.061035,-0.183105
2441570375,0.01170349,0.00292969,-0.99688721,0.061035,0.061035,-0.061035
2449174208,0.01181030,0.00219727,-0.99684143,0.061035,0.061035,-0.061035
2451724333,0.01181030,0.00219727,-0.99684143,0.061035,0.183105,-0.244141
2459318416,0.01284790,0.00294495,-0.99594116,0.061035,0.183105,-0.244141
2461860416,0.01284790,0.00294495,-0.99594116,0.061035,0.122070,-0.061035
2469465916,0.01329041,0.00315857,-0.99594116,0.061035,0.122070,-0.061035
2472006375,0.01329041,0.00315857,-0.99594116,0.000000,0.183105,-0.244141
2479591416,0.01266479,0.00349426,-0.99522400,0.000000,0.183105,-0.244141
2481942041,0.01266479,0.00349426,-0.99522400,0.183105,0.244141,-0.122070
2489557041,0.01322937,0.00259399,-0.99542236,0.183105,0.244141,-0.122070
2492114875,0.01322937,0.00259399,-0.99542236,0.061035,0.000000,-0.244141
2499761750,0.01271057,0.00312805,-0.99800110,0.061035,0.000000,-0.244141
2502287416,0.01271057,0.00312805,-0.99800110,0.061035,0.000000,-0.061035
2509872916,0.01329041,0.00254822,-0.99693298,0.061035,0.000000,-0.061035
2512448541,0.01329041,0.00254822,-0.99693298,0.061035,0.244141,-0.183105
2520071000,0.01264954,0.00378418,-0.99679565,0.183105,0.183105,-0.061035
2529739041,0.01277161,0.00379944,-0.99588013,0.183105,0.183105,-0.061035
2532279625,0.01277161,0.00379944,-0.99588013,0.061035,0.183105,-0.061035
2539469500,0.01315308,0.00408936,-0.99589539,0.061035,0.183105,-0.061035
2542013791,0.01315308,0.00408936,-0.99589539,0.122070,0.183105,-0.122070
2549610500,0.01205444,0.00427246,-0.99630737,0.122070,0.183105,-0.122070
2552154000,0.01205444,0.00427246,-0.99630737,-0.061035,0.183105,-0.122070
2559621916,0.01362610,0.00408936,-0.99670410,-0.061035,0.183105,-0.122070
2562160708,0.01362610,0.00408936,-0.99670410,0.000000,0.122070,-0.061035
2569764583,0.01402283,0.00341797,-0.99688721,0.000000,0.122070,-0.061035
2572307750,0.01402283,0.00341797,-0.99688721,0.061035,0.244141,-0.122070
2579446583,0.01286316,0.00247192,-0.99627686,0.061035,0.244141,-0.122070
2582005791,0.01286316,0.00247192,-0.99627686,0.061035,0.305176,-0.061035
2592172000,0.01309204,0.00227356,-0.99684143,0.061035,0.244141,-0.061035
2599777125,0.01414490,0.00228882,-0.99699402,0.061035,0.244141,-0.061035
2602027500,0.01414490,0.00228882,-0.99699402,0.000000,0.183105,-0.122070
2609650625,0.01402283,0.00202942,-0.99676514,0.000000,0.183105,-0.122070
2612198666,0.01402283,0.00202942,-0.99676514,0.000000,0.244141,-0.244141
2619810250,0.01309204,0.00216675,-0.99604797,0.000000,0.244141,-0.244141
2622349666,0.01309204,0.00216675,-0.99604797,0.122070,0.122070,-0.061035
2629718333,0.01322937,0.00296021,-0.99635315,0.122070,0.122070,-0.061035
2632269791,0.01322937,0.00296021,-0.99635315,0.122070,0.244141,-0.122070
2639865333,0.01324463,0.00312805,-0.99580383,0.122070,0.244141,-0.122070
2642410208,0.01324463,0.00312805,-0.99580383,0.061035,0.183105,-0.122070
2650009041,0.01275635,0.00396729,-0.99554443,0.061035,0.183105,-0.122070
2652549958,0.01275635,0.00396729,-0.99554443,0.000000,0.061035,-0.122070
2660049750,0.01296997,0.00428772,-0.99700928,0.000000,0.061035,-0.122070
2662594583,0.01296997,0.00428772,-0.99700928,0.122070,0.000000,-0.183105
2670207541,0.01312256,0.00389099,-0.99597168,0.122070,0.000000,-0.183105
2672745666,0.01312256,0.00389099,-0.99597168,0.000000,0.305176,-0.122070
2680336625,0.01271057,0.00361633,-0.99626160,0.000000,0.305176,-0.122070
2682887833,0.01271057,0.00361633,-0.99626160,0.122070,0.244141,-0.061035
2690551416,0.01214600,0.00357056,-0.99645996,0.061035,0.122070,-0.183105
2700619791,0.01303101,0.00320435,-0.99655151,0.061035,0.183105,0.000000
2710785750,0.01345825,0.00279236,-0.99607849,0.061035,0.183105,-0.122070
2720921416,0.01341248,0.00222778,-0.99665833,0.061035,0.183105,-0.122070
2731083916,0.01287842,0.00239563,-0.99639893,0.000000,0.183105,-0.122070
2741234500,0.01313782,0.00265503,-0.99472046,0.183105,0.122070,-0.061035
2751364125,0.01283264,0.00248718,-0.99668884,0.000000,0.244141,-0.122070
2761522666,0.01318359,0.00245667,-0.99717712,0.061035,0.122070,-0.122070
2771661000,0.01174927,0.00325012,-0.99708557,0.122070,0.244141,-0.122070
2781807583,0.01177979,0.00366211,-0.99620056,-0.061035,0.427246,-0.122070
2791277916,0.01287842,0.00411987,-0.99777222,0.122070,0.183105,-0.122070
2801151208,0.01397705,0.00350952,-0.99577332,0.122070,0.183105,-0.122070
2803719416,0.01397705,0.00350952,-0.99577332,0.000000,0.305176,-0.122070
2811327208,0.01329041,0.00349426,-0.99618530,0.061035,0.122070,-0.061035
2821415375,0.01217651,0.00329590,-0.99588013,0.000000,0.244141,-0.061035
2831290583,0.01286316,0.00268555,-0.99591064,0.122070,0.183105,0.000000
2841455416,0.01234436,0.00175476,-0.99690247,0.122070,0.183105,-0.061035
2851218666,0.01321411,0.00212097,-0.99581909,0.000000,0.000000,-0.061035
2861355125,0.01382446,0.00244141,-0.99566650,0.061035,0.122070,-0.122070
2871345458,0.01322937,0.00386047,-0.99537659,-0.061035,0.183105,-0.183105
2881136333,0.01313782,0.00396729,-0.99705505,0.000000,0.244141,-0.061035
2891258000,0.01345825,0.00444031,-0.99644470,0.000000,0.244141,-0.061035
2893802708,0.01345825,0.00444031,-0.99644470,0.061035,0.061035,-0.122070
2901397583,0.01304626,0.00450134,-0.99597168,-0.122070,0.183105,-0.244141
2911065791,0.01142883,0.00419617,-0.99589539,-0.122070,0.183105,-0.244141
2913622875,0.01142883,0.00419617,-0.99589539,0.122070,0.122070,-0.122070
2921232791,0.01242065,0.00308228,-0.99444580,0.122070,0.244141,-0.183105
2931375333,0.01301575,0.00421143,-0.99638367,0.122070,0.122070,-0.061035
2941265583,0.01298523,0.00453186,-0.99644470,0.122070,0.244141,-0.122070
2951303708,0.01327515,0.00334167,-0.99641418,0.183105,0.305176,-0.061035
2961223291,0.01301575,0.00241089,-0.99601746,0.000000,0.122070,-0.122070
2971366416,0.01257324,0.00234985,-0.99678040,0.061035,0.244141,-0.122070
2981468625,0.01324463,0.00177002,-0.99649048,-0.061035,0.122070,-0.061035
2991579708,0.01255798,0.00285339,-0.99594116,0.061035,0.305176,-0.183105
3001664750,0.01242065,0.00219727,-0.99688721,0.122070,0.244141,-0.122070
3011638458,0.01246643,0.00196838,-0.99549866,0.061035,0.244141,-0.122070
3021807333,0.01361084,0.00384521,-0.99676514,0.122070,0.183105,-0.122070
3031741041,0.01399231,0.00425720,-0.99662781,0.122070,0.061035,-0.122070
3041885041,0.01351929,0.00418091,-0.99674988,0.061035,0.183105,-0.122070
3052035833,0.01356506,0.00422668,-0.99690247,0.000000,0.183105,0.000000
3062184708,0.01339722,0.00355530,-0.99595642,0.000000,0.122070,-0.183105
3072343166,0.01327515,0.00337219,-0.99732971,-0.061035,0.061035,-0.061035
3081615791,0.01332092,0.00314331,-0.99707031,0.000000,0.244141,-0.061035
3091781166,0.01271057,0.00292969,-0.99584961,0.000000,0.244141,-0.183105
3101944458,0.01229858,0.00202942,-0.99586487,0.061035,0.183105,-0.122070
3112026375,0.01312256,0.00180054,-0.99595642,0.061035,0.061035,-0.122070
3122160625,0.01309204,0.00111389,-0.99639893,0.183105,0.244141,0.000000
3132245041,0.01260376,0.00180054,-0.99780273,0.122070,0.244141,-0.122070
3142355291,0.01303101,0.00233459,-0.99626160,0.061035,0.183105,-0.122070
3152476750,0.01382446,0.00260925,-0.99665833,-0.061035,0.122070,-0.061035
3162599333,0.01229858,0.00352478,-0.99693298,0.000000,0.244141,-0.122070
3172525000,0.01249695,0.00369263,-0.99736023,0.122070,0.183105,-0.061035
3182397500,0.01217651,0.00433350,-0.99859619,0.061035,0.122070,0.000000
3192069541,0.01368713,0.00367737,-0.99537659,0.061035,0.061035,-0.061035
3201928625,0.01420593,0.00318909,-0.99441528,0.000000,0.122070,-0.122070
3212067500,0.01440430,0.00329590,-0.99723816,-0.244141,0.122070,-0.061035
3222181208,0.01296997,0.00318909,-0.99717712,-0.183105,0.183105,-0.061035
3231823166,0.01109314,0.00469971,-0.99684143,-0.183105,0.183105,-0.061035
3234368625,0.01109314,0.00469971,-0.99684143,-0.122070,0.122070,0.061035
3241956500,0.01084900,0.00474548,-0.99565125,-0.122070,0.122070,0.061035
3244491041,0.01084900,0.00474548,-0.99565125,0.000000,0.244141,0.000000
3252093041,0.01158142,0.00430298,-0.99580383,-0.122070,0.244141,-0.183105
3262189541,0.01177979,0.00440979,-0.99583435,0.000000,0.305176,-0.061035
3272105000,0.01203918,0.00511169,-0.99609375,0.000000,0.244141,0.000000
3282261625,0.01272583,0.00486755,-0.99682617,-0.183105,0.183105,-0.183105
3291819916,0.01271057,0.00422668,-0.99624634,-0.183105,0.183105,-0.183105
3294349416,0.01271057,0.00422668,-0.99624634,0.000000,0.244141,-0.061035
3301927416,0.01470947,0.00361633,-0.99728394,0.000000,0.244141,-0.061035
3304221083,0.01470947,0.00361633,-0.99728394,0.000000,0.305176,-0.061035
3311816125,0.01457214,0.00103760,-0.99597168,0.000000,0.305176,-0.061035
3314354333,0.01457214,0.00103760,-0.99597168,0.000000,0.244141,0.000000
3321933583,0.01393127,-0.00067139,-0.99670410,0.000000,0.244141,0.000000
3324485416,0.01393127,-0.00067139,-0.99670410,0.122070,0.183105,-0.061035
3331859250,0.01367188,-0.00196838,-0.99517822,0.122070,0.183105,-0.061035
3334398916,0.01367188,-0.00196838,-0.99517822,-0.061035,0.122070,-0.122070
3341985791,0.01307678,-0.00137329,-0.99624634,-0.061035,0.122070,-0.122070
3344523708,0.01307678,-0.00137329,-0.99624634,-0.061035,0.183105,-0.061035
3352123041,0.01200867,-0.00027466,-0.99591064,0.183105,0.183105,-0.122070
3362136750,0.01243591,0.00210571,-0.99552917,-0.061035,0.183105,-0.305176
3372297500,0.01251221,0.00451660,-0.99598694,0.000000,0.244141,-0.183105
3382432291,0.01046753,0.00625610,-0.99641418,0.183105,0.122070,-0.061035
3392563208,0.01121521,0.00765991,-0.99797058,0.061035,0.183105,-0.122070
3402712041,0.01179504,0.00779724,-0.99778748,0.061035,0.183105,-0.122070
3412848333,0.01359558,0.00715637,-0.99720764,0.122070,0.244141,-0.061035
3422975833,0.01300049,0.00645447,-0.99623108,0.122070,0.183105,0.000000
3432897416,0.01367188,0.00567627,-0.99636841,0.122070,0.244141,0.000000
3442971916,0.01306152,0.00357056,-0.99589539,0.183105,0.183105,-0.061035
3452870416,0.01333618,0.00286865,-0.99618530,0.122070,0.183105,0.000000
3462582875,0.01298523,0.00326538,-0.99613953,-0.061035,0.122070,-0.183105
3472755958,0.01210022,0.00357056,-0.99569702,0.061035,0.244141,-0.122070
3482879833,0.01190186,0.00212097,-0.99676514,0.061035,0.244141,-0.061035
3493009375,0.01182556,0.00202942,-0.99658203,0.122070,0.183105,-0.122070
3503158625,0.01272583,0.00141907,-0.99707031,0.122070,0.183105,-0.122070
3513309208,0.01145935,0.00183105,-0.99612427,-0.122070,0.244141,-0.183105
3523454750,0.01193237,0.00201416,-0.99749756,0.000000,0.122070,-0.183105
3533598458,0.01310730,0.00090027,-0.99653625,0.122070,0.244141,-0.061035
3542867166,0.01284790,0.00131226,-0.99612427,0.000000,-0.061035,-0.183105
3552991333,0.01246643,0.00300598,-0.99714661,-0.061035,0.122070,0.000000
3563129500,0.01341248,0.00369263,-0.99664307,0.122070,0.183105,-0.183105
3573254375,0.01237488,0.00424194,-0.99707031,0.183105,0.244141,-0.244141
3583396666,0.01344299,0.00521851,-0.99664307,0.061035,0.061035,0.000000
3593510583,0.01324463,0.00485229,-0.99584961,0.061035,0.244141,-0.122070
3603602208,0.01199341,0.00529480,-0.99700928,0.122070,0.122070,-0.122070
3613526875,0.01286316,0.00550842,-0.99644470,0.000000,0.183105,-0.061035
3623361833,0.01322937,0.00440979,-0.99632263,0.122070,0.244141,-0.122070
3633510500,0.01266479,0.00392151,-0.99641418,-0.061035,0.305176,-0.122070
3643645375,0.01234436,0.00335693,-0.99606323,0.061035,0.244141,-0.183105
3653790541,0.01367188,0.00314331,-0.99592590,0.122070,0.244141,-0.061035
3661433125,0.01391602,0.00270081,-0.99688721,0.122070,0.244141,-0.061035
3663979541,0.01391602,0.00270081,-0.99688721,0.000000,0.183105,-0.122070
3671564583,0.01338196,0.00282288,-0.99812317,0.000000,0.183105,-0.122070
3674115750,0.01338196,0.00282288,-0.99812317,0.061035,0.305176,-0.122070
3681746916,0.01257324,0.00177002,-0.99742126,0.061035,0.305176,-0.122070
3684294083,0.01257324,0.00177002,-0.99742126,-0.061035,0.305176,-0.122070
3691956416,0.01197815,0.00228882,-0.99668884,-0.061035,0.305176,-0.122070
3694502666,0.01197815,0.00228882,-0.99668884,0.183105,0.305176,-0.183105
3702123541,0.01205444,0.00286865,-0.99645996,0.183105,0.305176,-0.183105
3704404875,0.01205444,0.00286865,-0.99645996,0.122070,0.122070,-0.122070
3711603083,0.01324463,0.00288391,-0.99716187,0.122070,0.122070,-0.122070
3714143208,0.01324463,0.00288391,-0.99716187,0.000000,0.183105,-0.122070
3721750166,0.01258850,0.00346375,-0.99678040,0.000000,0.183105,-0.122070
3724308916,0.01258850,0.00346375,-0.99678040,0.122070,0.183105,-0.183105
3731914416,0.01264954,0.00379944,-0.99662781,0.122070,0.183105,-0.183105
3734457166,0.01264954,0.00379944,-0.99662781,0.183105,0.122070,0.000000
3742044416,0.01318359,0.00436401,-0.99691772,0.183105,0.122070,0.000000
3744568291,0.01318359,0.00436401,-0.99691772,0.244141,0.122070,-0.061035
3751719541,0.01408386,0.00546265,-0.99548340,0.244141,0.122070,-0.061035
3754249250,0.01408386,0.00546265,-0.99548340,0.122070,0.244141,-0.061035
3761856791,0.01370239,0.00569153,-0.99751282,0.122070,0.244141,-0.061035
3764401375,0.01370239,0.00569153,-0.99751282,0.000000,0.122070,-0.183105
3771905041,0.01274109,0.00559998,-0.99505615,0.000000,0.122070,-0.183105
3774455541,0.01274109,0.00559998,-0.99505615,0.183105,0.244141,-0.061035
3784594083,0.01278687,0.00379944,-0.99853516,0.000000,0.183105,-0.122070
3792226750,0.01174927,0.00163269,-0.99444580,0.000000,0.183105,-0.122070
3794765958,0.01174927,0.00163269,-0.99444580,-0.061035,0.244141,-0.183105
3802332166,0.01235962,0.00025940,-0.99452209,-0.061035,0.244141,-0.183105
3804874291,0.01235962,0.00025940,-0.99452209,0.000000,0.183105,-0.183105
3812475458,0.01312256,0.00195312,-0.99887085,0.000000,0.183105,-0.183105
3815013791,0.01312256,0.00195312,-0.99887085,0.122070,0.183105,-0.122070
3822611208,0.01315308,0.00370789,-0.99684143,0.122070,0.183105,-0.122070
3825155750,0.01315308,0.00370789,-0.99684143,0.000000,0.305176,-0.183105
3832768541,0.01266479,0.00209045,-0.99433899,0.000000,0.305176,-0.183105
3835309916,0.01266479,0.00209045,-0.99433899,0.061035,0.244141,-0.061035
3842982958,0.01359558,0.00080872,-0.99713135,0.061035,0.244141,-0.061035
3845551458,0.01359558,0.00080872,-0.99713135,0.000000,0.183105,-0.183105
3853147291,0.01399231,0.00347900,-0.99794006,0.000000,0.244141,-0.122070
3863271291,0.01422119,0.00337219,-0.99601746,0.061035,0.061035,-0.183105
3873413208,0.01293945,0.00421143,-0.99833679,0.061035,0.183105,0.000000
3883301583,0.01194763,0.00575256,-0.99761963,-0.061035,0.183105,0.000000
3893424000,0.01150513,0.00556946,-0.99746704,0.183105,0.122070,0.000000
3903397833,0.00976562,0.00656128,-0.99455261,-0.061035,0.122070,-0.061035
3912568708,0.01332092,0.00517273,-0.99340820,-0.061035,0.122070,-0.061035
3915092791,0.01332092,0.00517273,-0.99340820,0.183105,0.061035,-0.061035
3922197458,0.01489258,0.00245667,-0.99867249,0.183105,0.061035,-0.061035
3924739791,0.01489258,0.00245667,-0.99867249,0.122070,0.061035,-0.061035
3932330166,0.01344299,0.00238037,-0.99757385,0.122070,0.061035,-0.061035
3934877791,0.01344299,0.00238037,-0.99757385,-0.061035,0.183105,-0.122070
3942469500,0.01296997,0.00187683,-0.99345398,-0.061035,0.183105,-0.122070
3945008916,0.01296997,0.00187683,-0.99345398,0.061035,0.122070,0.000000
3952246541,0.01319885,0.00178528,-0.99926758,0.061035,0.122070,0.000000
3954790541,0.01319885,0.00178528,-0.99926758,0.061035,0.122070,-0.122070
3962384375,0.01335144,0.00251770,-0.99842834,0.061035,0.122070,-0.122070
3964933791,0.01335144,0.00251770,-0.99842834,0.122070,0.061035,-0.305176
3972531666,0.01339722,0.00065613,-0.99295044,0.122070,0.061035,-0.305176
3975081666,0.01339722,0.00065613,-0.99295044,-0.061035,0.244141,-0.244141
3982288250,0.01377869,0.00265503,-0.99627686,-0.061035,0.244141,-0.244141
3984845291,0.01377869,0.00265503,-0.99627686,-0.061035,0.305176,-0.122070
3992457166,0.01341248,0.00421143,-0.99847412,-0.061035,0.305176,-0.122070
3995004666,0.01341248,0.00421143,-0.99847412,0.122070,0.366211,-0.061035
4002521583,0.01243591,0.00408936,-0.99504089,0.122070,0.366211,-0.061035
4005075833,0.01243591,0.00408936,-0.99504089,0.000000,0.244141,-0.183105
4012707416,0.01251221,0.00601196,-0.99594116,0.000000,0.244141,-0.183105
4015240166,0.01251221,0.00601196,-0.99594116,0.183105,0.244141,0.000000
4022831958,0.01350403,0.00718689,-0.99771118,0.183105,0.244141,0.000000
4025384625,0.01350403,0.00718689,-0.99771118,0.122070,0.183105,-0.122070
4032989958,0.01257324,0.00572205,-0.99598694,0.122070,0.183105,-0.122070
4035548416,0.01257324,0.00572205,-0.99598694,0.000000,0.244141,0.000000
4042708625,0.01263428,0.00415039,-0.99555969,0.000000,0.244141,0.000000
4045255291,0.01263428,0.00415039,-0.99555969,0.244141,0.061035,0.000000
4052834666,0.01322937,0.00396729,-0.99757385,0.244141,0.061035,0.000000
4055357666,0.01322937,0.00396729,-0.99757385,0.122070,0.183105,-0.122070
4062919708,0.01272583,0.00260925,-0.99653625,0.122070,0.183105,-0.122070
4065448375,0.01272583,0.00260925,-0.99653625,0.122070,0.244141,-0.122070
4073055291,0.01205444,0.00157166,-0.99461365,0.122070,0.244141,-0.122070
4075602625,0.01205444,0.00157166,-0.99461365,-0.122070,0.061035,-0.122070
4083235625,0.01376343,0.00074768,-0.99681091,-0.122070,0.061035,-0.122070
4085781250,0.01376343,0.00074768,-0.99681091,0.183105,0.061035,-0.122070
4093370458,0.01252747,0.00198364,-0.99636841,0.183105,0.061035,-0.122070
4095914666,0.01252747,0.00198364,-0.99636841,0.061035,0.122070,-0.183105
4103582125,0.01156616,0.00289917,-0.99673462,0.061035,0.122070,-0.183105
4113386041,0.01223755,0.00180054,-0.99562073,0.061035,0.122070,-0.183105
4115923083,0.01223755,0.00180054,-0.99562073,0.061035,0.183105,-0.122070
4123529666,0.01277161,0.00329590,-0.99588013,0.061035,0.183105,-0.122070
4126095000,0.01277161,0.00329590,-0.99588013,-0.122070,0.244141,-0.122070
4133013666,0.01296997,0.00408936,-0.99645996,-0.122070,0.244141,-0.122070
4135556791,0.01296997,0.00408936,-0.99645996,0.000000,0.244141,-0.183105
4143186541,0.01348877,0.00529480,-0.99639893,0.000000,0.244141,-0.183105
4145724875,0.01348877,0.00529480,-0.99639893,-0.061035,0.061035,-0.183105
4153318541,0.01356506,0.00642395,-0.99684143,-0.061035,0.061035,-0.183105
4155862208,0.01356506,0.00642395,-0.99684143,-0.061035,0.122070,-0.183105
4163459000,0.01286316,0.00532532,-0.99588013,-0.061035,0.122070,-0.183105
4166010125,0.01286316,0.00532532,-0.99588013,0.122070,0.122070,-0.061035
4173609208,0.01336670,0.00518799,-0.99711609,0.122070,0.122070,-0.061035
4176156000,0.01336670,0.00518799,-0.99711609,0.061035,0.122070,-0.244141
4183753500,0.01420593,0.00437927,-0.99742126,0.061035,0.122070,-0.244141
4186291625,0.01420593,0.00437927,-0.99742126,0.061035,0.122070,-0.122070
4193906500,0.01246643,0.00315857,-0.99594116,0.061035,0.122070,-0.122070
4195981083,0.01246643,0.00315857,-0.99594116,-0.061035,0.122070,0.000000
4203579958,0.01242065,0.00250244,-0.99520874,-0.061035,0.122070,0.000000
4206125125,0.01242065,0.00250244,-0.99520874,0.122070,-0.061035,-0.061035
4213700708,0.01365662,0.00158691,-0.99676514,0.122070,-0.061035,-0.061035
4216223208,0.01365662,0.00158691,-0.99676514,0.000000,0.305176,-0.183105
4223345625,0.01371765,0.00198364,-0.99610901,0.000000,0.305176,-0.183105
4225881416,0.01371765,0.00198364,-0.99610901,0.061035,0.244141,-0.061035
4233469833,0.01295471,0.00216675,-0.99528503,0.061035,0.244141,-0.061035
4236014125,0.01295471,0.00216675,-0.99528503,0.000000,0.244141,0.000000
4243617250,0.01252747,0.00271606,-0.99627686,0.000000,0.244141,0.000000
4246160833,0.01252747,0.00271606,-0.99627686,0.061035,0.061035,0.000000
4253766083,0.01164246,0.00183105,-0.99562073,0.061035,0.061035,0.000000
4256304041,0.01164246,0.00183105,-0.99562073,0.122070,0.244141,-0.183105
4263861333,0.01329041,0.00103760,-0.99458313,0.122070,0.244141,-0.183105
4266423708,0.01329041,0.00103760,-0.99458313,0.061035,0.305176,-0.061035
4274067625,0.01406860,0.00300598,-0.99525452,0.061035,0.305176,-0.061035
4276613958,0.01406860,0.00300598,-0.99525452,0.122070,0.122070,-0.122070
4284222666,0.01292419,0.00340271,-0.99682617,0.061035,0.061035,-0.061035
4294304125,0.01280212,0.00491333,-0.99844360,-0.122070,0.183105,-0.122070
4304457500,0.01388550,0.00706482,-0.99655151,-0.122070,0.061035,0.000000
4313975708,0.01434326,0.00863647,-0.99552917,-0.122070,0.061035,0.000000
4316518583,0.01434326,0.00863647,-0.99552917,0.122070,0.122070,-0.061035
4324130958,0.01438904,0.00918579,-0.99598694,0.122070,0.122070,-0.061035
4326700375,0.01438904,0.00918579,-0.99598694,0.000000,0.183105,-0.122070
4334313291,0.01300049,0.00784302,-0.99653625,0.000000,0.061035,-0.122070
4344435083,0.01098633,0.00309753,-0.99584961,0.183105,0.183105,-0.122070
4354586416,0.00996399,0.00128174,-0.99609375,-0.671387,0.366211,-0.061035
4364724500,0.01100159,0.00218201,-0.99479675,0.793457,0.061035,-0.244141
4374826666,0.01145935,0.00025940,-0.99467468,0.610352,0.244141,-0.183105
4384727166,0.01387024,0.00013733,-1.00149536,-0.671387,0.305176,-0.183105
4394852666,0.01440430,0.00083923,-0.98925781,-0.061035,0.183105,0.000000
4404853291,0.01475525,0.00259399,-1.00057983,0.244141,0.122070,-0.122070
4415007666,0.01293945,0.00288391,-0.99578857,0.000000,0.244141,-0.061035
4425098208,0.01196289,0.00282288,-0.99710083,-0.061035,0.244141,-0.122070
4435223208,0.01333618,0.00436401,-0.99761963,0.183105,0.244141,-0.061035
4445384708,0.01319885,0.00515747,-0.99665833,0.244141,0.305176,-0.061035
4455532541,0.01162720,0.00587463,-0.99826050,0.000000,0.061035,-0.061035
4465705833,0.01362610,0.00572205,-0.99673462,0.000000,0.122070,0.000000
4473328958,0.01296997,0.00518799,-0.99797058,0.000000,0.122070,0.000000
4475872916,0.01296997,0.00518799,-0.99797058,0.061035,0.305176,-0.122070
4483482166,0.01341248,0.00404358,-0.99473572,0.061035,0.305176,-0.122070
4486036916,0.01341248,0.00404358,-0.99473572,0.183105,0.244141,-0.061035
4493646208,0.01293945,0.00382996,-0.99636841,0.183105,0.244141,-0.061035
4496188583,0.01293945,0.00382996,-0.99636841,0.183105,0.244141,0.000000
4503792416,0.01290894,0.00292969,-0.99737549,0.183105,0.244141,0.000000
4506344250,0.01290894,0.00292969,-0.99737549,0.061035,0.183105,-0.061035
4513969416,0.01335144,0.00103760,-0.99615479,0.061035,0.183105,-0.061035
4516514958,0.01335144,0.00103760,-0.99615479,0.000000,0.305176,-0.061035
4523729416,0.01289368,0.00129700,-0.99617004,0.000000,0.305176,-0.061035
4526253041,0.01289368,0.00129700,-0.99617004,0.000000,0.244141,-0.122070
4533795625,0.01210022,0.00146484,-0.99577332,0.000000,0.244141,-0.122070
4536336208,0.01210022,0.00146484,-0.99577332,0.061035,0.183105,-0.122070
4543962000,0.01222229,0.00259399,-0.99635315,0.061035,0.183105,-0.122070
4546424625,0.01222229,0.00259399,-0.99635315,0.061035,0.183105,-0.122070
4554034958,0.01213074,0.00384521,-0.99624634,0.061035,0.183105,-0.122070
4556574166,0.01213074,0.00384521,-0.99624634,0.122070,0.244141,-0.122070
4564170708,0.01315308,0.00506592,-0.99777222,0.122070,0.244141,-0.122070
4566696625,0.01315308,0.00506592,-0.99777222,0.000000,0.244141,-0.244141
4574294541,0.01286316,0.00576782,-0.99674988,0.000000,0.244141,-0.244141
4576834833,0.01286316,0.00576782,-0.99674988,-0.061035,0.183105,-0.061035
4584443708,0.01332092,0.00584412,-0.99624634,-0.061035,0.183105,-0.061035
4586998625,0.01332092,0.00584412,-0.99624634,0.183105,0.122070,-0.183105
4593761208,0.01321411,0.00497437,-0.99627686,0.183105,0.122070,-0.183105
4596313666,0.01321411,0.00497437,-0.99627686,0.000000,0.122070,-0.122070
4603909541,0.01229858,0.00346375,-0.99786377,0.000000,0.122070,-0.122070
4606457208,0.01229858,0.00346375,-0.99786377,0.122070,0.244141,-0.122070
4614055500,0.01170349,0.00257874,-0.99696350,0.122070,0.244141,-0.122070
4616595916,0.01170349,0.00257874,-0.99696350,0.061035,0.183105,-0.122070
4623663500,0.01222229,0.00334167,-0.99731445,0.061035,0.183105,-0.122070
4626204458,0.01222229,0.00334167,-0.99731445,0.000000,0.244141,-0.061035
4633798833,0.01206970,0.00160217,-0.99693298,0.000000,0.244141,-0.061035
4636234083,0.01206970,0.00160217,-0.99693298,0.000000,0.183105,-0.122070
4646090666,0.01167297,0.00239563,-0.99523926,0.000000,0.183105,-0.122070
4653701250,0.01193237,0.00212097,-0.99604797,0.000000,0.183105,-0.122070
4656245833,0.01193237,0.00212097,-0.99604797,0.183105,0.122070,-0.061035
4666372333,0.01226807,0.00230408,-0.99644470,0.122070,0.183105,-0.122070
4676461666,0.01318359,0.00360107,-0.99621582,0.061035,0.305176,-0.061035
4686593625,0.01437378,0.00491333,-0.99554443,0.061035,0.061035,-0.122070
4694229958,0.01335144,0.00382996,-0.99530029,0.061035,0.061035,-0.122070
4696761500,0.01335144,0.00382996,-0.99530029,0.000000,0.244141,-0.122070
4704348083,0.01336670,0.00469971,-0.99604797,0.000000,0.244141,-0.122070
4706898791,0.01336670,0.00469971,-0.99604797,-0.061035,0.122070,-0.183105
4716460708,0.01271057,0.00364685,-0.99623108,0.061035,0.122070,-0.122070
4726622500,0.01286316,0.00346375,-0.99588013,0.122070,0.244141,0.000000
4734256416,0.01353455,0.00239563,-0.99647522,0.122070,0.244141,0.000000
4736812208,0.01353455,0.00239563,-0.99647522,0.000000,0.122070,-0.122070
4744385583,0.01223755,0.00236511,-0.99517822,0.000000,0.122070,-0.122070
4746933458,0.01223755,0.00236511,-0.99517822,0.122070,0.183105,0.000000
4754297833,0.01176453,0.00309753,-0.99557495,0.122070,0.183105,0.000000
4756846000,0.01176453,0.00309753,-0.99557495,0.122070,0.122070,-0.122070
4764471375,0.01231384,0.00354004,-0.99642944,0.122070,0.122070,-0.122070
4767022208,0.01231384,0.00354004,-0.99642944,0.061035,0.061035,-0.183105
4774627333,0.01264954,0.00309753,-0.99649048,0.061035,0.061035,-0.183105
4776712333,0.01264954,0.00309753,-0.99649048,0.122070,0.061035,-0.183105
4784316916,0.01266479,0.00325012,-0.99465942,0.122070,0.061035,-0.183105
4786872000,0.01266479,0.00325012,-0.99465942,0.000000,0.061035,-0.183105
4794336958,0.01229858,0.00300598,-0.99453735,0.000000,0.061035,-0.183105
4796887625,0.01229858,0.00300598,-0.99453735,-0.061035,0.244141,-0.061035
4804483958,0.01318359,0.00265503,-0.99601746,-0.061035,0.244141,-0.061035
4807026333,0.01318359,0.00265503,-0.99601746,0.854492,0.366211,-0.183105
4814671750,0.01286316,0.00329590,-0.99330139,0.854492,0.366211,-0.183105
4817255666,0.01286316,0.00329590,-0.99330139,-0.122070,0.122070,-0.061035
4824589458,0.01263428,0.00283813,-1.00038147,-0.122070,0.122070,-0.061035
4827151500,0.01263428,0.00283813,-1.00038147,-0.061035,0.244141,-0.122070
4834793291,0.01333618,0.00297546,-0.99240112,-0.061035,0.244141,-0.122070
4837347333,0.01333618,0.00297546,-0.99240112,0.183105,0.183105,-0.183105
4844928916,0.01358032,0.00309753,-0.99942017,0.183105,0.183105,-0.183105
4847490375,0.01358032,0.00309753,-0.99942017,0.122070,0.183105,-0.244141
4855123708,0.01312256,0.00366211,-0.99426270,0.122070,0.183105,-0.244141
4857675416,0.01312256,0.00366211,-0.99426270,0.183105,0.122070,-0.061035
4865308375,0.01322937,0.00483704,-0.99833679,0.183105,0.122070,-0.061035
4867862958,0.01322937,0.00483704,-0.99833679,0.000000,0.122070,-0.122070
4875439708,0.01268005,0.00308228,-0.99586487,0.061035,0.183105,-0.122070
4884540083,0.01242065,0.00384521,-0.99626160,0.061035,0.183105,-0.122070
4887088125,0.01242065,0.00384521,-0.99626160,0.061035,0.305176,-0.183105
4894487791,0.01231384,0.00489807,-0.99610901,0.061035,0.305176,-0.183105
4897039500,0.01231384,0.00489807,-0.99610901,0.122070,0.183105,-0.122070
4904647208,0.01132202,0.00476074,-0.99665833,0.122070,0.183105,-0.122070
4907343125,0.01132202,0.00476074,-0.99665833,-0.305176,0.244141,-0.183105
4914961208,0.01185608,0.00453186,-0.99670410,-0.305176,0.244141,-0.183105
4917502708,0.01185608,0.00453186,-0.99670410,0.305176,0.183105,-0.183105
4925105416,0.01414490,0.00286865,-0.99595642,0.305176,0.183105,-0.183105
4927640833,0.01414490,0.00286865,-0.99595642,0.000000,0.183105,-0.122070
4935249083,0.01405334,0.00303650,-0.99449158,0.000000,0.183105,-0.122070
4937797208,0.01405334,0.00303650,-0.99449158,0.061035,0.305176,0.000000
4945452750,0.01356506,0.00245667,-0.99414062,0.061035,0.305176,0.000000
4948133625,0.01356506,0.00245667,-0.99414062,0.183105,0.244141,-0.061035
4955729041,0.01361084,0.00227356,-0.99700928,0.122070,0.183105,-0.122070
4965867458,0.01277161,0.00274658,-0.99494934,0.244141,0.183105,-0.061035
4975667625,0.01161194,0.00347900,-0.99642944,0.061035,0.122070,-0.244141
4985785833,0.01235962,0.00483704,-0.99566650,2.441406,0.122070,-0.122070
4995874791,0.01164246,0.00382996,-0.98591614,2.441406,0.122070,-0.122070
4998415541,0.01164246,0.00382996,-0.98591614,-2.624512,0.305176,-0.122070
5006038083,0.01327515,0.00193787,-0.99832153,-2.624512,0.305176,-0.122070
5008576875,0.01327515,0.00193787,-0.99832153,1.770020,0.000000,-0.183105
5016153958,0.01271057,0.00195312,-1.01214600,-0.732422,0.366211,-0.122070
5026220041,0.01258850,0.00291443,-0.98637390,0.183105,0.183105,-0.122070
5036314583,0.01298523,0.00201416,-1.00500488,-0.427246,0.061035,-0.122070
5045679125,0.01245117,0.00431824,-0.99436951,-0.427246,0.061035,-0.122070
5047930166,0.01245117,0.00431824,-0.99436951,0.000000,0.183105,-0.061035
5055511750,0.01370239,0.00376892,-0.99580383,0.000000,0.183105,-0.061035
5057984041,0.01370239,0.00376892,-0.99580383,0.000000,0.183105,-0.183105
5065589708,0.01416016,0.00379944,-0.99470520,0.000000,0.183105,-0.183105
5068150166,0.01416016,0.00379944,-0.99470520,0.122070,0.183105,-0.061035
5075255833,0.01368713,0.00401306,-0.99455261,0.122070,0.183105,-0.061035
5077796750,0.01368713,0.00401306,-0.99455261,-0.610352,0.122070,-0.061035
5085399416,0.01301575,0.00143433,-0.99468994,-0.610352,0.122070,-0.061035
5087700416,0.01301575,0.00143433,-0.99468994,0.488281,0.122070,-0.183105
5095305958,0.01235962,0.00122070,-0.99798584,0.488281,0.122070,-0.183105
5097855666,0.01235962,0.00122070,-0.99798584,-0.671387,0.488281,-0.122070
5105453583,0.01338196,0.00332642,-0.99626160,-0.671387,0.488281,-0.122070
5107997833,0.01338196,0.00332642,-0.99626160,0.671387,0.305176,-0.122070
5115594708,0.01263428,0.00517273,-0.99043274,0.671387,0.305176,-0.122070
5118139416,0.01263428,0.00517273,-0.99043274,0.488281,0.061035,-0.183105
5125743666,0.01089478,0.00410461,-1.00926208,0.488281,0.061035,-0.183105
5128293541,0.01089478,0.00410461,-1.00926208,-0.366211,0.427246,-0.061035
5135903083,0.01231384,0.00549316,-0.98571777,-0.366211,0.427246,-0.061035
5138469291,0.01231384,0.00549316,-0.98571777,0.183105,0.244141,-0.061035
5145969583,0.01222229,0.00415039,-1.00358582,0.183105,0.244141,-0.061035
5148503791,0.01222229,0.00415039,-1.00358582,0.000000,0.183105,-0.122070
5155977958,0.01237488,0.00248718,-0.99375916,0.000000,0.183105,-0.122070
5158522833,0.01237488,0.00248718,-0.99375916,-0.061035,0.244141,-0.122070
5165653208,0.01278687,0.00238037,-0.99945068,-0.061035,0.244141,-0.122070
5168192750,0.01278687,0.00238037,-0.99945068,0.000000,0.305176,-0.183105
5175786750,0.01208496,0.00225830,-0.99569702,0.000000,0.305176,-0.183105
5178316500,0.01208496,0.00225830,-0.99569702,0.488281,0.122070,-0.061035
5185928000,0.01266479,0.00256348,-0.99519348,0.488281,0.122070,-0.061035
5188135708,0.01266479,0.00256348,-0.99519348,-0.732422,0.122070,-0.122070
5195778166,0.01318359,0.00291443,-1.00065613,-0.732422,0.122070,-0.122070
5197855833,0.01318359,0.00291443,-1.00065613,0.183105,0.061035,-0.122070
5205551833,0.01332092,0.00334167,-0.99217224,0.183105,0.061035,-0.122070
5207982500,0.01332092,0.00334167,-0.99217224,0.122070,0.244141,-0.061035
5215246166,0.01393127,0.00337219,-0.99749756,0.122070,0.244141,-0.061035
5217423291,0.01393127,0.00337219,-0.99749756,0.122070,0.305176,-0.183105
5227141375,0.01312256,0.00289917,-0.99542236,0.122070,0.122070,-0.061035
5237290208,0.01362610,0.00302124,-0.99859619,0.061035,0.122070,-0.183105
5247499333,0.01298523,0.00303650,-0.99539185,0.183105,0.183105,-0.122070
5255120083,0.01222229,0.00344849,-0.99650574,0.183105,0.183105,-0.122070
5257322625,0.01222229,0.00344849,-0.99650574,0.244141,0.061035,-0.183105
5267492958,0.01339722,0.00311279,-0.99409485,0.122070,0.061035,-0.122070
5275201416,0.01239014,0.00247192,-0.99645996,0.122070,0.061035,-0.122070
5277755583,0.01239014,0.00247192,-0.99645996,0.183105,0.183105,-0.122070
5285366958,0.01289368,0.00337219,-0.99511719,0.183105,0.183105,-0.122070
5287901750,0.01289368,0.00337219,-0.99511719,0.122070,0.244141,-0.061035
5295466208,0.01351929,0.00415039,-0.99613953,0.122070,0.244141,-0.061035
5297995916,0.01351929,0.00415039,-0.99613953,-0.061035,0.244141,-0.061035
5305588083,0.01350403,0.00459290,-0.99636841,-0.061035,0.244141,-0.061035
5308131333,0.01350403,0.00459290,-0.99636841,0.122070,0.305176,-0.061035
5315750666,0.01324463,0.00430298,-0.99613953,0.122070,0.305176,-0.061035
5318296958,0.01324463,0.00430298,-0.99613953,0.122070,0.244141,-0.061035
5325892333,0.01344299,0.00367737,-0.99572754,0.122070,0.244141,-0.061035
5328441250,0.01344299,0.00367737,-0.99572754,0.000000,0.244141,0.000000
5335259416,0.01344299,0.00285339,-0.99835205,0.000000,0.244141,0.000000
5337801625,0.01344299,0.00285339,-0.99835205,0.061035,0.183105,0.000000
5345406833,0.01263428,0.00263977,-0.99610901,0.061035,0.183105,0.000000
5347955625,0.01263428,0.00263977,-0.99610901,0.122070,0.427246,0.000000
5355561208,0.01203918,0.00216675,-0.99575806,0.122070,0.427246,0.000000
5358113208,0.01203918,0.00216675,-0.99575806,0.183105,0.244141,-0.183105
5365718333,0.01210022,0.00227356,-0.99554443,0.183105,0.244141,-0.183105
5368266916,0.01210022,0.00227356,-0.99554443,0.183105,0.061035,-0.122070
5375874583,0.01335144,0.00239563,-0.99575806,0.183105,0.061035,-0.122070
5378422125,0.01335144,0.00239563,-0.99575806,0.122070,0.122070,-0.183105
5386020500,0.01277161,0.00294495,-0.99900818,0.122070,0.122070,-0.183105
5388563208,0.01277161,0.00294495,-0.99900818,0.061035,0.122070,0.000000
5396149333,0.01287842,0.00262451,-0.99525452,0.061035,0.122070,0.000000
5398701875,0.01287842,0.00262451,-0.99525452,-0.366211,0.183105,-0.061035
5406313625,0.01335144,0.00221252,-0.99758911,-0.366211,0.183105,-0.061035
5408857041,0.01335144,0.00221252,-0.99758911,0.000000,-0.061035,-0.122070
5416604583,0.01248169,0.00227356,-0.98968506,0.366211,0.000000,-0.244141
5426319208,0.01193237,0.00143433,-1.00349426,0.366211,0.000000,-0.244141
5428873958,0.01193237,0.00143433,-1.00349426,-0.366211,0.244141,-0.122070
5436469708,0.01292419,0.00262451,-0.99276733,-0.366211,0.244141,-0.122070
5439033958,0.01292419,0.00262451,-0.99276733,-0.244141,0.183105,-0.122070
5446676958,0.01338196,0.00259399,-1.00012207,-0.244141,0.183105,-0.122070
5449214250,0.01338196,0.00259399,-1.00012207,-0.244141,0.183105,0.000000
5456775000,0.01301575,0.00215149,-0.99461365,-0.244141,0.183105,0.000000
5459308000,0.01301575,0.00215149,-0.99461365,-0.122070,0.122070,-0.061035
5467117750,0.01292419,0.00303650,-0.99604797,-0.122070,0.122070,-0.061035
5469671833,0.01292419,0.00303650,-0.99604797,0.671387,0.122070,-0.061035
5477006583,0.01216125,0.00364685,-0.99397278,0.671387,0.122070,-0.061035
5479315583,0.01216125,0.00364685,-0.99397278,0.122070,0.366211,-0.183105
5486918458,0.01229858,0.00534058,-1.00161743,0.122070,0.366211,-0.183105
5489453208,0.01229858,0.00534058,-1.00161743,-0.122070,0.122070,0.000000
5497109250,0.01225281,0.00602722,-0.98983765,0.305176,0.061035,-0.122070
5506751500,0.01292419,0.00650024,-0.99914551,0.305176,0.061035,-0.122070
5509292250,0.01292419,0.00650024,-0.99914551,0.122070,0.244141,-0.122070
5516529708,0.01338196,0.00624084,-0.99432373,0.122070,0.244141,-0.122070
5518749500,0.01338196,0.00624084,-0.99432373,0.305176,0.244141,0.000000
5526336250,0.01396179,0.00520325,-0.99740601,0.305176,0.244141,0.000000
5528593166,0.01396179,0.00520325,-0.99740601,-0.061035,0.122070,-0.183105
5535930958,0.01469421,0.00402832,-0.99607849,-0.061035,0.122070,-0.183105
5538468333,0.01469421,0.00402832,-0.99607849,0.000000,0.183105,0.000000
5548537833,0.01467896,0.00215149,-0.99679565,0.122070,0.183105,-0.061035
5556082000,0.01373291,0.00163269,-0.99632263,0.122070,0.183105,-0.061035
5558601875,0.01373291,0.00163269,-0.99632263,0.061035,0.183105,0.000000
5566240250,0.01264954,0.00035095,-0.99736023,0.061035,0.183105,0.000000
5568792708,0.01264954,0.00035095,-0.99736023,0.000000,0.183105,-0.183105
5576387291,0.01234436,0.00135803,-0.99594116,0.000000,0.183105,-0.183105
5578936916,0.01234436,0.00135803,-0.99594116,0.061035,0.305176,-0.061035
5586540416,0.01133728,0.00148010,-0.99525452,0.061035,0.305176,-0.061035
5589081833,0.01133728,0.00148010,-0.99525452,0.183105,0.183105,-0.183105
5596588291,0.01167297,0.00167847,-0.99555969,0.183105,0.183105,-0.183105
5599046416,0.01167297,0.00167847,-0.99555969,0.122070,0.244141,-0.061035
5606638375,0.01251221,0.00329590,-0.99559021,0.122070,0.244141,-0.061035
5609186250,0.01251221,0.00329590,-0.99559021,0.122070,0.061035,-0.122070
5616465750,0.01242065,0.00419617,-0.99729919,0.122070,0.061035,-0.122070
5618866791,0.01242065,0.00419617,-0.99729919,0.061035,0.122070,-0.183105
5626247958,0.01390076,0.00355530,-0.99591064,0.061035,0.122070,-0.183105
5628804416,0.01390076,0.00355530,-0.99591064,0.122070,0.244141,0.000000
5636183750,0.01345825,0.00421143,-0.99771118,0.122070,0.244141,0.000000
5638716666,0.01345825,0.00421143,-0.99771118,0.061035,0.061035,-0.183105
5646308541,0.01229858,0.00367737,-0.99732971,0.061035,0.061035,-0.183105
5648872791,0.01229858,0.00367737,-0.99732971,0.000000,0.305176,0.000000
5656160250,0.01351929,0.00239563,-0.99624634,0.000000,0.305176,0.000000
5658337333,0.01351929,0.00239563,-0.99624634,0.061035,0.061035,-0.305176
5668247916,0.01246643,0.00299072,-0.99668884,0.122070,0.061035,-0.061035
5678636875,0.01252747,0.00303650,-0.99610901,0.061035,0.183105,-0.183105
5686255791,0.01174927,0.00311279,-0.99514771,0.061035,0.183105,-0.183105
5688800375,0.01174927,0.00311279,-0.99514771,-0.061035,0.244141,0.000000
5696418208,0.01249695,0.00463867,-0.99595642,-0.061035,0.244141,0.000000
5698966833,0.01249695,0.00463867,-0.99595642,0.061035,0.244141,-0.122070
5706333583,0.01277161,0.00514221,-0.99612427,0.061035,0.244141,-0.122070
5708888333,0.01277161,0.00514221,-0.99612427,0.061035,0.183105,-0.122070
5716493708,0.01371765,0.00483704,-0.99713135,0.061035,0.183105,-0.122070
5719038666,0.01371765,0.00483704,-0.99713135,0.061035,0.244141,-0.061035
5726618583,0.01411438,0.00376892,-0.99765015,0.061035,0.244141,-0.061035
5729148166,0.01411438,0.00376892,-0.99765015,0.183105,0.244141,-0.183105
5736702958,0.01409912,0.00273132,-0.99589539,0.183105,0.244141,-0.183105
5739227125,0.01409912,0.00273132,-0.99589539,0.000000,0.183105,-0.061035
5746400166,0.01277161,0.00276184,-0.99691772,0.000000,0.183105,-0.061035
5748540291,0.01277161,0.00276184,-0.99691772,0.000000,0.122070,-0.122070
5756151625,0.01348877,0.00257874,-0.99568176,0.000000,0.122070,-0.122070
5758686583,0.01348877,0.00257874,-0.99568176,-0.061035,0.183105,-0.122070
5766242416,0.01434326,0.00212097,-0.99487305,-0.061035,0.183105,-0.122070
5768768375,0.01434326,0.00212097,-0.99487305,0.061035,0.000000,-0.061035
5776364250,0.01318359,0.00190735,-0.99632263,0.061035,0.000000,-0.061035
5778911750,0.01318359,0.00190735,-0.99632263,0.061035,0.305176,-0.061035
5786333541,0.01301575,0.00144958,-0.99569702,0.061035,0.305176,-0.061035
5788878791,0.01301575,0.00144958,-0.99569702,0.061035,0.183105,-0.183105
5796489416,0.01254272,0.00184631,-0.99601746,0.061035,0.183105,-0.183105
5799036291,0.01254272,0.00184631,-0.99601746,0.061035,0.122070,-0.183105
5806655250,0.01278687,0.00294495,-0.99623108,0.061035,0.122070,-0.183105
5809215458,0.01278687,0.00294495,-0.99623108,0.122070,0.183105,-0.122070
5816835875,0.01203918,0.00395203,-0.99603271,0.122070,0.183105,-0.122070
5819379833,0.01203918,0.00395203,-0.99603271,0.122070,0.183105,-0.122070
5827039583,0.01176453,0.00434875,-0.99577332,0.122070,0.183105,-0.122070
5829586958,0.01176453,0.00434875,-0.99577332,0.122070,0.183105,-0.122070
5837028250,0.01168823,0.00529480,-0.99542236,0.122070,0.183105,-0.122070
5839574916,0.01168823,0.00529480,-0.99542236,0.244141,0.183105,0.000000
5847163916,0.01214600,0.00535583,-0.99613953,0.244141,0.183105,0.000000
5849704708,0.01214600,0.00535583,-0.99613953,-0.061035,0.183105,-0.061035
5857324458,0.01325989,0.00611877,-0.99650574,-0.061035,0.183105,-0.061035
5859867125,0.01325989,0.00611877,-0.99650574,0.061035,0.183105,-0.061035
5867018958,0.01310730,0.00517273,-0.99652100,0.061035,0.183105,-0.061035
5869562375,0.01310730,0.00517273,-0.99652100,0.061035,-0.061035,-0.061035
5876683375,0.01348877,0.00448608,-0.99369812,0.061035,-0.061035,-0.061035
5878766375,0.01348877,0.00448608,-0.99369812,0.000000,0.183105,-0.183105
5886443083,0.01416016,0.00204468,-0.99378967,0.000000,0.183105,-0.183105
5889212166,0.01416016,0.00204468,-0.99378967,0.061035,0.244141,0.000000
5896821625,0.01536560,0.00025940,-1.00050354,0.061035,0.244141,0.000000
5899363250,0.01536560,0.00025940,-1.00050354,-0.061035,0.122070,-0.183105
5906954250,0.01478577,-0.00006104,-0.99423218,-0.061035,0.122070,-0.183105
5909156250,0.01478577,-0.00006104,-0.99423218,-0.183105,-0.488281,-0.122070
5918670166,0.01345825,-0.00007629,-0.99848938,0.000000,0.183105,-0.183105
5928587833,0.01188660,0.00057983,-0.99224854,0.183105,0.061035,-0.122070
5938824458,0.00956726,0.00149536,-1.00129700,-0.061035,0.244141,-0.122070
5948872875,0.01100159,0.00326538,-0.99340820,0.244141,0.183105,-0.061035
5959052583,0.01116943,0.00389099,-0.99818420,0.061035,0.305176,-0.122070
5966633875,0.01255798,0.00418091,-0.99815369,0.061035,0.305176,-0.122070
5969176958,0.01255798,0.00418091,-0.99815369,0.122070,0.183105,-0.122070
5976737083,0.01287842,0.00482178,-0.99836731,0.122070,0.183105,-0.122070
5979281958,0.01287842,0.00482178,-0.99836731,0.122070,0.366211,-0.183105
5989179458,0.01353455,0.00576782,-0.99475098,-0.183105,0.244141,-0.061035
5999319375,0.01477051,0.00575256,-0.99861145,-0.122070,0.061035,-0.061035
6009470708,0.01510620,0.00535583,-0.99476624,-0.061035,0.061035,-0.183105
6017068291,0.01519775,0.00340271,-0.99699402,-0.061035,0.061035,-0.183105
6019627541,0.01519775,0.00340271,-0.99699402,0.000000,0.122070,-0.244141
6027245750,0.01419067,0.00151062,-0.99511719,0.000000,0.122070,-0.244141
6029794041,0.01419067,0.00151062,-0.99511719,-0.061035,0.244141,-0.061035
6037392208,0.01211548,0.00074768,-0.99728394,-0.061035,0.244141,-0.061035
6039935750,0.01211548,0.00074768,-0.99728394,0.061035,0.122070,-0.122070
6047534166,0.01226807,0.00148010,-0.99531555,0.061035,0.122070,-0.122070
6050078875,0.01226807,0.00148010,-0.99531555,0.122070,0.122070,-0.061035
6057707500,0.01089478,0.00289917,-0.99539185,0.122070,0.122070,-0.061035
6060259208,0.01089478,0.00289917,-0.99539185,0.061035,0.183105,-0.244141
6067849125,0.01072693,0.00382996,-0.99591064,0.061035,0.183105,-0.244141
6069901541,0.01072693,0.00382996,-0.99591064,0.000000,0.305176,0.000000
6077243958,0.01148987,0.00564575,-0.99592590,0.000000,0.305176,0.000000
6079776500,0.01148987,0.00564575,-0.99592590,-0.183105,0.183105,-0.061035
6089651500,0.01086426,0.00651550,-0.99711609,-0.244141,0.122070,-0.183105
6097255041,0.01199341,0.00430298,-0.99723816,-0.244141,0.122070,-0.183105
6099681416,0.01199341,0.00430298,-0.99723816,0.122070,-0.854492,-0.122070
6107286708,0.01287842,0.00219727,-0.98626709,0.122070,-0.854492,-0.122070
6109826500,0.01287842,0.00219727,-0.98626709,-0.427246,0.427246,-0.061035
6119499750,0.01243591,-0.00016785,-1.00451660,0.366211,0.000000,0.000000
6129655958,0.01443481,0.00015259,-0.99876404,-0.061035,0.183105,-0.183105
6137318833,0.01458740,-0.00190735,-0.99639893,-0.061035,0.183105,-0.183105
6139876416,0.01458740,-0.00190735,-0.99639893,0.122070,0.183105,-0.061035
6147469500,0.01547241,-0.00228882,-0.99533081,0.122070,0.183105,-0.061035
6150012041,0.01547241,-0.00228882,-0.99533081,0.244141,0.183105,-0.122070
6157618000,0.01502991,0.00018311,-0.99925232,0.244141,0.183105,-0.122070
6160167833,0.01502991,0.00018311,-0.99925232,0.122070,0.244141,-0.122070
6167780333,0.01283264,0.00166321,-0.99745178,0.122070,0.244141,-0.122070
6170342458,0.01283264,0.00166321,-0.99745178,0.183105,0.183105,-0.183105
6177919208,0.01124573,0.00393677,-0.99468994,0.183105,0.183105,-0.183105
6180459916,0.01124573,0.00393677,-0.99468994,0.122070,0.061035,-0.183105
6187927958,0.01113892,0.00669861,-0.99661255,0.122070,0.061035,-0.183105
6190469541,0.01113892,0.00669861,-0.99661255,0.183105,0.122070,-0.061035
6198070208,0.01158142,0.00814819,-0.99620056,0.183105,0.122070,-0.061035
6200620500,0.01158142,0.00814819,-0.99620056,-0.122070,0.244141,-0.061035
6208059666,0.01170349,0.00929260,-0.99929810,-0.122070,0.244141,-0.061035
6210625083,0.01170349,0.00929260,-0.99929810,0.061035,0.244141,-0.061035
6218198666,0.01364136,0.01080322,-0.99217224,0.061035,0.244141,-0.061035
6220746708,0.01364136,0.01080322,-0.99217224,0.183105,0.244141,0.000000
6227896250,0.01422119,0.00782776,-0.99830627,0.183105,0.244141,0.000000
6230434166,0.01422119,0.00782776,-0.99830627,0.000000,0.061035,-0.122070
6237588541,0.01597595,0.00537109,-0.99502563,0.000000,0.061035,-0.122070
6240153375,0.01597595,0.00537109,-0.99502563,0.122070,0.122070,-0.122070
6247606208,0.01660156,0.00210571,-0.99571228,0.122070,0.122070,-0.122070
6250157625,0.01660156,0.00210571,-0.99571228,0.061035,0.244141,-0.122070
6257762875,0.01383972,0.00080872,-0.99581909,0.061035,0.244141,-0.122070
6260056791,0.01383972,0.00080872,-0.99581909,0.061035,0.122070,-0.061035
6267655541,0.01281738,-0.00038147,-0.99633789,0.061035,0.122070,-0.061035
6270200875,0.01281738,-0.00038147,-0.99633789,0.000000,0.244141,-0.183105
6277605000,0.01071167,-0.00015259,-0.99577332,0.000000,0.244141,-0.183105
6279755250,0.01071167,-0.00015259,-0.99577332,0.061035,0.183105,-0.061035
6287376125,0.00895691,0.00068665,-0.99685669,0.061035,0.183105,-0.061035
6289921333,0.00895691,0.00068665,-0.99685669,0.000000,0.305176,-0.122070
6297517416,0.00956726,0.00238037,-0.99516296,0.000000,0.305176,-0.122070
6300072416,0.00956726,0.00238037,-0.99516296,0.061035,0.183105,-0.122070
6307694958,0.01109314,0.00308228,-0.99539185,0.061035,0.183105,-0.122070
6310244416,0.01109314,0.00308228,-0.99539185,0.244141,0.183105,0.000000
6317839958,0.01275635,0.00390625,-0.99664307,0.244141,0.183105,0.000000
6320391875,0.01275635,0.00390625,-0.99664307,0.061035,0.244141,-0.183105
6327592875,0.01210022,0.00497437,-0.99670410,0.061035,0.244141,-0.183105
6330175958,0.01210022,0.00497437,-0.99670410,0.061035,0.061035,-0.122070
6337779500,0.01309204,0.00465393,-0.99705505,0.061035,0.061035,-0.122070
6340322791,0.01309204,0.00465393,-0.99705505,-0.061035,0.061035,-0.183105
6347947791,0.01390076,0.00428772,-0.99755859,-0.061035,0.061035,-0.183105
6350496833,0.01390076,0.00428772,-0.99755859,-0.183105,-0.976562,-0.122070
6358132291,0.01385498,0.00450134,-0.99159241,-0.183105,-0.976562,-0.122070
6360671333,0.01385498,0.00450134,-0.99159241,0.305176,0.671387,0.000000
6367991000,0.01441956,0.00289917,-0.98353577,0.305176,0.671387,0.000000
6370553125,0.01441956,0.00289917,-0.98353577,0.610352,0.000000,0.000000
6377991833,0.01467896,0.00204468,-1.02685547,0.610352,0.000000,0.000000
6380524583,0.01467896,0.00204468,-1.02685547,-0.244141,0.122070,-0.122070
6388134791,0.01382446,0.00241089,-0.97863770,-0.244141,0.122070,-0.122070
6390665750,0.01382446,0.00241089,-0.97863770,0.366211,0.183105,-0.122070
6398268208,0.01235962,0.00056458,-1.00225830,0.366211,0.183105,-0.122070
6400803125,0.01235962,0.00056458,-1.00225830,-0.061035,0.427246,-0.061035
6407768000,0.01174927,0.00047302,-0.99296570,-0.061035,0.427246,-0.061035
6410315041,0.01174927,0.00047302,-0.99296570,0.122070,0.183105,-0.122070
6417939500,0.01161194,0.00187683,-1.00146484,0.122070,0.183105,-0.122070
6420484791,0.01161194,0.00187683,-1.00146484,0.244141,0.366211,-0.061035
6430734958,0.01092529,0.00376892,-0.99305725,0.305176,0.244141,-0.183105
6438341125,0.01206970,0.00512695,-0.99140930,0.305176,0.244141,-0.183105
6440883416,0.01206970,0.00512695,-0.99140930,0.244141,0.305176,-0.183105
6448478708,0.01356506,0.00605774,-1.00392151,0.244141,0.305176,-0.183105
6451020333,0.01356506,0.00605774,-1.00392151,0.000000,0.305176,0.000000
6458339000,0.01380920,0.00640869,-0.99172974,0.000000,0.305176,0.000000
6460879458,0.01380920,0.00640869,-0.99172974,0.000000,0.183105,-0.061035
6468474208,0.01354980,0.00521851,-0.99659729,0.000000,0.183105,-0.061035
6471019625,0.01354980,0.00521851,-0.99659729,-0.061035,0.183105,-0.061035
6478617666,0.01419067,0.00299072,-0.99560547,-0.061035,0.183105,-0.061035
6481168958,0.01419067,0.00299072,-0.99560547,0.244141,0.122070,-0.122070
6488502208,0.01312256,0.00149536,-0.99768066,0.244141,0.122070,-0.122070
6491068541,0.01312256,0.00149536,-0.99768066,0.000000,0.122070,-0.122070
6498699833,0.01170349,0.00015259,-0.99409485,0.000000,0.122070,-0.122070
6500996541,0.01170349,0.00015259,-0.99409485,0.122070,0.244141,-0.183105
6508612166,0.01268005,0.00103760,-0.99639893,0.122070,0.244141,-0.183105
6511157083,0.01268005,0.00103760,-0.99639893,0.000000,0.061035,-0.122070
6518771916,0.01325989,0.00154114,-0.99594116,0.000000,0.061035,-0.122070
6521318833,0.01325989,0.00154114,-0.99594116,0.000000,0.244141,-0.122070
6528899666,0.01177979,0.00112915,-0.99470520,0.000000,0.244141,-0.122070
6531426000,0.01177979,0.00112915,-0.99470520,0.000000,0.305176,-0.183105
6538616666,0.01300049,0.00154114,-0.99615479,0.000000,0.305176,-0.183105
6541154708,0.01300049,0.00154114,-0.99615479,0.122070,0.122070,0.000000
6548751750,0.01263428,0.00393677,-0.99729919,0.122070,0.122070,0.000000
6551308833,0.01263428,0.00393677,-0.99729919,-0.122070,0.183105,-0.122070
6558906333,0.01268005,0.00614929,-0.99797058,-0.122070,0.183105,-0.122070
6561344041,0.01268005,0.00614929,-0.99797058,-0.061035,0.122070,-0.122070
6568945375,0.01277161,0.00712585,-0.99629211,-0.061035,0.122070,-0.122070
6571491458,0.01277161,0.00712585,-0.99629211,0.122070,0.183105,0.061035
6579119083,0.01341248,0.00674438,-0.99557495,0.122070,0.183105,0.061035
6581687041,0.01341248,0.00674438,-0.99557495,0.061035,0.061035,-0.061035
6588925208,0.01309204,0.00694275,-0.99545288,0.061035,0.061035,-0.061035
6591467625,0.01309204,0.00694275,-0.99545288,-0.061035,0.122070,-0.183105
6599054708,0.01248169,0.00610352,-0.99516296,-0.061035,0.122070,-0.183105
6601600583,0.01248169,0.00610352,-0.99516296,0.122070,0.122070,-0.122070
6609235625,0.01239014,0.00471497,-0.99638367,0.122070,0.122070,-0.122070
6611788000,0.01239014,0.00471497,-0.99638367,0.061035,0.244141,-0.061035
6619454625,0.01283264,0.00355530,-0.99595642,0.122070,0.244141,0.000000
6629652541,0.01300049,0.00212097,-0.99552917,0.000000,0.183105,-0.122070
6639692166,0.01319885,0.00097656,-0.99578857,-0.122070,0.122070,-0.122070
6649821916,0.01379395,-0.00019836,-0.99665833,0.122070,0.244141,-0.122070
6659565708,0.01283264,-0.00048828,-0.99575806,0.061035,0.122070,0.061035
6669744083,0.01293945,-0.00030518,-0.99728394,0.488281,0.183105,-0.183105
6679901208,0.01325989,0.00079346,-0.99417114,-0.488281,0.366211,-0.305176
6689718000,0.01213074,0.00119019,-0.99739075,0.061035,0.000000,-0.122070
6699430583,0.01141357,0.00291443,-0.99716187,0.061035,0.000000,-0.122070
6702105875,0.01141357,0.00291443,-0.99716187,0.061035,0.061035,-0.244141
6709694791,0.01261902,0.00495911,-0.99699402,0.061035,0.122070,-0.061035
6719834750,0.01321411,0.00515747,-0.99397278,0.122070,0.244141,-0.122070
6729595291,0.01405334,0.00700378,-0.99679565,0.122070,0.244141,-0.183105
6739777833,0.01370239,0.00859070,-0.99555969,-0.122070,0.122070,0.000000
6749976250,0.01293945,0.00857544,-0.99765015,0.061035,0.061035,0.000000
6760182791,0.01339722,0.00732422,-0.99487305,-0.061035,0.122070,-0.061035
6770201958,0.01223755,0.00599670,-0.99729919,0.000000,0.183105,-0.061035
6780333000,0.01206970,0.00314331,-0.99353027,0.061035,0.244141,0.000000
6790457875,0.01406860,0.00144958,-0.99647522,0.122070,0.244141,-0.122070
6800409458,0.01423645,-0.00067139,-0.99586487,0.000000,0.183105,-0.061035
6810536375,0.01264954,-0.00097656,-0.99555969,0.061035,0.122070,-0.122070
6820662541,0.01310730,-0.00018311,-0.99693298,0.061035,0.305176,-0.183105
6830828500,0.01383972,-0.00065613,-0.99632263,0.061035,0.244141,-0.061035
6840922625,0.01403809,0.00111389,-0.99459839,-0.061035,0.244141,-0.122070
6851006166,0.01255798,0.00238037,-0.99673462,0.122070,0.061035,0.000000
6858634750,0.01264954,0.00505066,-0.99678040,0.122070,0.061035,0.000000
6861186416,0.01264954,0.00505066,-0.99678040,0.122070,0.122070,-0.122070
6871306666,0.01194763,0.00532532,-0.99400330,0.183105,0.061035,-0.183105
6881057833,0.01162720,0.00561523,-0.99809265,0.061035,0.122070,-0.061035
6891187833,0.01165771,0.00543213,-0.99691772,0.000000,0.183105,-0.061035
6901313708,0.01397705,0.00477600,-0.99844360,0.061035,0.183105,-0.061035
6911468750,0.01367188,0.00390625,-0.99650574,0.244141,0.183105,-0.122070
6921607375,0.01330566,0.00259399,-0.99549866,0.122070,0.183105,-0.061035
6929208541,0.01358032,0.00302124,-0.99548340,0.122070,0.183105,-0.061035
6931749291,0.01358032,0.00302124,-0.99548340,0.122070,0.183105,-0.122070
6939361041,0.01306152,0.00253296,-0.99690247,0.122070,0.183105,-0.122070
6941902833,0.01306152,0.00253296,-0.99690247,0.000000,0.244141,-0.061035
6949097875,0.01203918,0.00277710,-0.99537659,0.000000,0.244141,-0.061035
6951455750,0.01203918,0.00277710,-0.99537659,0.061035,0.122070,-0.061035
6961092083,0.01239014,0.00312805,-0.99559021,0.000000,0.183105,-0.244141
6971216041,0.01329041,0.00326538,-0.99534607,0.000000,0.244141,-0.122070
6981124500,0.01277161,0.00418091,-0.99516296,-0.061035,0.061035,-0.183105
6991387458,0.01216125,0.00442505,-0.99609375,-0.061035,0.244141,0.000000
7001285875,0.01356506,0.00398254,-0.99597168,0.122070,0.305176,-0.061035
7011524333,0.01408386,0.00321960,-0.99612427,0.122070,0.122070,-0.183105
7021799833,0.01388550,0.00251770,-0.99644470,0.061035,0.183105,-0.122070
7029517041,0.01380920,0.00292969,-0.99584961,0.061035,0.183105,-0.122070
7032097041,0.01380920,0.00292969,-0.99584961,0.183105,0.061035,-0.244141
7039744000,0.01412964,0.00227356,-0.99786377,0.183105,0.061035,-0.244141
7042303416,0.01412964,0.00227356,-0.99786377,0.183105,0.244141,-0.183105
7049596000,0.01300049,0.00177002,-0.99641418,0.183105,0.244141,-0.183105
7052146291,0.01300049,0.00177002,-0.99641418,0.183105,0.183105,-0.061035
7060146875,0.01232910,0.00192261,-0.99620056,0.183105,0.183105,-0.061035
7062805500,0.01232910,0.00192261,-0.99620056,0.000000,0.183105,-0.061035
7070237791,0.01304626,0.00216675,-0.99659729,0.000000,0.183105,-0.061035
7072798916,0.01304626,0.00216675,-0.99659729,0.122070,0.122070,-0.183105
7081165250,0.01296997,0.00305176,-0.99707031,0.122070,0.183105,-0.061035
7093971083,0.01307678,0.00311279,-0.99670410,0.061035,0.122070,-0.122070
7099198416,0.01219177,0.00344849,-0.99636841,0.061035,0.122070,-0.122070
7101752541,0.01219177,0.00344849,-0.99636841,0.122070,0.244141,-0.122070
7111518666,0.01268005,0.00340271,-0.99464417,0.122070,0.366211,0.000000
7121835791,0.01351929,0.00474548,-0.99563599,0.061035,0.244141,-0.122070
7131656333,0.01391602,0.00476074,-0.99624634,0.000000,0.183105,-0.122070
7139348750,0.01364136,0.00497437,-0.99571228,0.000000,0.183105,-0.122070
7142134625,0.01364136,0.00497437,-0.99571228,0.122070,0.183105,0.000000
7149887125,0.01370239,0.00495911,-0.99549866,0.122070,0.183105,0.000000
7152451958,0.01370239,0.00495911,-0.99549866,-0.122070,0.122070,0.000000
7159862541,0.01145935,0.00303650,-0.99551392,-0.122070,0.122070,0.000000
7162406458,0.01145935,0.00303650,-0.99551392,0.000000,0.305176,-0.122070
7170160958,0.01194763,0.00326538,-0.99592590,0.000000,0.305176,-0.122070
7172805583,0.01194763,0.00326538,-0.99592590,0.061035,0.183105,-0.122070
7180771708,0.01332092,0.00250244,-0.99708557,0.000000,0.122070,-0.122070
7191207125,0.01316833,0.00259399,-0.99673462,0.061035,0.122070,-0.122070
7201417958,0.01280212,0.00209045,-0.99827576,0.000000,0.244141,-0.183105
7211589375,0.01376343,0.00131226,-0.99685669,0.122070,0.305176,-0.122070
7221375333,0.01322937,0.00131226,-0.99653625,0.122070,0.305176,-0.122070
7223999916,0.01322937,0.00131226,-0.99653625,-0.061035,0.122070,-0.183105
7231686625,0.01280212,0.00190735,-0.99613953,0.122070,0.122070,-0.122070
7239561666,0.01231384,0.00308228,-0.99485779,0.122070,0.122070,-0.122070
7242167458,0.01231384,0.00308228,-0.99485779,0.061035,0.061035,-0.244141
7252043250,0.01231384,0.00401306,-0.99635315,0.061035,0.244141,-0.061035
7261898000,0.01348877,0.00355530,-0.99658203,0.061035,0.244141,-0.183105
7269580333,0.01400757,0.00395203,-0.99664307,0.061035,0.244141,-0.183105
7272122791,0.01400757,0.00395203,-0.99664307,0.061035,0.122070,-0.183105
7281481333,0.01396179,0.00494385,-0.99516296,0.122070,0.183105,0.061035
7291625250,0.01380920,0.00485229,-0.99510193,0.061035,0.244141,-0.061035
7301292708,0.01329041,0.00402832,-0.99639893,0.000000,0.244141,-0.061035
7311375541,0.01356506,0.00328064,-0.99565125,0.061035,0.366211,-0.122070
7321483500,0.01300049,0.00268555,-0.99601746,0.061035,0.183105,-0.061035
7331425166,0.01284790,0.00248718,-0.99629211,0.061035,0.122070,-0.305176
7341563041,0.01338196,0.00265503,-0.99594116,0.061035,0.183105,-0.122070
7351287041,0.01306152,0.00268555,-0.99530029,0.000000,0.244141,-0.122070
7361409166,0.01350403,0.00274658,-0.99726868,0.061035,0.183105,-0.122070
7370928375,0.01330566,0.00378418,-0.99661255,0.061035,0.183105,-0.122070
7373482958,0.01330566,0.00378418,-0.99661255,0.000000,0.122070,-0.122070
7381144166,0.01199341,0.00267029,-0.99714661,0.183105,0.122070,-0.122070
7391295458,0.01304626,0.00297546,-0.99609375,0.122070,0.244141,-0.122070
7400919625,0.01387024,0.00241089,-0.99479675,0.122070,0.244141,-0.122070
7403486875,0.01387024,0.00241089,-0.99479675,0.061035,0.183105,0.000000
7411094000,0.01307678,0.00323486,-0.99639893,0.061035,0.183105,0.000000
7413638416,0.01307678,0.00323486,-0.99639893,0.061035,0.183105,-0.122070
7421249625,0.01335144,0.00294495,-0.99597168,0.000000,0.122070,-0.183105
7431385875,0.01347351,0.00367737,-0.99714661,0.183105,0.061035,-0.244141
7441517666,0.01206970,0.00341797,-0.99642944,0.122070,0.244141,-0.122070
7451694416,0.01283264,0.00338745,-0.99609375,0.183105,0.183105,-0.122070
7461352791,0.01190186,0.00341797,-0.99487305,0.000000,0.183105,0.000000
7471467708,0.01167297,0.00375366,-0.99534607,0.000000,0.122070,-0.122070
7481640125,0.01301575,0.00419617,-0.99575806,0.000000,0.244141,-0.183105
7491804791,0.01243591,0.00340271,-0.99612427,0.000000,0.244141,-0.122070
7501569541,0.01254272,0.00364685,-0.99647522,0.061035,0.122070,-0.183105
7511038625,0.01289368,0.00309753,-0.99592590,0.061035,0.122070,-0.183105
7513580041,0.01289368,0.00309753,-0.99592590,-0.061035,0.183105,0.000000
7521167125,0.01358032,0.00259399,-0.99664307,-0.061035,0.183105,0.000000
7523715208,0.01358032,0.00259399,-0.99664307,0.122070,0.427246,-0.122070
7531274000,0.01219177,0.00288391,-0.99581909,0.122070,0.427246,-0.122070
7533369875,0.01219177,0.00288391,-0.99581909,0.061035,0.122070,-0.061035
7541036250,0.01254272,0.00424194,-0.99642944,0.061035,0.122070,-0.061035
7543576625,0.01254272,0.00424194,-0.99642944,0.061035,0.244141,-0.061035
7551176166,0.01240540,0.00354004,-0.99568176,0.061035,0.244141,-0.061035
7553734833,0.01240540,0.00354004,-0.99568176,0.000000,0.244141,0.000000
7561344708,0.01179504,0.00334167,-0.99624634,0.000000,0.244141,0.000000
7563890541,0.01179504,0.00334167,-0.99624634,0.000000,0.183105,-0.061035
7571541583,0.01266479,0.00303650,-0.99589539,0.061035,0.061035,-0.183105
7581360708,0.01237488,0.00234985,-0.99598694,0.061035,0.061035,-0.183105
7583904041,0.01237488,0.00234985,-0.99598694,0.061035,0.122070,0.000000
7591532791,0.01281738,0.00186157,-0.99662781,0.061035,0.183105,-0.122070
7601681583,0.01342773,0.00222778,-0.99525452,0.122070,0.244141,-0.122070
7611652958,0.01341248,0.00291443,-0.99577332,0.122070,0.183105,-0.061035
7621680166,0.01266479,0.00250244,-0.99617004,0.000000,0.244141,-0.122070
7631295708,0.01347351,0.00262451,-0.99552917,0.000000,0.244141,-0.122070
7633435750,0.01347351,0.00262451,-0.99552917,0.061035,0.244141,0.000000
7641064500,0.01290894,0.00216675,-0.99591064,0.061035,0.244141,0.000000
7643606083,0.01290894,0.00216675,-0.99591064,-0.061035,0.183105,-0.183105
7651173666,0.01264954,0.00357056,-0.99636841,-0.061035,0.183105,-0.183105
7653391500,0.01264954,0.00357056,-0.99636841,0.000000,0.122070,0.000000
7660988666,0.01341248,0.00454712,-0.99617004,0.000000,0.122070,0.000000
7663535458,0.01341248,0.00454712,-0.99617004,0.122070,0.061035,-0.122070
7670688041,0.01152039,0.00418091,-0.99609375,0.122070,0.061035,-0.122070
7673235208,0.01152039,0.00418091,-0.99609375,-0.061035,0.183105,-0.061035
7680853958,0.01251221,0.00321960,-0.99650574,-0.061035,0.183105,-0.061035
7683397416,0.01251221,0.00321960,-0.99650574,0.000000,0.183105,-0.122070
7690999166,0.01399231,0.00369263,-0.99659729,0.000000,0.183105,-0.122070
7693554375,0.01399231,0.00369263,-0.99659729,-0.122070,0.122070,-0.183105
7700728375,0.01245117,0.00306702,-0.99662781,-0.122070,0.122070,-0.183105
7703273958,0.01245117,0.00306702,-0.99662781,0.061035,-0.061035,-0.122070
7710866166,0.01246643,0.00328064,-0.99627686,0.061035,-0.061035,-0.122070
7713410000,0.01246643,0.00328064,-0.99627686,-0.061035,0.122070,-0.061035
7720998333,0.01249695,0.00431824,-0.99578857,-0.061035,0.122070,-0.061035
7723543916,0.01249695,0.00431824,-0.99578857,0.061035,0.122070,-0.061035
7731168541,0.01319885,0.00332642,-0.99645996,0.061035,0.122070,-0.061035
7733359250,0.01319885,0.00332642,-0.99645996,0.061035,0.000000,-0.061035
7740921750,0.01435852,0.00262451,-0.99688721,0.061035,0.000000,-0.061035
7743464125,0.01435852,0.00262451,-0.99688721,0.000000,0.183105,-0.122070
7753644791,0.01361084,0.00236511,-0.99636841,-0.061035,0.122070,-0.183105
7761246958,0.01261902,0.00260925,-0.99433899,-0.061035,0.122070,-0.183105
7763784791,0.01261902,0.00260925,-0.99433899,0.061035,0.183105,-0.061035
7771349708,0.01350403,0.00253296,-0.99642944,0.061035,0.183105,-0.061035
7773738625,0.01350403,0.00253296,-0.99642944,0.061035,0.061035,-0.061035
7783384041,0.01312256,0.00196838,-0.99580383,0.000000,0.183105,-0.122070
7793510291,0.01281738,0.00190735,-0.99656677,0.122070,0.183105,-0.183105
7801151791,0.01275635,0.00160217,-0.99649048,0.122070,0.183105,-0.183105
7803719791,0.01275635,0.00160217,-0.99649048,0.061035,0.183105,-0.122070
7811309166,0.01188660,0.00259399,-0.99577332,0.061035,0.183105,-0.122070
7813849416,0.01188660,0.00259399,-0.99577332,-0.061035,0.122070,-0.061035
7823617625,0.01173401,0.00387573,-0.99516296,0.000000,0.061035,0.000000
7831245041,0.01197815,0.00485229,-0.99539185,0.000000,0.061035,0.000000
7833792708,0.01197815,0.00485229,-0.99539185,0.183105,0.183105,0.000000
7843588791,0.01249695,0.00474548,-0.99642944,0.000000,0.244141,0.000000
7851213041,0.01290894,0.00558472,-0.99626160,0.000000,0.244141,0.000000
7853757916,0.01290894,0.00558472,-0.99626160,0.122070,0.244141,-0.122070
7861330416,0.01296997,0.00509644,-0.99668884,0.122070,0.244141,-0.122070
7863859458,0.01296997,0.00509644,-0.99668884,0.000000,0.244141,0.000000
7871423333,0.01383972,0.00407410,-0.99688721,0.000000,0.244141,0.000000
7873959750,0.01383972,0.00407410,-0.99688721,0.061035,0.244141,0.000000
7881528250,0.01472473,0.00531006,-0.99627686,0.061035,0.244141,0.000000
7884072125,0.01472473,0.00531006,-0.99627686,0.061035,0.061035,0.000000
7891582166,0.01350403,0.00314331,-0.99620056,0.061035,0.061035,0.000000
7894131125,0.01350403,0.00314331,-0.99620056,0.122070,0.244141,-0.061035
7901737500,0.01274109,0.00170898,-0.99691772,0.122070,0.244141,-0.061035
7904280750,0.01274109,0.00170898,-0.99691772,0.061035,0.122070,-0.122070
7911872708,0.01248169,0.00138855,-0.99679565,0.061035,0.122070,-0.122070
7914429416,0.01248169,0.00138855,-0.99679565,0.061035,0.183105,-0.183105
7922020750,0.01200867,0.00164795,-0.99574280,0.061035,0.183105,-0.183105
7924547250,0.01200867,0.00164795,-0.99574280,-0.061035,0.183105,-0.122070
7931351125,0.01237488,0.00192261,-0.99647522,-0.061035,0.183105,-0.122070
7933879208,0.01237488,0.00192261,-0.99647522,0.061035,0.122070,-0.183105
7943394958,0.01232910,0.00276184,-0.99591064,0.061035,0.244141,-0.122070
7953533166,0.01213074,0.00244141,-0.99612427,0.122070,0.183105,-0.122070
7961165916,0.01261902,0.00337219,-0.99626160,0.122070,0.183105,-0.122070
7963723583,0.01261902,0.00337219,-0.99626160,0.061035,0.183105,-0.183105
7971331125,0.01318359,0.00399780,-0.99641418,0.061035,0.183105,-0.183105
7973877666,0.01318359,0.00399780,-0.99641418,0.061035,0.244141,-0.183105
7981472500,0.01278687,0.00485229,-0.99629211,0.061035,0.244141,-0.183105
7983689416,0.01278687,0.00485229,-0.99629211,0.000000,0.244141,-0.061035
7993349541,0.01304626,0.00514221,-0.99449158,0.000000,0.122070,-0.122070
8003496958,0.01306152,0.00482178,-0.99617004,0.122070,0.122070,-0.122070
8013610833,0.01338196,0.00506592,-0.99639893,0.061035,0.183105,-0.122070
8023289208,0.01251221,0.00439453,-0.99713135,-0.061035,0.183105,-0.122070
8033031458,0.01150513,0.00398254,-0.99481201,-0.061035,0.183105,0.061035
8043175000,0.01223755,0.00241089,-0.99578857,0.183105,0.061035,-0.122070
8053327583,0.01249695,0.00148010,-0.99700928,0.000000,0.122070,-0.183105
8063450916,0.01330566,0.00236511,-0.99639893,0.000000,0.305176,-0.183105
8073575458,0.01402283,0.00146484,-0.99494934,0.061035,0.122070,-0.183105
8083322333,0.01365662,0.00164795,-0.99603271,0.000000,0.305176,-0.122070
8092948583,0.01263428,0.00228882,-0.99655151,0.000000,0.305176,-0.122070
8095506833,0.01263428,0.00228882,-0.99655151,0.183105,0.244141,-0.122070
8102707208,0.01321411,0.00241089,-0.99635315,0.183105,0.244141,-0.122070
8105249333,0.01321411,0.00241089,-0.99635315,0.000000,0.244141,-0.122070
8112878666,0.01303101,0.00311279,-0.99697876,0.000000,0.244141,-0.122070
8115438416,0.01303101,0.00311279,-0.99697876,0.061035,0.000000,-0.122070
8123083500,0.01306152,0.00361633,-0.99613953,0.000000,0.244141,-0.122070
8133233291,0.01187134,0.00440979,-0.99597168,0.122070,0.183105,-0.061035
8143032875,0.01217651,0.00494385,-0.99603271,0.122070,0.183105,-0.061035
8145574875,0.01217651,0.00494385,-0.99603271,0.122070,0.183105,-0.061035
8153138041,0.01307678,0.00471497,-0.99591064,0.122070,0.183105,-0.061035
8155690791,0.01307678,0.00471497,-0.99591064,0.244141,0.183105,-0.122070
8162841625,0.01260376,0.00422668,-0.99632263,0.244141,0.183105,-0.122070
8165003083,0.01260376,0.00422668,-0.99632263,0.000000,0.244141,-0.061035
8172622083,0.01321411,0.00347900,-0.99575806,0.000000,0.244141,-0.061035
8175170458,0.01321411,0.00347900,-0.99575806,-0.122070,0.244141,-0.183105
8182444125,0.01147461,0.00334167,-0.99641418,-0.122070,0.244141,-0.183105
8184988708,0.01147461,0.00334167,-0.99641418,0.061035,0.061035,-0.122070
8192604333,0.01248169,0.00260925,-0.99525452,0.061035,0.061035,-0.122070
8195155583,0.01248169,0.00260925,-0.99525452,0.122070,0.183105,-0.061035
8202838333,0.01295471,0.00257874,-0.99702454,0.122070,0.183105,-0.061035
8205429291,0.01295471,0.00257874,-0.99702454,0.122070,0.244141,-0.122070
8213062375,0.01309204,0.00224304,-0.99559021,0.000000,0.244141,-0.061035
8222828500,0.01234436,0.00286865,-0.99545288,0.000000,0.244141,-0.061035
8225377416,0.01234436,0.00286865,-0.99545288,0.122070,0.244141,-0.122070
8232974041,0.01211548,0.00302124,-0.99656677,0.122070,0.244141,-0.122070
8235517875,0.01211548,0.00302124,-0.99656677,0.061035,0.244141,-0.122070
8243110500,0.01333618,0.00321960,-0.99577332,0.000000,0.061035,-0.122070
8252931500,0.01245117,0.00367737,-0.99673462,0.000000,0.061035,-0.122070
8255507916,0.01245117,0.00367737,-0.99673462,0.183105,0.305176,-0.122070
8263083250,0.01306152,0.00427246,-0.99636841,0.122070,0.305176,0.000000
8272956750,0.01306152,0.00363159,-0.99652100,0.122070,0.305176,0.000000
8275502625,0.01306152,0.00363159,-0.99652100,0.000000,0.183105,-0.061035
8282343041,0.01353455,0.00416565,-0.99510193,0.000000,0.183105,-0.061035
8284882916,0.01353455,0.00416565,-0.99510193,0.122070,0.061035,-0.244141
8292465166,0.01264954,0.00393677,-0.99736023,0.122070,0.061035,-0.244141
8294781916,0.01264954,0.00393677,-0.99736023,0.183105,0.122070,-0.122070
8302321875,0.01165771,0.00402832,-0.99797058,0.183105,0.122070,-0.122070
8304873000,0.01165771,0.00402832,-0.99797058,0.061035,0.244141,-0.122070
8312487958,0.01361084,0.00433350,-0.99600220,0.061035,0.244141,-0.122070
8315035375,0.01361084,0.00433350,-0.99600220,0.061035,0.183105,-0.061035
8322650708,0.01321411,0.00361633,-0.99665833,0.061035,0.183105,-0.061035
8325197041,0.01321411,0.00361633,-0.99665833,0.183105,0.183105,-0.122070
8332826000,0.01283264,0.00199890,-0.99630737,0.183105,0.183105,-0.122070
8335394166,0.01283264,0.00199890,-0.99630737,0.061035,0.122070,-0.183105
8343010375,0.01303101,0.00265503,-0.99502563,0.061035,0.122070,-0.183105
8345556291,0.01303101,0.00265503,-0.99502563,0.183105,0.061035,-0.122070
8353146583,0.01266479,0.00274658,-0.99502563,0.183105,0.061035,-0.122070
8355700375,0.01266479,0.00274658,-0.99502563,0.122070,0.122070,-0.122070
8363324916,0.01161194,0.00260925,-0.99600220,0.061035,0.244141,0.000000
8373471916,0.01300049,0.00263977,-0.99650574,-0.061035,0.122070,0.000000
8383179875,0.01225281,0.00297546,-0.99708557,-0.061035,0.122070,0.000000
8385725250,0.01225281,0.00297546,-0.99708557,-0.061035,0.122070,-0.122070
8393302958,0.01266479,0.00350952,-0.99600220,0.122070,0.305176,-0.122070
8403441791,0.01382446,0.00459290,-0.99650574,-0.061035,0.122070,-0.061035
8413455000,0.01365662,0.00509644,-0.99705505,0.122070,0.183105,-0.061035
8423692750,0.01286316,0.00477600,-0.99639893,0.061035,0.244141,-0.183105
8433833166,0.01344299,0.00445557,-0.99684143,0.183105,0.305176,0.000000
8443971375,0.01422119,0.00511169,-0.99656677,0.000000,0.244141,-0.183105
8453998083,0.01342773,0.00444031,-0.99650574,0.061035,0.244141,0.000000
8463957250,0.01332092,0.00381470,-0.99662781,0.000000,0.183105,-0.122070
8474086666,0.01246643,0.00325012,-0.99700928,0.122070,0.305176,-0.061035
8484222791,0.01161194,0.00202942,-0.99577332,0.122070,0.122070,-0.122070
8494356916,0.01295471,0.00100708,-0.99705505,-0.061035,0.244141,-0.244141
8504478250,0.01332092,0.00117493,-0.99639893,0.061035,0.183105,-0.122070
8514174875,0.01254272,0.00201416,-0.99516296,0.122070,0.183105,-0.122070
8524139041,0.01260376,0.00164795,-0.99615479,0.000000,0.305176,-0.122070
8534300458,0.01310730,0.00202942,-0.99668884,0.000000,0.061035,-0.244141
8544413708,0.01319885,0.00375366,-0.99681091,0.000000,0.183105,-0.061035
8554034041,0.01338196,0.00460815,-0.99588013,0.000000,0.244141,-0.183105
8564155416,0.01330566,0.00514221,-0.99530029,0.000000,0.122070,-0.183105
8574328291,0.01350403,0.00651550,-0.99572754,0.122070,0.244141,-0.183105
8584480041,0.01318359,0.00598145,-0.99633789,0.061035,0.122070,-0.122070
8594184333,0.01203918,0.00360107,-0.99728394,0.122070,0.183105,0.000000
8603887833,0.01252747,0.00346375,-0.99621582,0.122070,0.183105,0.000000
8606438541,0.01252747,0.00346375,-0.99621582,0.183105,0.000000,-0.061035
8614044583,0.01341248,0.00175476,-0.99549866,0.183105,0.000000,-0.061035
8616587500,0.01341248,0.00175476,-0.99549866,0.183105,0.244141,-0.122070
8624195666,0.01306152,0.00148010,-0.99642944,0.061035,0.122070,-0.183105
8634334583,0.01269531,0.00167847,-0.99551392,0.122070,0.183105,-0.122070
8644412250,0.01387024,0.00056458,-0.99525452,0.183105,0.244141,-0.122070
8654555583,0.01377869,0.00231934,-0.99563599,0.183105,0.061035,-0.183105
8664698416,0.01271057,0.00340271,-0.99513245,0.000000,0.183105,-0.244141
8674852125,0.01264954,0.00277710,-0.99656677,0.122070,0.366211,-0.183105
8684137708,0.01271057,0.00315857,-0.99690247,0.000000,0.061035,-0.061035
8693486750,0.01345825,0.00453186,-0.99632263,0.000000,0.061035,-0.061035
8696018791,0.01345825,0.00453186,-0.99632263,0.000000,0.183105,-0.122070
8703468666,0.01408386,0.00401306,-0.99536133,0.000000,0.183105,-0.122070
8706014666,0.01408386,0.00401306,-0.99536133,0.122070,0.122070,-0.061035
8713613291,0.01361084,0.00524902,-0.99662781,0.122070,0.122070,-0.061035
8716154166,0.01361084,0.00524902,-0.99662781,0.183105,0.183105,-0.061035
8725480791,0.01364136,0.00537109,-0.99574280,0.122070,0.183105,-0.061035
8735397333,0.01370239,0.00473022,-0.99604797,0.122070,0.244141,-0.183105
8745166500,0.01342773,0.00473022,-0.99549866,0.244141,0.183105,-0.061035
8755327041,0.01327515,0.00303650,-0.99620056,0.000000,0.183105,-0.183105
8762937458,0.01187134,0.00209045,-0.99676514,0.000000,0.183105,-0.183105
8765477833,0.01187134,0.00209045,-0.99676514,0.061035,0.122070,-0.183105
8775544208,0.01100159,0.00114441,-0.99620056,0.061035,0.183105,-0.061035
8783219375,0.01177979,0.00123596,-0.99716187,0.061035,0.183105,-0.061035
8785774125,0.01177979,0.00123596,-0.99716187,0.061035,0.122070,-0.183105
8793363833,0.01168823,0.00262451,-0.99633789,0.061035,0.122070,-0.183105
8795902166,0.01168823,0.00262451,-0.99633789,0.061035,0.244141,-0.061035
8803493750,0.01235962,0.00358582,-0.99546814,0.061035,0.244141,-0.061035
8806034875,0.01235962,0.00358582,-0.99546814,0.061035,0.305176,-0.183105
8813623833,0.01342773,0.00439453,-0.99554443,0.061035,0.305176,-0.183105
8816164416,0.01342773,0.00439453,-0.99554443,0.061035,0.183105,-0.122070
8823752333,0.01354980,0.00573730,-0.99688721,0.061035,0.183105,-0.122070
8826289708,0.01354980,0.00573730,-0.99688721,0.000000,0.305176,0.000000
8833891583,0.01429749,0.00621033,-0.99626160,0.000000,0.305176,0.000000
8836435208,0.01429749,0.00621033,-0.99626160,0.061035,0.183105,-0.061035
8843608958,0.01327515,0.00521851,-0.99597168,0.061035,0.183105,-0.061035
8846147000,0.01327515,0.00521851,-0.99597168,0.122070,0.183105,-0.061035
8853700375,0.01269531,0.00392151,-0.99629211,0.122070,0.183105,-0.061035
8856235416,0.01269531,0.00392151,-0.99629211,0.122070,0.061035,-0.183105
8863353333,0.01214600,0.00296021,-0.99534607,0.122070,0.061035,-0.183105
8865874833,0.01214600,0.00296021,-0.99534607,0.122070,0.122070,-0.244141
8873452333,0.01293945,0.00245667,-0.99659729,0.122070,0.122070,-0.244141
8875613875,0.01293945,0.00245667,-0.99659729,-0.061035,0.183105,-0.183105
8885245833,0.01332092,0.00244141,-0.99661255,1.098633,-0.122070,-0.122070
8895373750,0.01292419,0.00245667,-0.99101257,-0.305176,0.427246,-0.183105
8905527125,0.01414490,0.00126648,-0.98602295,0.793457,0.000000,-0.244141
8915214958,0.01426697,0.00213623,-1.02481079,-0.793457,0.305176,-0.183105
8924848666,0.01359558,0.00401306,-0.97610474,0.000000,0.305176,-0.183105
8934956000,0.01182556,0.00366211,-1.01196289,-0.427246,0.366211,-0.061035
8945085833,0.01078796,0.00726318,-0.99000549,0.305176,0.122070,0.000000
8955248375,0.01124573,0.00737000,-0.99645996,-0.671387,0.122070,0.000000
8965029583,0.01133728,0.00579834,-0.99400330,-0.671387,0.122070,0.000000
8967582916,0.01133728,0.00579834,-0.99400330,0.244141,0.000000,-0.122070
8975241875,0.01391602,0.00654602,-0.99374390,0.122070,0.122070,-0.061035
8985407458,0.01591492,0.00459290,-0.99870300,0.183105,0.183105,-0.061035
8995569458,0.01591492,0.00273132,-0.99423218,0.000000,0.244141,-0.061035
9005672208,0.01585388,0.00418091,-0.99798584,0.000000,0.183105,-0.061035
9015346875,0.01506042,0.00326538,-0.99589539,0.122070,0.244141,-0.061035
9025016791,0.01338196,0.00190735,-0.99623108,0.122070,0.244141,-0.061035
9027557041,0.01338196,0.00190735,-0.99623108,0.000000,0.061035,-0.122070
9035192208,0.01199341,0.00041199,-0.99412537,-0.122070,0.305176,-0.122070
9045313041,0.01225281,-0.00032043,-0.99667358,0.061035,0.122070,-0.061035
9055452666,0.01052856,-0.00068665,-0.99636841,0.122070,0.061035,-0.183105
9065656750,0.01086426,0.00038147,-0.99441528,0.061035,0.183105,-0.366211
9075775333,0.01287842,0.00155640,-0.99668884,0.183105,0.061035,-0.061035
9085851291,0.01402283,0.00335693,-0.99511719,0.183105,0.122070,-0.244141
9095918291,0.01374817,0.00553894,-0.99565125,0.122070,0.122070,-0.061035
9106052916,0.01347351,0.00642395,-0.99871826,0.244141,0.122070,-0.122070
9116223875,0.01362610,0.00787354,-0.99467468,0.061035,0.122070,-0.183105
9126368125,0.01304626,0.00729370,-0.99618530,0.061035,0.244141,-0.122070
9136511583,0.01313782,0.00601196,-0.99827576,0.061035,0.061035,-0.183105
9144197208,0.01228333,0.00537109,-0.99574280,0.061035,0.061035,-0.183105
9146739541,0.01228333,0.00537109,-0.99574280,0.183105,0.244141,-0.061035
9156446541,0.01219177,0.00473022,-0.99574280,-0.183105,0.671387,-0.061035
9166552958,0.01344299,0.00433350,-0.99794006,0.488281,0.244141,-0.122070
9174139041,0.01316833,0.00318909,-0.99137878,0.488281,0.244141,-0.122070
9176436875,0.01316833,0.00318909,-0.99137878,0.122070,0.305176,-0.122070
9186398333,0.01278687,0.00062561,-1.00154114,-0.122070,0.183105,-0.122070
9196541750,0.01313782,0.00006104,-0.99278259,0.061035,0.183105,-0.061035
9206632666,0.01335144,-0.00015259,-0.99754333,-0.183105,0.427246,-0.061035
9214241291,0.01202393,-0.00148010,-0.99455261,-0.183105,0.427246,-0.061035
9216795708,0.01202393,-0.00148010,-0.99455261,0.305176,0.061035,-0.244141
9224394291,0.01286316,-0.00135803,-0.99928284,0.305176,0.061035,-0.244141
9226675666,0.01286316,-0.00135803,-0.99928284,-0.183105,0.244141,-0.183105
9234273208,0.01290894,-0.00114441,-0.99356079,-0.183105,0.244141,-0.183105
9236822708,0.01290894,-0.00114441,-0.99356079,0.061035,0.122070,-0.244141
9244412166,0.01223755,0.00044250,-0.99772644,0.061035,0.122070,-0.244141
9246964916,0.01223755,0.00044250,-0.99772644,0.122070,0.122070,-0.061035
9254575333,0.01330566,0.00210571,-0.99714661,0.122070,0.122070,-0.061035
9257122583,0.01330566,0.00210571,-0.99714661,0.305176,0.061035,-0.183105
9264640125,0.01353455,0.00520325,-0.99656677,0.305176,0.061035,-0.183105
9266964583,0.01353455,0.00520325,-0.99656677,0.122070,0.061035,-0.305176
9274158875,0.01264954,0.00617981,-0.99639893,0.122070,0.061035,-0.305176
9276684875,0.01264954,0.00617981,-0.99639893,0.122070,0.183105,-0.061035
9284272708,0.01289368,0.00680542,-0.99627686,0.122070,0.183105,-0.061035
9286694416,0.01289368,0.00680542,-0.99627686,0.122070,0.244141,0.000000
9294292541,0.01271057,0.00697327,-0.99536133,0.122070,0.244141,0.000000
9296839458,0.01271057,0.00697327,-0.99536133,0.000000,0.122070,-0.183105
9306335625,0.01216125,0.00723267,-0.99566650,0.183105,0.061035,-0.061035
9316071083,0.01307678,0.00637817,-0.99653625,0.061035,0.000000,-0.183105
9325783500,0.01171875,0.00492859,-0.99411011,0.122070,0.244141,-0.122070
9335647500,0.01133728,0.00357056,-0.99519348,0.122070,0.244141,-0.061035
9345804583,0.01258850,0.00259399,-0.99470520,0.061035,0.122070,-0.183105
9355930375,0.01376343,0.00231934,-0.99560547,0.122070,0.244141,-0.061035
9365382416,0.01240540,0.00143433,-0.99717712,0.122070,0.244141,-0.061035
9367927708,0.01240540,0.00143433,-0.99717712,-0.061035,0.122070,-0.183105
9375567458,0.01335144,0.00213623,-0.99653625,0.000000,0.244141,-0.183105
9385317541,0.01313782,0.00320435,-0.99649048,0.000000,0.244141,-0.183105
9387862208,0.01313782,0.00320435,-0.99649048,0.061035,0.183105,-0.122070
9395479708,0.01118469,0.00376892,-0.99758911,0.061035,0.183105,-0.122070
9398049166,0.01118469,0.00376892,-0.99758911,-0.061035,0.061035,-0.183105
9405310833,0.01226807,0.00350952,-0.99604797,-0.061035,0.061035,-0.183105
9407865125,0.01226807,0.00350952,-0.99604797,0.122070,0.183105,-0.122070
9415460250,0.01258850,0.00328064,-0.99632263,0.122070,0.183105,-0.122070
9418001375,0.01258850,0.00328064,-0.99632263,0.183105,0.183105,-0.183105
9425626375,0.01277161,0.00251770,-0.99662781,0.183105,0.183105,-0.183105
9428168708,0.01277161,0.00251770,-0.99662781,0.061035,0.122070,-0.122070
9435787666,0.01219177,0.00209045,-0.99905396,0.061035,0.122070,-0.122070
9438339458,0.01219177,0.00209045,-0.99905396,0.244141,0.061035,-0.122070
9445933625,0.01199341,0.00099182,-0.99732971,0.244141,0.061035,-0.122070
9448474166,0.01199341,0.00099182,-0.99732971,0.061035,0.183105,0.000000
9455680666,0.01283264,0.00105286,-0.99510193,0.061035,0.183105,0.000000
9458236083,0.01283264,0.00105286,-0.99510193,0.244141,0.061035,0.000000
9465684291,0.01325989,0.00216675,-0.99525452,0.244141,0.061035,0.000000
9468240500,0.01325989,0.00216675,-0.99525452,0.244141,0.244141,0.000000
9475808458,0.01338196,0.00312805,-0.99559021,0.244141,0.244141,0.000000
9478334291,0.01338196,0.00312805,-0.99559021,0.061035,0.000000,-0.122070
9485913500,0.01290894,0.00363159,-0.99537659,0.061035,0.000000,-0.122070
9488437375,0.01290894,0.00363159,-0.99537659,0.122070,0.183105,-0.061035
9496019000,0.01234436,0.00416565,-0.99725342,0.122070,0.183105,-0.061035
9498560458,0.01234436,0.00416565,-0.99725342,-0.061035,0.122070,0.061035
9506177208,0.01213074,0.00532532,-0.99687195,0.000000,0.122070,0.000000
9516299500,0.01176453,0.00547791,-0.99497986,0.122070,0.244141,-0.183105
9526450375,0.01196289,0.00491333,-0.99598694,-0.122070,0.183105,-0.061035
9536578666,0.01239014,0.00430298,-0.99717712,0.061035,0.366211,-0.122070
9546747125,0.01359558,0.00343323,-0.99795532,0.122070,0.183105,-0.183105
9556766125,0.01321411,0.00302124,-0.99700928,0.061035,0.122070,-0.183105
9566895083,0.01380920,0.00209045,-0.99569702,0.000000,0.244141,-0.122070
9576563958,0.01313782,0.00221252,-0.99639893,0.061035,0.244141,-0.122070
9586709333,0.01271057,0.00222778,-0.99772644,-0.061035,0.122070,-0.122070
9596873166,0.01310730,0.00218201,-0.99658203,0.000000,0.244141,0.000000
9607003458,0.01156616,0.00259399,-0.99751282,0.000000,0.183105,-0.122070
9617138625,0.01188660,0.00236511,-0.99641418,0.549316,0.854492,0.000000
9627214458,0.01260376,0.00149536,-0.98715210,0.000000,0.610352,-0.183105
9637298458,0.01237488,0.00071716,-0.99552917,-0.305176,0.305176,-0.122070
9647434291,0.01400757,0.00132751,-1.00300598,-0.061035,0.183105,-0.183105
9657605291,0.01416016,0.00198364,-0.99606323,0.244141,-0.122070,-0.183105
9665256333,0.01269531,0.00473022,-1.00244141,0.244141,-0.122070,-0.183105
9667803291,0.01269531,0.00473022,-1.00244141,0.000000,0.061035,-0.122070
9675399083,0.01361084,0.00758362,-0.99391174,0.000000,0.061035,-0.122070
9677938791,0.01361084,0.00758362,-0.99391174,-0.122070,0.061035,-0.122070
9685479833,0.01245117,0.00770569,-0.99690247,-0.122070,0.061035,-0.122070
9687793208,0.01245117,0.00770569,-0.99690247,-0.122070,0.061035,-0.061035
9695466250,0.01269531,0.00834656,-0.99504089,-0.122070,0.061035,-0.061035
9698089875,0.01269531,0.00834656,-0.99504089,0.183105,-0.305176,-0.061035
9705702833,0.01234436,0.00746155,-0.99070740,0.183105,-0.305176,-0.061035
9708245833,0.01234436,0.00746155,-0.99070740,-0.305176,0.061035,0.000000
9715852416,0.01217651,0.00553894,-0.99974060,-0.305176,0.061035,0.000000
9718396041,0.01217651,0.00553894,-0.99974060,0.000000,0.183105,-0.061035
9725989000,0.01283264,0.00363159,-0.99426270,0.000000,0.183105,-0.061035
9728525083,0.01283264,0.00363159,-0.99426270,-0.183105,0.061035,-0.122070
9736117833,0.01298523,0.00115967,-0.99539185,-0.183105,0.061035,-0.122070
9738656833,0.01298523,0.00115967,-0.99539185,1.159668,-0.244141,-0.183105
9746193708,0.01306152,-0.00048828,-0.99568176,1.159668,-0.244141,-0.183105
9748743583,0.01306152,-0.00048828,-0.99568176,-1.037598,0.183105,-0.122070
9755900125,0.01516724,-0.00205994,-0.99603271,-1.037598,0.183105,-0.122070
9758449708,0.01516724,-0.00205994,-0.99603271,0.000000,0.244141,-0.122070
9766061500,0.01374817,-0.00231934,-0.99455261,0.000000,0.244141,-0.122070
9768626833,0.01374817,-0.00231934,-0.99455261,0.061035,0.244141,-0.183105
9776253750,0.01264954,-0.00166321,-1.00106812,0.061035,0.244141,-0.183105
9778814041,0.01264954,-0.00166321,-1.00106812,0.061035,0.183105,-0.122070
9786322041,0.01246643,-0.00044250,-0.99629211,0.061035,0.183105,-0.122070
9788853458,0.01246643,-0.00044250,-0.99629211,-0.122070,0.122070,-0.061035
9796452125,0.01275635,0.00256348,-0.99826050,-0.122070,0.122070,-0.061035
9799041958,0.01275635,0.00256348,-0.99826050,0.427246,0.000000,-0.122070
9806543000,0.01237488,0.00415039,-0.99235535,0.427246,0.000000,-0.122070
9809114416,0.01237488,0.00415039,-0.99235535,-0.732422,0.183105,-0.183105
9816736791,0.01232910,0.00566101,-1.00289917,0.061035,0.244141,-0.183105
9826944041,0.01287842,0.00823975,-0.98953247,0.305176,0.122070,-0.061035
9837155666,0.01377869,0.00802612,-1.00138855,0.122070,0.122070,-0.061035
9847280291,0.01379395,0.00653076,-0.99415588,0.244141,0.183105,-0.061035
9857261791,0.01461792,0.00505066,-0.99884033,0.061035,0.183105,-0.122070
9867473041,0.01379395,0.00276184,-0.99488831,0.061035,0.183105,-0.183105
9877168500,0.01359558,0.00187683,-0.99630737,0.000000,0.000000,-0.061035
9886704541,0.01327515,0.00236511,-0.99597168,0.000000,0.000000,-0.061035
9889251500,0.01327515,0.00236511,-0.99597168,0.000000,0.244141,-0.061035
9896849166,0.01231384,0.00115967,-0.99411011,0.000000,0.244141,-0.061035
9899389166,0.01231384,0.00115967,-0.99411011,0.061035,0.366211,-0.122070
9906983833,0.01220703,0.00167847,-0.99568176,0.061035,0.366211,-0.122070
9909521333,0.01220703,0.00167847,-0.99568176,0.000000,0.305176,0.000000
9917175916,0.01179504,0.00209045,-0.99549866,0.244141,0.183105,-0.122070
9927312833,0.01161194,0.00415039,-0.99604797,0.061035,0.061035,-0.122070
9937469916,0.01161194,0.00482178,-0.99624634,0.061035,0.305176,-0.122070
9947551833,0.01251221,0.00534058,-0.99694824,1.159668,-1.892090,-0.061035
9957236583,0.01338196,0.00529480,-0.98408508,-1.220703,0.549316,-0.061035
9967392375,0.01310730,0.00205994,-1.00588989,0.976562,-0.183105,-0.061035
9977556416,0.01527405,0.00227356,-1.00396729,-0.366211,0.305176,-0.244141
9987463416,0.01353455,0.00129700,-0.99089050,0.244141,0.183105,-0.244141
9997407916,0.01228333,0.00164795,-0.99687195,-0.122070,0.122070,-0.122070
10007572041,0.01325989,0.00196838,-0.99786377,0.000000,0.122070,-0.183105
10017707208,0.01141357,0.00233459,-0.99575806,0.183105,0.122070,-0.183105
10027892083,0.01164246,0.00460815,-0.99499512,0.305176,0.488281,-0.061035
10037628500,0.01060486,0.00520325,-0.99250793,0.061035,0.244141,-0.061035
10047781875,0.01214600,0.00685120,-1.00503540,-0.183105,0.244141,-0.183105
10057489791,0.01177979,0.00857544,-0.98728943,0.061035,0.244141,0.000000
10067653833,0.01106262,0.00779724,-1.00022888,-0.183105,0.183105,0.000000
10077850125,0.01333618,0.00642395,-0.99548340,-0.061035,0.244141,-0.183105
10087660541,0.01487732,0.00427246,-0.99746704,-0.061035,0.244141,-0.061035
10097729416,0.01498413,0.00231934,-0.99403381,0.122070,0.244141,-0.183105
10107890333,0.01445007,0.00064087,-0.99505615,0.183105,0.244141,-0.183105
10118044250,0.01438904,0.00039673,-0.99734497,0.000000,0.061035,-0.183105
10128194625,0.01252747,0.00010681,-0.99530029,0.061035,0.122070,-0.183105
10138133291,0.01206970,0.00096130,-0.99681091,0.122070,0.061035,-0.061035
10148296708,0.01049805,0.00164795,-0.99754333,0.183105,0.244141,-0.122070
10158436833,0.01084900,0.00350952,-0.99612427,0.000000,0.183105,-0.122070
10166181833,0.01017761,0.00491333,-0.99635315,0.000000,0.183105,-0.122070
10168750166,0.01017761,0.00491333,-0.99635315,0.000000,0.183105,-0.061035
10176370958,0.01135254,0.00584412,-0.99633789,0.000000,0.183105,-0.061035
10178923708,0.01135254,0.00584412,-0.99633789,0.183105,0.244141,0.000000
10186567041,0.01361084,0.00607300,-0.99603271,0.183105,0.244141,0.000000
10189119958,0.01361084,0.00607300,-0.99603271,1.037598,-0.854492,-0.122070
10196664416,0.01434326,0.00439453,-0.98252869,1.037598,-0.854492,-0.122070
10199214708,0.01434326,0.00439453,-0.98252869,-0.610352,0.366211,-0.122070
10206340541,0.01473999,0.00164795,-1.01119995,-0.610352,0.366211,-0.122070
10208888375,0.01473999,0.00164795,-1.01119995,0.244141,0.183105,0.000000
10216492916,0.01628113,0.00210571,-0.99671936,0.244141,0.183105,0.000000
10219058833,0.01628113,0.00210571,-0.99671936,0.061035,0.183105,-0.061035
10228738541,0.01361084,0.00137329,-0.99415588,0.061035,0.244141,-0.122070
10236370500,0.01187134,0.00076294,-0.99604797,0.061035,0.244141,-0.122070
10238873666,0.01187134,0.00076294,-0.99604797,0.122070,0.366211,-0.061035
10246519916,0.01322937,0.00251770,-0.99806213,0.122070,0.366211,-0.061035
10249047250,0.01322937,0.00251770,-0.99806213,-0.061035,0.427246,-0.183105
10256649041,0.01277161,0.00340271,-0.99681091,-0.061035,0.427246,-0.183105
10259195750,0.01277161,0.00340271,-0.99681091,0.000000,0.488281,-0.061035
10266320083,0.01171875,0.00463867,-0.99433899,0.000000,0.488281,-0.061035
10268840333,0.01171875,0.00463867,-0.99433899,0.183105,0.305176,0.000000
10276463291,0.01202393,0.00617981,-0.99456787,0.183105,0.305176,0.000000
10279023375,0.01202393,0.00617981,-0.99456787,-0.061035,0.427246,-0.061035
10286638625,0.01133728,0.00672913,-0.99490356,-0.061035,0.427246,-0.061035
10289185375,0.01133728,0.00672913,-0.99490356,0.915527,0.122070,-0.122070
10296524583,0.01174927,0.00582886,-0.97634888,0.915527,0.122070,-0.122070
10299073458,0.01174927,0.00582886,-0.97634888,-1.342773,0.427246,-0.122070
10306700083,0.01301575,0.00227356,-1.02850342,-1.342773,0.427246,-0.122070
10309247708,0.01301575,0.00227356,-1.02850342,0.732422,0.122070,-0.244141
10316853125,0.01382446,0.00366211,-0.97845459,0.732422,0.122070,-0.244141
10319399541,0.01382446,0.00366211,-0.97845459,-0.305176,0.061035,-0.366211
10326998250,0.01354980,0.00100708,-1.00520325,-0.305176,0.061035,-0.366211
10329541875,0.01354980,0.00100708,-1.00520325,0.122070,0.061035,-0.061035
10337151958,0.01336670,0.00303650,-0.99455261,0.122070,0.061035,-0.061035
10339707666,0.01336670,0.00303650,-0.99455261,-0.183105,0.000000,-0.244141
10347296458,0.01322937,0.00605774,-1.00143433,-0.183105,0.000000,-0.244141
10349836750,0.01322937,0.00605774,-1.00143433,-0.122070,0.183105,-0.061035
10357181250,0.01240540,0.00526428,-0.99047852,-0.122070,0.183105,-0.061035
10359544125,0.01240540,0.00526428,-0.99047852,-0.366211,0.183105,-0.061035
10369235166,0.01112366,0.00585938,-0.99565125,0.488281,0.244141,-0.061035
10376862458,0.01213074,0.00579834,-0.99627686,0.488281,0.244141,-0.061035
10379413583,0.01213074,0.00579834,-0.99627686,-0.122070,0.244141,-0.122070
10389558791,0.01197815,0.00463867,-0.99392700,0.122070,0.244141,-0.061035
10397215666,0.01127625,0.00450134,-0.99263000,0.122070,0.244141,-0.061035
10399739333,0.01127625,0.00450134,-0.99263000,-0.061035,0.183105,-0.061035
10409377333,0.01345825,0.00427246,-0.99678040,0.122070,0.305176,-0.061035
10419511500,0.01486206,0.00253296,-0.99679565,0.610352,0.305176,-0.061035
10429360750,0.01422119,0.00120544,-0.99293518,-0.305176,0.244141,-0.061035
10439538375,0.01406860,0.00096130,-0.99598694,0.183105,0.244141,-0.061035
10447143291,0.01417542,0.00126648,-1.00082397,0.183105,0.244141,-0.061035
10449700833,0.01417542,0.00126648,-1.00082397,0.183105,0.244141,0.061035
10459660875,0.01272583,0.00192261,-0.99131775,0.061035,0.244141,-0.183105
10467276708,0.01242065,0.00114441,-0.99792480,0.061035,0.244141,-0.183105
10469836583,0.01242065,0.00114441,-0.99792480,0.061035,0.122070,-0.061035
10477452000,0.01174927,0.00169373,-0.99800110,0.061035,0.122070,-0.061035
10479999375,0.01174927,0.00169373,-0.99800110,0.122070,0.061035,-0.244141
10487619541,0.01179504,0.00265503,-0.99676514,0.122070,0.061035,-0.244141
10490165750,0.01179504,0.00265503,-0.99676514,0.122070,0.244141,-0.061035
10497778833,0.01156616,0.00199890,-0.99566650,0.122070,0.244141,-0.061035
10500316958,0.01156616,0.00199890,-0.99566650,0.061035,0.183105,-0.122070
10507845500,0.01319885,0.00166321,-0.99580383,0.061035,0.183105,-0.122070
10510404041,0.01319885,0.00166321,-0.99580383,0.183105,0.000000,-0.183105
10517610791,0.01440430,0.00152588,-0.99610901,0.183105,0.000000,-0.183105
10520165375,0.01440430,0.00152588,-0.99610901,0.244141,0.183105,-0.122070
10527778041,0.01419067,0.00175476,-0.99465942,0.244141,0.183105,-0.122070
10530336083,0.01419067,0.00175476,-0.99465942,0.305176,0.122070,-0.061035
10537939166,0.01499939,0.00140381,-0.99673462,0.305176,0.122070,-0.061035
10540483583,0.01499939,0.00140381,-0.99673462,0.061035,0.183105,-0.061035
10548095708,0.01440430,0.00135803,-0.99597168,0.061035,0.183105,-0.061035
10550629541,0.01440430,0.00135803,-0.99597168,0.061035,0.061035,-0.183105
10557898750,0.01210022,0.00317383,-0.99766541,0.061035,0.061035,-0.183105
10560425083,0.01210022,0.00317383,-0.99766541,-0.427246,0.183105,-0.122070
10568007958,0.01277161,0.00407410,-0.99601746,-0.427246,0.183105,-0.122070
10570553208,0.01277161,0.00407410,-0.99601746,-0.549316,0.061035,-0.122070
10578140083,0.01135254,0.00492859,-0.98899841,-0.549316,0.061035,-0.122070
10580390750,0.01135254,0.00492859,-0.98899841,0.366211,0.122070,-0.244141
10587988125,0.01046753,0.00546265,-1.00392151,0.366211,0.122070,-0.244141
10590529666,0.01046753,0.00546265,-1.00392151,-0.122070,0.122070,-0.061035
10597933166,0.01177979,0.00605774,-0.99156189,-0.122070,0.122070,-0.061035
10600476708,0.01177979,0.00605774,-0.99156189,0.000000,0.244141,-0.122070
10608084375,0.01177979,0.00578308,-0.99829102,0.000000,0.244141,-0.122070
10610634000,0.01177979,0.00578308,-0.99829102,0.000000,0.122070,0.000000
10618251875,0.01365662,0.00636292,-0.99545288,0.000000,0.122070,0.000000
10620802208,0.01365662,0.00636292,-0.99545288,0.000000,0.122070,-0.183105
10628480250,0.01344299,0.00544739,-0.99623108,0.122070,0.244141,0.122070
10637958250,0.01269531,0.00471497,-0.99655151,0.122070,0.244141,0.122070
