timestamp_ns,accel_x,accel_y,accel_z,gyro_x,gyro_y,gyro_z
113604041,0.01283264,0.00708008,-0.99385071,0.122070,0.183105,-0.061035
124467250,0.01396179,0.00540161,-0.99330139,0.122070,0.183105,-0.061035
143816541,0.01490784,0.00390625,-0.99519348,0.061035,0.183105,-0.122070
143819041,0.01414490,0.00320435,-0.99418640,0.061035,0.122070,-0.183105
152082750,0.01208496,0.00195312,-0.99427795,0.061035,0.122070,-0.183105
154879750,0.01208496,0.00195312,-0.99427795,0.061035,0.122070,-0.122070
160989666,0.01185608,0.00161743,-0.99369812,0.061035,0.122070,-0.122070
172625250,0.01300049,0.00170898,-0.99392700,0.000000,0.183105,-0.061035
180530333,0.01205444,0.00250244,-0.99313354,0.000000,0.183105,-0.061035
183042333,0.01205444,0.00250244,-0.99313354,0.000000,0.244141,-0.244141
191217708,0.01376343,0.00270081,-0.99267578,0.122070,0.244141,-0.061035
201285750,0.01495361,0.00344849,-0.99478149,0.000000,0.244141,-0.122070
211342250,0.01498413,0.00434875,-0.99394226,-0.061035,0.122070,0.000000
221379750,0.01457214,0.00419617,-0.99447632,0.000000,0.122070,-0.122070
231426750,0.01460266,0.00546265,-0.99427795,0.122070,0.183105,-0.183105
241465541,0.01313782,0.00494385,-0.99436951,0.061035,0.000000,-0.122070
251508291,0.01379395,0.00347900,-0.99438477,0.122070,0.244141,-0.061035
261553708,0.01332092,0.00404358,-0.99353027,0.061035,0.183105,0.000000
271601875,0.01171875,0.00428772,-0.99446106,0.000000,0.244141,-0.061035
281652208,0.01145935,0.00294495,-0.99385071,0.122070,0.183105,-0.183105
291766916,0.01234436,0.00425720,-0.99395752,0.000000,0.183105,0.000000
301848375,0.01335144,0.00396729,-0.99481201,0.061035,0.183105,-0.122070
311964333,0.01376343,0.00325012,-0.99438477,-0.122070,0.061035,-0.122070
322089333,0.01432800,0.00335693,-0.99356079,0.000000,0.305176,-0.061035
332221000,0.01437378,0.00317383,-0.99301147,0.122070,0.244141,-0.183105
342355250,0.01315308,0.00296021,-0.99435425,0.061035,0.244141,-0.122070
352483250,0.01325989,0.00338745,-0.99331665,0.122070,0.122070,-0.061035
360087083,0.01390076,0.00369263,-0.99345398,0.122070,0.122070,-0.061035
362626000,0.01390076,0.00369263,-0.99345398,0.061035,0.366211,-0.061035
370190125,0.01347351,0.00422668,-0.99322510,0.061035,0.366211,-0.061035
372728375,0.01347351,0.00422668,-0.99322510,0.000000,0.183105,-0.183105
380298166,0.01336670,0.00358582,-0.99436951,0.000000,0.183105,-0.183105
382842958,0.01336670,0.00358582,-0.99436951,0.000000,0.122070,-0.244141
390394208,0.01313782,0.00416565,-0.99482727,0.000000,0.122070,-0.244141
392911083,0.01313782,0.00416565,-0.99482727,0.122070,0.122070,-0.061035
400448875,0.01400757,0.00483704,-0.99427795,0.122070,0.122070,-0.061035
402970458,0.01400757,0.00483704,-0.99427795,0.061035,0.122070,-0.122070
410518666,0.01309204,0.00433350,-0.99468994,0.061035,0.122070,-0.122070
413037375,0.01309204,0.00433350,-0.99468994,0.122070,0.061035,-0.122070
420651416,0.01222229,0.00350952,-0.99427795,0.122070,0.061035,-0.122070
423013833,0.01222229,0.00350952,-0.99427795,0.061035,0.183105,-0.183105
430570500,0.01310730,0.00276184,-0.99432373,0.061035,0.183105,-0.183105
433102875,0.01310730,0.00276184,-0.99432373,0.122070,0.305176,-0.122070
440658250,0.01393127,0.00285339,-0.99446106,0.122070,0.305176,-0.122070
443183458,0.01393127,0.00285339,-0.99446106,0.183105,0.244141,-0.122070
450739291,0.01304626,0.00210571,-0.99485779,0.183105,0.244141,-0.122070
453265041,0.01304626,0.00210571,-0.99485779,0.183105,0.305176,-0.061035
460826291,0.01242065,0.00199890,-0.99391174,0.183105,0.305176,-0.061035
463366125,0.01242065,0.00199890,-0.99391174,-0.061035,0.244141,-0.061035
472800791,0.01307678,0.00236511,-0.99444580,0.061035,0.000000,-0.122070
482630166,0.01400757,0.00355530,-0.99449158,0.122070,0.183105,-0.122070
492774250,0.01402283,0.00363159,-0.99343872,0.000000,0.122070,-0.122070
502908916,0.01452637,0.00453186,-0.99377441,0.061035,0.244141,0.000000
513054333,0.01324463,0.00384521,-0.99397278,0.122070,0.122070,-0.122070
523187666,0.01426697,0.00430298,-0.99475098,0.000000,0.183105,-0.122070
533074708,0.01370239,0.00401306,-0.99378967,0.122070,0.244141,-0.122070
543190375,0.01226807,0.00364685,-0.99383545,0.061035,0.061035,-0.183105
553117000,0.01226807,0.00337219,-0.99449158,0.000000,0.183105,-0.122070
563237375,0.01356506,0.00270081,-0.99369812,0.061035,0.183105,-0.122070
573334791,0.01248169,0.00271606,-0.99436951,0.061035,0.122070,-0.061035
583102416,0.01307678,0.00271606,-0.99424744,0.000000,0.183105,-0.183105
592758000,0.01344299,0.00238037,-0.99407959,0.122070,0.183105,-0.061035
602908375,0.01391602,0.00303650,-0.99407959,0.000000,0.122070,-0.122070
612639625,0.01382446,0.00436401,-0.99371338,-0.061035,0.244141,-0.122070
622763500,0.01316833,0.00469971,-0.99520874,-0.061035,0.305176,-0.061035
632902625,0.01243591,0.00511169,-0.99394226,-0.122070,0.183105,-0.122070
642593625,0.01249695,0.00354004,-0.99511719,-0.122070,0.305176,-0.183105
652470208,0.01176453,0.00402832,-0.99635315,-0.122070,0.183105,-0.061035
662600750,0.01171875,0.00512695,-0.99536133,-0.061035,0.061035,-0.183105
672744083,0.01300049,0.00471497,-0.99494934,-0.122070,0.183105,-0.061035
682878875,0.01359558,0.00476074,-0.99356079,-0.061035,0.183105,-0.061035
692580083,0.01315308,0.00408936,-0.99382019,0.061035,0.244141,0.000000
702718625,0.01356506,0.00259399,-0.99372864,-0.061035,0.183105,-0.183105
712854208,0.01303101,0.00175476,-0.99464417,-0.183105,0.183105,-0.122070
723003750,0.01322937,0.00291443,-0.99549866,-0.183105,0.183105,-0.061035
733140333,0.01420593,0.00274658,-0.99351501,0.000000,0.305176,-0.122070
743272041,0.01374817,0.00326538,-0.99378967,0.061035,0.122070,-0.061035
753411833,0.01290894,0.00408936,-0.99339294,-0.122070,0.061035,-0.122070
761033416,0.01217651,0.00401306,-0.99328613,-0.122070,0.061035,-0.122070
763574708,0.01217651,0.00401306,-0.99328613,-0.122070,0.183105,-0.183105
771158166,0.01249695,0.00421143,-0.99288940,-0.122070,0.183105,-0.183105
773695916,0.01249695,0.00421143,-0.99288940,-0.061035,0.122070,-0.183105
781084083,0.01304626,0.00567627,-0.99470520,-0.061035,0.122070,-0.183105
783626583,0.01304626,0.00567627,-0.99470520,0.000000,0.183105,-0.183105
791213750,0.01263428,0.00567627,-0.99433899,0.000000,0.183105,-0.183105
793755583,0.01263428,0.00567627,-0.99433899,-0.061035,0.244141,-0.122070
801385291,0.01380920,0.00587463,-0.99427795,-0.061035,0.244141,-0.122070
803949166,0.01380920,0.00587463,-0.99427795,-0.122070,0.183105,-0.061035
811543250,0.01271057,0.00602722,-0.99433899,-0.122070,0.183105,-0.061035
814083250,0.01271057,0.00602722,-0.99433899,0.000000,0.122070,-0.061035
821673208,0.01364136,0.00471497,-0.99349976,0.000000,0.122070,-0.061035
824210875,0.01364136,0.00471497,-0.99349976,0.061035,0.305176,-0.061035
831797041,0.01458740,0.00422668,-0.99385071,0.061035,0.305176,-0.061035
834347333,0.01458740,0.00422668,-0.99385071,-0.061035,0.122070,-0.061035
841946375,0.01434326,0.00326538,-0.99372864,-0.061035,0.122070,-0.061035
844488000,0.01434326,0.00326538,-0.99372864,0.061035,0.183105,-0.183105
852071250,0.01356506,0.00253296,-0.99223328,0.061035,0.183105,-0.183105
854592333,0.01356506,0.00253296,-0.99223328,0.000000,0.305176,0.000000
861726333,0.01184082,0.00256348,-0.99366760,0.000000,0.305176,0.000000
864246666,0.01184082,0.00256348,-0.99366760,-0.183105,0.244141,-0.183105
871830250,0.01249695,0.00271606,-0.99508667,-0.183105,0.244141,-0.183105
874368875,0.01249695,0.00271606,-0.99508667,-0.122070,0.244141,-0.122070
881946375,0.01309204,0.00331116,-0.99488831,-0.122070,0.244141,-0.122070
884486333,0.01309204,0.00331116,-0.99488831,0.000000,0.122070,0.000000
892062041,0.01315308,0.00389099,-0.99349976,0.000000,0.122070,0.000000
894606625,0.01315308,0.00389099,-0.99349976,-0.061035,0.122070,-0.122070
902210250,0.01240540,0.00469971,-0.99421692,-0.061035,0.122070,-0.122070
904750500,0.01240540,0.00469971,-0.99421692,-0.061035,0.122070,-0.061035
912338333,0.01281738,0.00480652,-0.99317932,-0.061035,0.122070,-0.061035
914877208,0.01281738,0.00480652,-0.99317932,0.061035,0.244141,-0.183105
922481458,0.01356506,0.00442505,-0.99462891,0.061035,0.244141,-0.183105
925045208,0.01356506,0.00442505,-0.99462891,-0.061035,0.244141,-0.244141
932523041,0.01397705,0.00430298,-0.99308777,-0.061035,0.244141,-0.244141
935092958,0.01397705,0.00430298,-0.99308777,-0.061035,0.183105,0.000000
942714000,0.01376343,0.00444031,-0.99366760,-0.061035,0.183105,0.000000
945255291,0.01376343,0.00444031,-0.99366760,0.061035,0.244141,-0.122070
952907208,0.01329041,0.00454712,-0.99447632,0.000000,0.183105,-0.122070
963061583,0.01358032,0.00535583,-0.99380493,0.000000,0.061035,0.000000
973194791,0.01350403,0.00607300,-0.99430847,0.000000,0.183105,-0.061035
982890375,0.01385498,0.00595093,-0.99276733,0.000000,0.183105,-0.122070
992797291,0.01451111,0.00627136,-0.99398804,0.061035,0.122070,0.000000
1002488583,0.01298523,0.00418091,-0.99467468,0.061035,0.122070,0.000000
1005055625,0.01298523,0.00418091,-0.99467468,0.061035,0.366211,-0.061035
1012674333,0.01374817,0.00370789,-0.99409485,0.061035,0.366211,-0.061035
1015208333,0.01374817,0.00370789,-0.99409485,0.000000,0.122070,-0.122070
1022888416,0.01402283,0.00326538,-0.99432373,-0.061035,0.122070,-0.122070
1033033250,0.01387024,0.00338745,-0.99424744,0.122070,0.244141,-0.061035
1043158416,0.01383972,0.00288391,-0.99359131,0.061035,0.061035,-0.061035
1053268125,0.01321411,0.00204468,-0.99301147,0.000000,0.122070,-0.061035
1063234916,0.01435852,0.00259399,-0.99401855,0.061035,0.183105,-0.122070
1073388416,0.01367188,0.00288391,-0.99383545,0.000000,0.000000,-0.183105
1083544416,0.01237488,0.00338745,-0.99461365,0.061035,0.244141,-0.122070
1093639833,0.01289368,0.00462341,-0.99426270,0.000000,0.244141,-0.061035
1103767625,0.01303101,0.00588989,-0.99401855,0.122070,0.183105,-0.244141
1113909708,0.01452637,0.00619507,-0.99450684,0.061035,0.122070,-0.061035
1124057333,0.01405334,0.00698853,-0.99423218,0.183105,0.122070,-0.183105
1134141333,0.01260376,0.00524902,-0.99349976,-0.061035,0.183105,-0.122070
1143928416,0.01295471,0.00399780,-0.99440002,0.122070,0.122070,-0.061035
1154066083,0.01394653,0.00386047,-0.99456787,0.183105,0.183105,0.000000
1164204500,0.01278687,0.00292969,-0.99441528,0.122070,0.244141,-0.122070
1174288000,0.01203918,0.00259399,-0.99278259,0.061035,0.183105,-0.122070
1184399583,0.01213074,0.00248718,-0.99479675,-0.061035,0.122070,-0.061035
1192019416,0.01361084,0.00471497,-0.99493408,-0.061035,0.122070,-0.061035
1194568166,0.01361084,0.00471497,-0.99493408,0.122070,0.183105,-0.183105
1202160708,0.01316833,0.00457764,-0.99349976,0.122070,0.183105,-0.183105
1204706875,0.01316833,0.00457764,-0.99349976,0.122070,0.061035,-0.122070
1212301916,0.01329041,0.00431824,-0.99317932,0.122070,0.061035,-0.122070
1214828083,0.01329041,0.00431824,-0.99317932,0.000000,0.183105,-0.061035
1222433541,0.01405334,0.00445557,-0.99424744,0.000000,0.183105,-0.061035
1224982041,0.01405334,0.00445557,-0.99424744,0.061035,0.183105,-0.061035
1232585791,0.01278687,0.00521851,-0.99465942,0.061035,0.183105,-0.061035
1235117375,0.01278687,0.00521851,-0.99465942,0.000000,0.183105,-0.061035
1242719500,0.01287842,0.00527954,-0.99478149,0.000000,0.183105,-0.061035
1245261458,0.01287842,0.00527954,-0.99478149,0.122070,0.305176,-0.122070
1252867041,0.01338196,0.00483704,-0.99468994,0.122070,0.305176,-0.122070
1255429416,0.01338196,0.00483704,-0.99468994,0.122070,0.244141,0.000000
1263035083,0.01333618,0.00486755,-0.99374390,0.122070,0.244141,0.000000
1265576416,0.01333618,0.00486755,-0.99374390,0.305176,0.122070,0.000000
1272806708,0.01261902,0.00492859,-0.99409485,0.305176,0.122070,0.000000
1275360666,0.01261902,0.00492859,-0.99409485,0.061035,0.122070,-0.183105
1282991875,0.01324463,0.00514221,-0.99223328,0.061035,0.122070,-0.183105
1285529708,0.01324463,0.00514221,-0.99223328,0.183105,0.183105,-0.061035
1293091333,0.01329041,0.00498962,-0.99351501,0.183105,0.183105,-0.061035
1295629125,0.01329041,0.00498962,-0.99351501,0.061035,0.244141,-0.061035
1303254000,0.01249695,0.00538635,-0.99504089,0.061035,0.244141,-0.061035
1305817458,0.01249695,0.00538635,-0.99504089,0.244141,0.244141,-0.122070
1313445958,0.01278687,0.00495911,-0.99313354,0.244141,0.244141,-0.122070
1316002750,0.01278687,0.00495911,-0.99313354,0.122070,0.244141,-0.183105
1323484833,0.01242065,0.00558472,-0.99314880,0.122070,0.244141,-0.183105
1326033791,0.01242065,0.00558472,-0.99314880,0.244141,0.183105,-0.061035
1333637958,0.01344299,0.00538635,-0.99188232,0.244141,0.183105,-0.061035
1336195916,0.01344299,0.00538635,-0.99188232,0.183105,0.122070,0.000000
1343809166,0.01295471,0.00395203,-0.99363708,0.183105,0.122070,0.000000
1346388375,0.01295471,0.00395203,-0.99363708,0.366211,0.183105,-0.183105
1354022375,0.01359558,0.00315857,-0.99247742,0.305176,0.061035,-0.122070
1364145250,0.01399231,0.00201416,-0.99522400,0.122070,0.244141,-0.122070
1374259291,0.01402283,0.00204468,-0.99569702,0.366211,0.183105,-0.183105
1384389625,0.01345825,0.00248718,-0.99339294,0.122070,0.305176,-0.183105
1393858208,0.01174927,0.00331116,-0.99542236,0.122070,0.183105,-0.244141
1403964625,0.01257324,0.00521851,-0.99496460,0.244141,0.122070,-0.122070
1414025541,0.01193237,0.00546265,-0.99346924,0.366211,0.244141,-0.061035
1424196291,0.01213074,0.00653076,-0.99432373,0.427246,0.122070,0.000000
1434087625,0.01316833,0.00549316,-0.99470520,0.305176,0.183105,-0.122070
1443473375,0.01286316,0.00402832,-0.99392700,0.305176,0.183105,-0.122070
1446040791,0.01286316,0.00402832,-0.99392700,0.427246,0.244141,-0.122070
1453638208,0.01255798,0.00411987,-0.99424744,0.427246,0.244141,-0.122070
1455868166,0.01255798,0.00411987,-0.99424744,0.366211,0.244141,-0.061035
1465404666,0.01310730,0.00340271,-0.99394226,0.305176,0.244141,-0.183105
1472998833,0.01417542,0.00285339,-0.99459839,0.305176,0.244141,-0.183105
1475468833,0.01417542,0.00285339,-0.99459839,0.366211,0.183105,-0.122070
1483060041,0.01478577,0.00332642,-0.99444580,0.366211,0.183105,-0.122070
1485607250,0.01478577,0.00332642,-0.99444580,0.122070,0.305176,-0.122070
1495374625,0.01425171,0.00308228,-0.99368286,0.244141,0.305176,-0.122070
1502973041,0.01466370,0.00328064,-0.99388123,0.244141,0.305176,-0.122070
1505527666,0.01466370,0.00328064,-0.99388123,0.183105,0.122070,-0.061035
1513116875,0.01379395,0.00321960,-0.99378967,0.183105,0.122070,-0.061035
1515661333,0.01379395,0.00321960,-0.99378967,0.183105,0.122070,-0.183105
1523251541,0.01307678,0.00341797,-0.99313354,0.183105,0.122070,-0.183105
1525740125,0.01307678,0.00341797,-0.99313354,0.244141,0.305176,-0.183105
1533075041,0.01206970,0.00389099,-0.99311829,0.244141,0.305176,-0.183105
1535621666,0.01206970,0.00389099,-0.99311829,0.122070,0.244141,-0.183105
1543223541,0.01206970,0.00387573,-0.99420166,0.122070,0.244141,-0.183105
1545767916,0.01206970,0.00387573,-0.99420166,0.244141,0.305176,-0.122070
1553375041,0.01316833,0.00309753,-0.99510193,0.244141,0.305176,-0.122070
1555920333,0.01316833,0.00309753,-0.99510193,0.122070,0.061035,-0.122070
1563532083,0.01280212,0.00395203,-0.99470520,0.122070,0.061035,-0.122070
1566089458,0.01280212,0.00395203,-0.99470520,0.183105,0.183105,-0.122070
1573705666,0.01362610,0.00384521,-0.99456787,0.183105,0.183105,-0.122070
1576258333,0.01362610,0.00384521,-0.99456787,0.122070,0.000000,-0.122070
1583852208,0.01322937,0.00314331,-0.99467468,0.122070,0.000000,-0.122070
1586118416,0.01322937,0.00314331,-0.99467468,0.183105,0.061035,-0.122070
1593730791,0.01351929,0.00244141,-0.99446106,0.183105,0.061035,-0.122070
1596283041,0.01351929,0.00244141,-0.99446106,0.122070,0.305176,0.000000
1603683791,0.01367188,0.00187683,-0.99452209,0.122070,0.305176,0.000000
1606227208,0.01367188,0.00187683,-0.99452209,0.244141,0.305176,-0.122070
1613839750,0.01310730,0.00234985,-0.99456787,0.244141,0.305176,-0.122070
1616385333,0.01310730,0.00234985,-0.99456787,0.000000,0.000000,-0.183105
1623951458,0.01281738,0.00294495,-0.99392700,0.000000,0.000000,-0.183105
1626500666,0.01281738,0.00294495,-0.99392700,0.061035,0.122070,-0.122070
1634070166,0.01286316,0.00347900,-0.99320984,0.061035,0.122070,-0.122070
1636423208,0.01286316,0.00347900,-0.99320984,0.061035,0.183105,-0.122070
1643790500,0.01359558,0.00340271,-0.99389648,0.061035,0.183105,-0.122070
1646332125,0.01359558,0.00340271,-0.99389648,0.122070,0.305176,-0.061035
1653943500,0.01408386,0.00405884,-0.99415588,0.122070,0.305176,-0.061035
1656484625,0.01408386,0.00405884,-0.99415588,0.244141,0.122070,-0.061035
1664071833,0.01403809,0.00540161,-0.99479675,0.244141,0.122070,-0.061035
1666617458,0.01403809,0.00540161,-0.99479675,0.122070,0.061035,-0.061035
1674205416,0.01284790,0.00506592,-0.99398804,0.122070,0.061035,-0.061035
1676783125,0.01284790,0.00506592,-0.99398804,0.122070,0.183105,-0.244141
1684386500,0.01438904,0.00520325,-0.99377441,0.061035,0.183105,-0.122070
1694210708,0.01345825,0.00552368,-0.99563599,0.061035,0.183105,-0.122070
1696763375,0.01345825,0.00552368,-0.99563599,0.061035,0.122070,0.000000
1704438166,0.01243591,0.00474548,-0.99392700,0.061035,0.122070,0.000000
1706981750,0.01243591,0.00474548,-0.99392700,0.061035,0.183105,-0.122070
1714573083,0.01292419,0.00366211,-0.99337769,0.061035,0.183105,-0.122070
1716849708,0.01292419,0.00366211,-0.99337769,0.000000,0.183105,0.061035
1724462666,0.01205444,0.00183105,-0.99382019,0.000000,0.183105,0.061035
1727009333,0.01205444,0.00183105,-0.99382019,0.000000,0.122070,0.000000
1734612666,0.01354980,0.00253296,-0.99423218,0.000000,0.122070,0.000000
1737171500,0.01354980,0.00253296,-0.99423218,0.000000,0.122070,0.000000
1744785041,0.01300049,0.00283813,-0.99378967,0.000000,0.122070,0.000000
1747345125,0.01300049,0.00283813,-0.99378967,0.000000,0.122070,-0.061035
1754983625,0.01249695,0.00210571,-0.99462891,-0.061035,0.183105,0.000000
1765143083,0.01251221,0.00224304,-0.99530029,-0.183105,0.122070,-0.122070
1775299000,0.01287842,0.00367737,-0.99465942,-0.061035,0.061035,-0.183105
1785424125,0.01361084,0.00286865,-0.99272156,-0.061035,0.061035,0.000000
1795275583,0.01361084,0.00373840,-0.99325562,-0.122070,0.366211,-0.183105
1805263125,0.01412964,0.00386047,-0.99450684,-0.244141,0.122070,-0.183105
1815060416,0.01335144,0.00370789,-0.99670410,-0.183105,0.061035,-0.122070
1825212125,0.01194763,0.00341797,-0.99191284,-0.122070,0.183105,-0.061035
1834904416,0.01274109,0.00209045,-0.99426270,0.000000,0.122070,0.000000
1844910083,0.01499939,0.00076294,-0.99250793,0.061035,0.122070,-0.061035
1854825708,0.01724243,-0.00123596,-0.99308777,0.061035,0.122070,-0.061035
1857371541,0.01724243,-0.00123596,-0.99308777,-0.061035,0.122070,0.000000
1864548333,0.01603699,-0.00051880,-0.99501038,-0.061035,0.122070,0.000000
1867095250,0.01603699,-0.00051880,-0.99501038,0.244141,0.305176,-0.183105
1874452166,0.01449585,0.00340271,-0.99377441,0.244141,0.305176,-0.183105
1877003375,0.01449585,0.00340271,-0.99377441,0.061035,0.183105,-0.122070
1884224708,0.01325989,0.00717163,-0.99253845,0.061035,0.183105,-0.122070
1886367958,0.01325989,0.00717163,-0.99253845,0.122070,0.183105,-0.122070
1894009916,0.01237488,0.00831604,-0.99255371,0.122070,0.183105,-0.122070
1896555208,0.01237488,0.00831604,-0.99255371,0.183105,0.244141,0.061035
1904146583,0.01156616,0.00965881,-0.99464417,0.183105,0.244141,0.061035
1906698041,0.01156616,0.00965881,-0.99464417,0.183105,0.244141,0.061035
1914311500,0.01106262,0.00898743,-0.99562073,0.183105,0.244141,0.061035
1916852750,0.01106262,0.00898743,-0.99562073,0.122070,0.427246,0.122070
1924449541,0.01116943,0.00630188,-0.99426270,0.122070,0.427246,0.122070
1926990166,0.01116943,0.00630188,-0.99426270,0.122070,0.244141,0.061035
1934215750,0.01208496,0.00413513,-0.99511719,0.122070,0.244141,0.061035
1936750625,0.01208496,0.00413513,-0.99511719,0.122070,0.122070,-0.061035
1943999208,0.01477051,0.00213623,-0.99447632,0.122070,0.122070,-0.061035
1946529583,0.01477051,0.00213623,-0.99447632,0.061035,0.244141,-0.061035
1954091833,0.01496887,-0.00064087,-0.99322510,0.061035,0.244141,-0.061035
1956634916,0.01496887,-0.00064087,-0.99322510,0.305176,0.244141,-0.061035
1964223916,0.01527405,-0.00131226,-0.99291992,0.305176,0.244141,-0.061035
1966766708,0.01527405,-0.00131226,-0.99291992,0.183105,0.366211,-0.061035
1974361333,0.01516724,-0.00033569,-0.99427795,0.183105,0.366211,-0.061035
1976417000,0.01516724,-0.00033569,-0.99427795,0.061035,0.305176,-0.122070
1983893083,0.01527405,-0.00036621,-0.99479675,0.061035,0.305176,-0.122070
1986273333,0.01527405,-0.00036621,-0.99479675,0.244141,0.305176,-0.183105
1996178291,0.01467896,-0.00054932,-0.99526978,0.183105,0.183105,-0.183105
2006359375,0.01419067,0.00021362,-0.99313354,0.244141,0.183105,-0.305176
2013977916,0.01298523,0.00236511,-0.99322510,0.244141,0.183105,-0.305176
2016533875,0.01298523,0.00236511,-0.99322510,0.305176,0.244141,-0.183105
2026216333,0.01336670,0.00465393,-0.99494934,0.244141,0.061035,-0.183105
2036171333,0.01284790,0.00689697,-0.99539185,0.183105,0.061035,-0.122070
2046275250,0.01141357,0.00881958,-0.99368286,0.183105,0.061035,-0.122070
2053881291,0.01243591,0.00776672,-0.99418640,0.183105,0.061035,-0.122070
2056433625,0.01243591,0.00776672,-0.99418640,0.183105,0.122070,-0.061035
2064037541,0.01200867,0.00663757,-0.99415588,0.183105,0.122070,-0.061035
2066604000,0.01200867,0.00663757,-0.99415588,0.244141,0.244141,0.000000
2074217666,0.01271057,0.00637817,-0.99346924,0.244141,0.244141,0.000000
2076433333,0.01271057,0.00637817,-0.99346924,0.244141,0.122070,-0.061035
2084033041,0.01325989,0.00486755,-0.99302673,0.244141,0.122070,-0.061035
2086299125,0.01325989,0.00486755,-0.99302673,0.061035,0.244141,-0.061035
2096402875,0.01283264,0.00350952,-0.99363708,0.000000,0.122070,-0.122070
2106569416,0.01257324,0.00274658,-0.99412537,0.122070,0.244141,-0.122070
2116294375,0.01307678,0.00193787,-0.99307251,0.122070,0.122070,-0.061035
2126157125,0.01296997,0.00254822,-0.99351501,0.122070,0.122070,-0.244141
2136325583,0.01356506,0.00248718,-0.99340820,0.000000,0.244141,-0.183105
2145946666,0.01292419,0.00283813,-0.99346924,0.122070,0.244141,-0.061035
2156096833,0.01298523,0.00279236,-0.99392700,0.183105,0.122070,-0.061035
2165778208,0.01438904,0.00286865,-0.99340820,0.183105,0.122070,-0.061035
2168338958,0.01438904,0.00286865,-0.99340820,0.122070,0.305176,0.000000
2175936458,0.01460266,0.00279236,-0.99488831,0.061035,0.183105,-0.122070
2186067458,0.01358032,0.00297546,-0.99427795,0.183105,0.305176,-0.061035
2196240583,0.01396179,0.00294495,-0.99382019,0.061035,0.000000,-0.244141
2206391041,0.01344299,0.00247192,-0.99441528,0.061035,0.122070,-0.122070
2216548166,0.01356506,0.00205994,-0.99430847,0.122070,0.061035,-0.183105
2226722291,0.01365662,0.00215149,-0.99438477,0.122070,0.244141,-0.061035
2234352041,0.01316833,0.00213623,-0.99365234,0.122070,0.244141,-0.061035
2236917875,0.01316833,0.00213623,-0.99365234,0.000000,0.183105,-0.061035
2247043916,0.01290894,0.00311279,-0.99403381,0.122070,0.122070,-0.122070
2257122166,0.01258850,0.00270081,-0.99551392,0.122070,0.305176,-0.122070
2267231666,0.01278687,0.00366211,-0.99423218,0.061035,0.244141,-0.122070
2274880375,0.01275635,0.00379944,-0.99369812,0.061035,0.244141,-0.122070
2277436750,0.01275635,0.00379944,-0.99369812,0.000000,0.122070,-0.122070
2285051125,0.01367188,0.00506592,-0.99497986,0.000000,0.122070,-0.122070
2287594250,0.01367188,0.00506592,-0.99497986,0.000000,0.183105,0.000000
2295175416,0.01451111,0.00489807,-0.99420166,0.000000,0.183105,0.000000
2297728375,0.01451111,0.00489807,-0.99420166,0.061035,0.183105,0.000000
2305341833,0.01440430,0.00474548,-0.99433899,0.061035,0.183105,0.000000
2307468291,0.01440430,0.00474548,-0.99433899,0.000000,0.183105,0.000000
2317364666,0.01417542,0.00495911,-0.99404907,0.122070,0.061035,-0.122070
2324970041,0.01361084,0.00486755,-0.99382019,0.122070,0.061035,-0.122070
2327509708,0.01361084,0.00486755,-0.99382019,0.061035,0.305176,-0.061035
2335111916,0.01368713,0.00340271,-0.99324036,0.061035,0.305176,-0.061035
2337657000,0.01368713,0.00340271,-0.99324036,0.000000,0.122070,-0.061035
2345253375,0.01275635,0.00259399,-0.99356079,0.000000,0.122070,-0.061035
2347801916,0.01275635,0.00259399,-0.99356079,0.061035,0.183105,-0.122070
2355210250,0.01315308,0.00233459,-0.99400330,0.061035,0.183105,-0.122070
2357757791,0.01315308,0.00233459,-0.99400330,0.122070,0.244141,-0.122070
2365355208,0.01351929,0.00158691,-0.99383545,0.122070,0.244141,-0.122070
2367910250,0.01351929,0.00158691,-0.99383545,0.061035,0.244141,-0.122070
2375507041,0.01336670,0.00175476,-0.99391174,0.061035,0.244141,-0.122070
2378056583,0.01336670,0.00175476,-0.99391174,0.122070,0.122070,0.000000
2385676250,0.01383972,0.00198364,-0.99458313,0.122070,0.122070,0.000000
2387972416,0.01383972,0.00198364,-0.99458313,0.061035,0.061035,-0.183105
2394885125,0.01342773,0.00129700,-0.99400330,0.061035,0.061035,-0.183105
2397019458,0.01342773,0.00129700,-0.99400330,0.183105,0.122070,-0.122070
2406036583,0.01232910,0.00131226,-0.99365234,0.000000,0.244141,-0.183105
2416142708,0.01246643,0.00245667,-0.99374390,0.000000,0.122070,0.000000
2426123791,0.01306152,0.00347900,-0.99319458,0.061035,0.244141,-0.122070
2436243791,0.01358032,0.00341797,-0.99282837,0.061035,0.061035,-0.244141
2446149708,0.01403809,0.00393677,-0.99372864,0.122070,0.183105,-0.122070
2456313541,0.01362610,0.00413513,-0.99427795,0.122070,0.183105,-0.183105
2466014666,0.01361084,0.00444031,-0.99403381,0.122070,0.183105,-0.183105
2468593958,0.01361084,0.00444031,-0.99403381,0.000000,0.244141,-0.061035
2476205875,0.01420593,0.00396729,-0.99505615,0.000000,0.061035,-0.122070
2486371583,0.01376343,0.00503540,-0.99285889,0.061035,0.244141,-0.061035
2495964500,0.01361084,0.00477600,-0.99328613,0.061035,0.244141,-0.061035
2498507375,0.01361084,0.00477600,-0.99328613,0.061035,0.122070,-0.061035
2506113958,0.01414490,0.00425720,-0.99465942,0.061035,0.122070,-0.061035
2508665500,0.01414490,0.00425720,-0.99465942,0.122070,0.183105,-0.122070
2516272000,0.01309204,0.00238037,-0.99407959,0.061035,0.122070,-0.183105
2526410416,0.01420593,0.00335693,-0.99404907,0.061035,0.122070,-0.122070
2536562125,0.01434326,0.00251770,-0.99450684,0.000000,0.244141,-0.061035
2546690083,0.01365662,0.00161743,-0.99382019,0.183105,0.244141,-0.122070
2556823416,0.01370239,0.00215149,-0.99465942,0.061035,0.244141,-0.061035
2566910375,0.01477051,0.00158691,-0.99467468,0.122070,0.122070,-0.122070
2577048958,0.01470947,0.00199890,-0.99336243,0.122070,0.122070,-0.061035
2587178958,0.01351929,0.00364685,-0.99420166,0.061035,0.244141,-0.061035
2597220750,0.01400757,0.00428772,-0.99545288,0.061035,0.183105,-0.122070
2607202958,0.01304626,0.00424194,-0.99325562,-0.061035,0.305176,-0.061035
2617343000,0.01403809,0.00564575,-0.99395752,0.122070,0.122070,-0.061035
2627482208,0.01325989,0.00486755,-0.99398804,-0.122070,0.061035,0.000000
2637761083,0.01263428,0.00483704,-0.99424744,0.183105,0.122070,0.000000
2647200875,0.01373291,0.00477600,-0.99331665,-0.061035,0.183105,-0.122070
2657342916,0.01368713,0.00357056,-0.99411011,0.000000,0.061035,-0.122070
2667067166,0.01408386,0.00305176,-0.99317932,-0.061035,0.122070,-0.183105
2677236291,0.01350403,0.00242615,-0.99363708,0.000000,0.122070,-0.244141
2687399750,0.01333618,0.00260925,-0.99313354,0.061035,0.244141,-0.122070
2697173708,0.01248169,0.00236511,-0.99478149,0.183105,0.244141,-0.061035
2706550416,0.01240540,0.00254822,-0.99615479,0.183105,0.244141,-0.061035
2709082208,0.01240540,0.00254822,-0.99615479,0.000000,0.244141,-0.183105
2716654500,0.01342773,0.00288391,-0.99360657,0.000000,0.244141,-0.183105
2719177500,0.01342773,0.00288391,-0.99360657,0.183105,0.183105,-0.122070
2726774250,0.01306152,0.00285339,-0.99293518,0.183105,0.183105,-0.122070
2729329791,0.01306152,0.00285339,-0.99293518,0.000000,0.244141,-0.122070
2736681250,0.01387024,0.00331116,-0.99319458,0.000000,0.244141,-0.122070
2739220375,0.01387024,0.00331116,-0.99319458,0.122070,0.244141,0.000000
2746838833,0.01393127,0.00308228,-0.99485779,0.000000,0.122070,0.000000
2756947875,0.01414490,0.00318909,-0.99366760,-0.061035,0.122070,-0.122070
2767109125,0.01307678,0.00387573,-0.99342346,0.000000,0.183105,0.000000
2776811500,0.01330566,0.00346375,-0.99324036,0.183105,0.244141,-0.244141
2786958125,0.01370239,0.00352478,-0.99446106,0.183105,0.122070,-0.061035
2797126708,0.01310730,0.00320435,-0.99420166,0.000000,0.244141,-0.061035
2807280750,0.01301575,0.00373840,-0.99418640,0.000000,0.244141,-0.061035
2809845500,0.01301575,0.00373840,-0.99418640,0.000000,0.244141,-0.122070
2817468583,0.01245117,0.00297546,-0.99343872,0.061035,0.122070,-0.122070
2827394875,0.01316833,0.00325012,-0.99348450,0.000000,0.305176,-0.061035
2837560416,0.01383972,0.00358582,-0.99411011,0.000000,0.183105,-0.122070
2847438416,0.01364136,0.00390625,-0.99397278,0.061035,0.183105,-0.061035
2857588166,0.01440430,0.00387573,-0.99371338,0.061035,0.122070,-0.183105
2867379416,0.01313782,0.00430298,-0.99391174,0.183105,0.000000,-0.061035
2877472500,0.01393127,0.00401306,-0.99444580,0.122070,0.244141,-0.244141
2887621875,0.01330566,0.00311279,-0.99414062,0.000000,0.244141,-0.061035
2897763000,0.01292419,0.00382996,-0.99435425,0.061035,0.122070,-0.061035
2907891000,0.01393127,0.00263977,-0.99420166,0.000000,0.183105,-0.061035
2917849750,0.01281738,0.00247192,-0.99357605,0.000000,0.183105,-0.061035
2927852791,0.01449585,0.00241089,-0.99406433,0.122070,0.122070,-0.122070
2938022666,0.01344299,0.00216675,-0.99449158,0.183105,0.122070,-0.183105
2948163041,0.01377869,0.00262451,-0.99456787,0.061035,0.122070,-0.122070
2958139166,0.01344299,0.00257874,-0.99429321,0.061035,0.061035,-0.122070
2967960791,0.01353455,0.00346375,-0.99362183,0.000000,0.122070,-0.122070
2978009083,0.01383972,0.00358582,-0.99440002,0.000000,0.122070,0.000000
2988131125,0.01367188,0.00320435,-0.99368286,0.061035,0.244141,-0.122070
2998226583,0.01364136,0.00498962,-0.99453735,0.000000,0.122070,-0.244141
3008421916,0.01283264,0.00529480,-0.99397278,0.061035,0.305176,-0.183105
3018288833,0.01354980,0.00401306,-0.99383545,0.000000,0.244141,-0.183105
3028506958,0.01332092,0.00398254,-0.99362183,0.061035,0.244141,-0.122070
3038477041,0.01312256,0.00433350,-0.99429321,0.183105,0.122070,0.000000
3048544625,0.01354980,0.00415039,-0.99435425,0.183105,0.244141,-0.122070
3058687500,0.01396179,0.00370789,-0.99385071,0.061035,0.244141,-0.061035
3066303166,0.01385498,0.00195312,-0.99468994,0.061035,0.244141,-0.061035
3068863458,0.01385498,0.00195312,-0.99468994,0.000000,0.122070,-0.244141
3076475458,0.01370239,0.00271606,-0.99470520,0.000000,0.122070,-0.244141
3079027416,0.01370239,0.00271606,-0.99470520,0.061035,0.061035,-0.061035
3086622208,0.01396179,0.00279236,-0.99458313,0.061035,0.061035,-0.061035
3089173041,0.01396179,0.00279236,-0.99458313,0.183105,0.183105,-0.122070
3096617875,0.01399231,0.00256348,-0.99334717,0.183105,0.183105,-0.122070
3099178708,0.01399231,0.00256348,-0.99334717,0.122070,0.183105,-0.061035
3106779833,0.01280212,0.00224304,-0.99421692,0.122070,0.183105,-0.061035
3109222375,0.01280212,0.00224304,-0.99421692,0.061035,0.244141,-0.122070
3116788958,0.01275635,0.00247192,-0.99444580,0.061035,0.244141,-0.122070
3119331000,0.01275635,0.00247192,-0.99444580,0.061035,0.122070,0.061035
3126948833,0.01351929,0.00340271,-0.99395752,0.061035,0.122070,0.061035
3129492416,0.01351929,0.00340271,-0.99395752,0.061035,0.061035,-0.061035
3139239000,0.01330566,0.00355530,-0.99324036,0.000000,0.183105,-0.183105
3146874875,0.01300049,0.00354004,-0.99356079,0.000000,0.183105,-0.183105
3149422041,0.01300049,0.00354004,-0.99356079,0.000000,0.122070,-0.122070
3157016125,0.01289368,0.00323486,-0.99360657,0.000000,0.122070,-0.122070
3159557125,0.01289368,0.00323486,-0.99360657,0.183105,0.183105,-0.061035
3167150791,0.01391602,0.00364685,-0.99417114,0.183105,0.183105,-0.061035
3169705416,0.01391602,0.00364685,-0.99417114,0.122070,0.183105,-0.122070
3177285291,0.01361084,0.00506592,-0.99423218,0.122070,0.183105,-0.122070
3179821875,0.01361084,0.00506592,-0.99423218,0.122070,0.183105,-0.061035
3187331583,0.01350403,0.00390625,-0.99391174,0.122070,0.183105,-0.061035
3189880333,0.01350403,0.00390625,-0.99391174,0.000000,0.244141,-0.061035
3197106083,0.01325989,0.00309753,-0.99407959,0.000000,0.244141,-0.061035
3199669625,0.01325989,0.00309753,-0.99407959,0.122070,0.183105,-0.244141
3207285000,0.01368713,0.00344849,-0.99378967,0.122070,0.183105,-0.244141
3209835208,0.01368713,0.00344849,-0.99378967,0.061035,0.183105,-0.122070
3217445041,0.01409912,0.00369263,-0.99351501,0.061035,0.183105,-0.122070
3219988166,0.01409912,0.00369263,-0.99351501,0.122070,0.122070,-0.061035
3227250083,0.01406860,0.00355530,-0.99452209,0.122070,0.122070,-0.061035
3229800291,0.01406860,0.00355530,-0.99452209,0.000000,0.183105,-0.061035
3237361833,0.01382446,0.00280762,-0.99412537,0.000000,0.183105,-0.061035
3239889125,0.01382446,0.00280762,-0.99412537,0.061035,0.183105,-0.244141
3247167375,0.01322937,0.00259399,-0.99392700,0.061035,0.183105,-0.244141
3249712708,0.01322937,0.00259399,-0.99392700,0.000000,0.366211,-0.122070
3257282666,0.01373291,0.00358582,-0.99438477,0.000000,0.366211,-0.122070
3259807875,0.01373291,0.00358582,-0.99438477,0.122070,0.244141,-0.122070
3267094625,0.01322937,0.00280762,-0.99472046,0.122070,0.244141,-0.122070
3269650458,0.01322937,0.00280762,-0.99472046,0.061035,0.061035,-0.122070
3277260041,0.01316833,0.00291443,-0.99441528,0.061035,0.061035,-0.122070
3279803666,0.01316833,0.00291443,-0.99441528,0.061035,0.183105,-0.183105
3287411916,0.01347351,0.00296021,-0.99507141,0.061035,0.183105,-0.183105
3289951375,0.01347351,0.00296021,-0.99507141,0.061035,0.122070,0.000000
3297537125,0.01252747,0.00297546,-0.99403381,0.061035,0.122070,0.000000
3300077083,0.01252747,0.00297546,-0.99403381,-0.061035,0.305176,0.000000
3307666291,0.01301575,0.00325012,-0.99417114,-0.061035,0.305176,0.000000
3310205000,0.01301575,0.00325012,-0.99417114,0.061035,0.122070,-0.122070
3317810291,0.01338196,0.00338745,-0.99438477,0.061035,0.122070,-0.122070
3320349500,0.01338196,0.00338745,-0.99438477,0.122070,0.183105,-0.061035
3327927166,0.01271057,0.00373840,-0.99433899,0.122070,0.183105,-0.061035
3330458875,0.01271057,0.00373840,-0.99433899,0.000000,0.244141,-0.183105
3338053291,0.01261902,0.00268555,-0.99423218,0.061035,0.122070,-0.122070
3348177083,0.01300049,0.00270081,-0.99475098,0.122070,0.183105,-0.122070
3358299916,0.01408386,0.00370789,-0.99467468,0.183105,0.183105,-0.061035
3368295166,0.01403809,0.00321960,-0.99366760,0.061035,0.183105,-0.122070
3378472666,0.01322937,0.00276184,-0.99325562,0.061035,0.305176,-0.183105
3388330125,0.01252747,0.00300598,-0.99394226,0.000000,0.061035,-0.122070
3398487083,0.01399231,0.00382996,-0.99438477,0.000000,0.244141,-0.061035
3408636083,0.01269531,0.00331116,-0.99275208,0.061035,0.183105,0.000000
3418798958,0.01240540,0.00288391,-0.99420166,0.061035,0.305176,-0.061035
3428938458,0.01304626,0.00320435,-0.99440002,0.061035,0.183105,-0.122070
3438807541,0.01446533,0.00347900,-0.99482727,0.061035,0.183105,-0.122070
3448982750,0.01368713,0.00317383,-0.99476624,0.061035,0.122070,-0.061035
3459110416,0.01295471,0.00433350,-0.99369812,0.183105,0.122070,-0.061035
3469249333,0.01316833,0.00382996,-0.99400330,0.122070,0.122070,-0.122070
3479401000,0.01344299,0.00378418,-0.99368286,0.061035,0.061035,-0.183105
3489509666,0.01368713,0.00311279,-0.99502563,0.122070,0.305176,-0.061035
3499516583,0.01301575,0.00302124,-0.99365234,0.000000,0.122070,0.000000
3509670291,0.01371765,0.00210571,-0.99433899,0.000000,0.183105,-0.061035
3517308916,0.01318359,0.00178528,-0.99452209,0.000000,0.183105,-0.061035
3519373708,0.01318359,0.00178528,-0.99452209,0.000000,0.183105,-0.183105
3529519583,0.01287842,0.00373840,-0.99449158,0.122070,0.183105,-0.122070
3539687250,0.01313782,0.00251770,-0.99388123,0.000000,0.122070,-0.183105
3547355791,0.01379395,0.00332642,-0.99484253,0.000000,0.122070,-0.183105
3549899958,0.01379395,0.00332642,-0.99484253,0.122070,0.183105,0.000000
3557490875,0.01397705,0.00384521,-0.99491882,0.122070,0.183105,0.000000
3560031375,0.01397705,0.00384521,-0.99491882,0.122070,0.122070,-0.122070
3567632375,0.01345825,0.00517273,-0.99389648,0.122070,0.122070,-0.122070
3570180958,0.01345825,0.00517273,-0.99389648,0.000000,0.183105,-0.183105
3580320333,0.01351929,0.00486755,-0.99482727,-0.061035,0.061035,-0.061035
3587936791,0.01380920,0.00401306,-0.99440002,-0.061035,0.061035,-0.061035
3590488333,0.01380920,0.00401306,-0.99440002,0.000000,-0.061035,-0.061035
3598093708,0.01327515,0.00424194,-0.99511719,0.000000,-0.061035,-0.061035
3600300666,0.01327515,0.00424194,-0.99511719,0.000000,0.183105,-0.061035
3610178500,0.01168823,0.00253296,-0.99459839,0.061035,0.183105,-0.061035
3620333583,0.01223755,0.00205994,-0.99337769,0.122070,0.061035,-0.122070
3630309625,0.01321411,0.00292969,-0.99394226,0.061035,0.183105,-0.122070
3637893916,0.01329041,0.00267029,-0.99514771,0.061035,0.183105,-0.122070
3639974625,0.01329041,0.00267029,-0.99514771,0.122070,0.366211,-0.183105
3650088875,0.01338196,0.00279236,-0.99389648,0.061035,0.183105,-0.122070
3660220291,0.01348877,0.00257874,-0.99290466,0.061035,0.122070,-0.122070
3670377458,0.01385498,0.00332642,-0.99496460,0.000000,0.061035,-0.183105
3677872291,0.01344299,0.00408936,-0.99565125,0.000000,0.061035,-0.183105
3680418708,0.01344299,0.00408936,-0.99565125,0.000000,0.183105,-0.183105
3690162583,0.01319885,0.00498962,-0.99426270,0.061035,0.122070,-0.244141
3700312625,0.01399231,0.00447083,-0.99423218,0.000000,0.183105,-0.244141
3707959708,0.01258850,0.00390625,-0.99339294,0.000000,0.183105,-0.244141
3710211625,0.01258850,0.00390625,-0.99339294,0.000000,0.183105,-0.061035
3720347125,0.01261902,0.00370789,-0.99288940,0.061035,0.244141,-0.183105
3727939458,0.01301575,0.00340271,-0.99346924,0.061035,0.244141,-0.183105
3730038791,0.01301575,0.00340271,-0.99346924,0.061035,0.122070,-0.122070
3740203625,0.01358032,0.00401306,-0.99319458,0.061035,0.122070,-0.244141
3750023000,0.01300049,0.00375366,-0.99473572,0.122070,0.183105,-0.122070
3760150041,0.01408386,0.00320435,-0.99417114,0.061035,0.305176,-0.122070
3770283791,0.01327515,0.00303650,-0.99293518,0.061035,0.244141,-0.061035
3777871333,0.01382446,0.00325012,-0.99366760,0.061035,0.244141,-0.061035
3780412166,0.01382446,0.00325012,-0.99366760,0.122070,0.244141,-0.122070
3788013708,0.01408386,0.00326538,-0.99397278,0.122070,0.244141,-0.122070
3790552708,0.01408386,0.00326538,-0.99397278,0.000000,0.183105,-0.183105
3800211625,0.01290894,0.00271606,-0.99377441,0.061035,0.244141,-0.122070
3809857916,0.01301575,0.00314331,-0.99476624,-0.061035,0.305176,-0.122070
3819967791,0.01283264,0.00294495,-0.99455261,0.183105,0.061035,-0.122070
3829713291,0.01246643,0.00225830,-0.99391174,0.122070,0.183105,-0.183105
3839851500,0.01300049,0.00410461,-0.99418640,0.061035,0.183105,-0.061035
3849617000,0.01327515,0.00389099,-0.99418640,0.061035,0.122070,-0.061035
3859766000,0.01332092,0.00328064,-0.99400330,0.061035,0.061035,-0.183105
3869887083,0.01321411,0.00283813,-0.99481201,0.000000,0.061035,-0.061035
3880024083,0.01295471,0.00283813,-0.99397278,0.183105,0.244141,0.000000
3890187125,0.01292419,0.00263977,-0.99374390,0.122070,0.183105,-0.061035
3900390000,0.01359558,0.00299072,-0.99340820,0.122070,0.183105,-0.122070
3910569541,0.01254272,0.00314331,-0.99418640,0.061035,0.183105,-0.061035
3920665875,0.01240540,0.00329590,-0.99365234,0.061035,0.122070,-0.122070
3928304791,0.01290894,0.00311279,-0.99426270,0.061035,0.122070,-0.122070
3930850833,0.01290894,0.00311279,-0.99426270,0.061035,0.183105,0.000000
3938462583,0.01330566,0.00361633,-0.99520874,0.061035,0.183105,0.000000
3941012416,0.01330566,0.00361633,-0.99520874,0.061035,0.244141,-0.061035
3948441666,0.01271057,0.00358582,-0.99490356,0.061035,0.244141,-0.061035
3950966000,0.01271057,0.00358582,-0.99490356,0.061035,0.183105,-0.122070
3958340083,0.01345825,0.00328064,-0.99531555,0.061035,0.183105,-0.122070
3960817041,0.01345825,0.00328064,-0.99531555,0.000000,0.183105,-0.122070
3968421708,0.01338196,0.00302124,-0.99429321,0.000000,0.183105,-0.122070
3970966375,0.01338196,0.00302124,-0.99429321,0.122070,0.061035,-0.061035
3978451500,0.01261902,0.00325012,-0.99499512,0.122070,0.061035,-0.061035
3981004416,0.01261902,0.00325012,-0.99499512,0.061035,0.061035,-0.122070
3988623208,0.01350403,0.00332642,-0.99490356,0.061035,0.061035,-0.122070
3991176708,0.01350403,0.00332642,-0.99490356,0.061035,0.244141,-0.061035
3998684208,0.01333618,0.00366211,-0.99443054,0.061035,0.244141,-0.061035
4001226458,0.01333618,0.00366211,-0.99443054,0.122070,0.122070,0.061035
4008814958,0.01258850,0.00436401,-0.99327087,0.122070,0.122070,0.061035
4011364083,0.01258850,0.00436401,-0.99327087,0.000000,0.122070,-0.122070
4018982666,0.01333618,0.00442505,-0.99394226,0.000000,0.122070,-0.122070
4021527916,0.01333618,0.00442505,-0.99394226,0.061035,0.183105,-0.122070
4029116166,0.01341248,0.00302124,-0.99299622,0.061035,0.183105,-0.122070
4031658541,0.01341248,0.00302124,-0.99299622,-0.061035,0.122070,0.000000
4039245291,0.01335144,0.00341797,-0.99276733,-0.061035,0.122070,0.000000
4041784416,0.01335144,0.00341797,-0.99276733,0.183105,0.183105,-0.061035
4049379833,0.01396179,0.00297546,-0.99382019,0.183105,0.183105,-0.061035
4051991000,0.01396179,0.00297546,-0.99382019,0.183105,0.183105,0.000000
4059337583,0.01361084,0.00352478,-0.99327087,0.183105,0.183105,0.000000
4061879750,0.01361084,0.00352478,-0.99327087,0.061035,0.122070,-0.122070
4069480000,0.01271057,0.00204468,-0.99514771,0.061035,0.122070,-0.122070
4072031041,0.01271057,0.00204468,-0.99514771,0.000000,0.244141,-0.122070
4079270000,0.01269531,0.00207520,-0.99436951,0.000000,0.244141,-0.122070
4081826291,0.01269531,0.00207520,-0.99436951,-0.061035,0.183105,-0.183105
4089420750,0.01376343,0.00300598,-0.99322510,-0.061035,0.183105,-0.183105
4091961416,0.01376343,0.00300598,-0.99322510,0.061035,0.183105,-0.122070
4099559500,0.01261902,0.00291443,-0.99353027,0.061035,0.183105,-0.122070
4102097916,0.01261902,0.00291443,-0.99353027,0.061035,0.061035,-0.061035
4109657208,0.01283264,0.00254822,-0.99385071,0.061035,0.061035,-0.061035
4112192083,0.01283264,0.00254822,-0.99385071,0.061035,0.122070,-0.122070
4119832750,0.01322937,0.00305176,-0.99423218,-0.061035,0.244141,-0.061035
4129910541,0.01220703,0.00349426,-0.99519348,0.061035,0.122070,-0.122070
4140028625,0.01261902,0.00340271,-0.99412537,0.122070,0.061035,-0.183105
4150149250,0.01318359,0.00372314,-0.99375916,0.122070,0.183105,0.000000
4160324041,0.01278687,0.00354004,-0.99339294,0.183105,0.122070,-0.061035
4170457083,0.01358032,0.00303650,-0.99404907,0.061035,0.244141,-0.122070
4180579250,0.01383972,0.00329590,-0.99427795,0.122070,0.183105,-0.122070
4190703166,0.01359558,0.00346375,-0.99526978,0.061035,0.183105,-0.183105
4199948250,0.01359558,0.00421143,-0.99407959,0.061035,0.183105,-0.183105
4202484166,0.01359558,0.00421143,-0.99407959,0.061035,0.122070,-0.122070
4210107333,0.01406860,0.00341797,-0.99362183,0.000000,0.244141,0.000000
4220246541,0.01359558,0.00238037,-0.99404907,0.061035,0.305176,-0.122070
4230020958,0.01231384,0.00300598,-0.99499512,0.061035,0.305176,-0.122070
4232564125,0.01231384,0.00300598,-0.99499512,0.061035,0.122070,-0.122070
4239735875,0.01306152,0.00332642,-0.99462891,0.061035,0.122070,-0.122070
4242276375,0.01306152,0.00332642,-0.99462891,0.061035,0.183105,-0.122070
4249870666,0.01358032,0.00337219,-0.99438477,0.061035,0.183105,-0.122070
4252403958,0.01358032,0.00337219,-0.99438477,0.122070,0.122070,-0.122070
4259970791,0.01324463,0.00344849,-0.99388123,0.122070,0.122070,-0.122070
4262498250,0.01324463,0.00344849,-0.99388123,-0.061035,0.244141,-0.061035
4270100708,0.01274109,0.00369263,-0.99301147,-0.061035,0.244141,-0.061035
4272644750,0.01274109,0.00369263,-0.99301147,-0.061035,0.244141,0.000000
4280264458,0.01321411,0.00447083,-0.99447632,0.122070,0.122070,-0.061035
4289910541,0.01371765,0.00390625,-0.99407959,0.122070,0.122070,-0.061035
4292457125,0.01371765,0.00390625,-0.99407959,0.061035,0.183105,-0.061035
4300053916,0.01438904,0.00303650,-0.99336243,0.061035,0.183105,-0.061035
4302609958,0.01438904,0.00303650,-0.99336243,0.061035,0.366211,-0.122070
4310237083,0.01396179,0.00245667,-0.99360657,0.061035,0.366211,-0.122070
4312811416,0.01396179,0.00245667,-0.99360657,0.122070,0.183105,-0.122070
4320432708,0.01356506,0.00292969,-0.99453735,0.122070,0.122070,0.000000
4330589833,0.01284790,0.00283813,-0.99481201,0.061035,0.122070,-0.183105
4340758583,0.01261902,0.00253296,-0.99317932,0.061035,0.183105,-0.244141
4350897250,0.01277161,0.00299072,-0.99383545,0.061035,0.183105,-0.244141
4353463833,0.01277161,0.00299072,-0.99383545,-0.061035,0.061035,-0.122070
4361089041,0.01295471,0.00196838,-0.99444580,0.000000,0.122070,-0.061035
4371245250,0.01277161,0.00325012,-0.99337769,0.000000,0.183105,-0.061035
4381371125,0.01402283,0.00354004,-0.99403381,0.000000,0.122070,-0.122070
4390516041,0.01332092,0.00288391,-0.99392700,0.000000,0.122070,-0.122070
4392640208,0.01332092,0.00288391,-0.99392700,0.061035,0.122070,-0.061035
4400211833,0.01382446,0.00366211,-0.99499512,0.061035,0.122070,-0.061035
4402733416,0.01382446,0.00366211,-0.99499512,0.061035,0.061035,-0.122070
4410315458,0.01361084,0.00382996,-0.99510193,0.061035,0.061035,-0.122070
4412705125,0.01361084,0.00382996,-0.99510193,0.061035,0.244141,-0.122070
4420317875,0.01396179,0.00378418,-0.99415588,0.061035,0.244141,-0.122070
4422887125,0.01396179,0.00378418,-0.99415588,-0.061035,0.183105,0.000000
4430287916,0.01322937,0.00529480,-0.99377441,-0.061035,0.183105,0.000000
4432841500,0.01322937,0.00529480,-0.99377441,0.000000,0.244141,-0.122070
4440419666,0.01312256,0.00437927,-0.99458313,0.000000,0.244141,-0.122070
4442953500,0.01312256,0.00437927,-0.99458313,0.061035,0.183105,-0.122070
4450542250,0.01329041,0.00257874,-0.99478149,0.061035,0.183105,-0.122070
4453027291,0.01329041,0.00257874,-0.99478149,0.061035,0.305176,-0.122070
4460535375,0.01321411,0.00270081,-0.99296570,0.061035,0.305176,-0.122070
4463100083,0.01321411,0.00270081,-0.99296570,0.000000,0.183105,-0.183105
4470741541,0.01356506,0.00334167,-0.99568176,0.000000,0.183105,-0.183105
4473296958,0.01356506,0.00334167,-0.99568176,0.000000,0.122070,-0.183105
4480895583,0.01240540,0.00315857,-0.99534607,0.000000,0.122070,-0.061035
4490680875,0.01303101,0.00296021,-0.99429321,0.000000,0.122070,-0.061035
4493232416,0.01303101,0.00296021,-0.99429321,0.061035,0.244141,-0.061035
4500813208,0.01429749,0.00274658,-0.99325562,0.000000,0.122070,-0.061035
4510975791,0.01280212,0.00357056,-0.99494934,0.183105,0.122070,-0.183105
4521124125,0.01237488,0.00288391,-0.99488831,-0.061035,0.183105,-0.183105
4531250958,0.01293945,0.00263977,-0.99467468,0.061035,0.122070,-0.122070
4541376791,0.01377869,0.00306702,-0.99382019,0.000000,0.183105,-0.183105
4551522500,0.01354980,0.00402832,-0.99356079,0.000000,0.183105,0.000000
4561353041,0.01306152,0.00418091,-0.99499512,0.000000,0.122070,-0.183105
4571400333,0.01354980,0.00320435,-0.99395752,0.000000,0.244141,-0.061035
4581218958,0.01277161,0.00312805,-0.99249268,0.000000,0.183105,-0.122070
4591359333,0.01374817,0.00387573,-0.99296570,0.244141,0.244141,-0.061035
4601384666,0.01301575,0.00390625,-0.99383545,0.122070,0.244141,-0.061035
4611567833,0.01399231,0.00276184,-0.99450684,0.061035,0.244141,0.000000
4621713916,0.01461792,0.00321960,-0.99356079,0.183105,0.061035,-0.061035
4631851750,0.01332092,0.00291443,-0.99411011,0.061035,0.183105,-0.244141
4641541583,0.01342773,0.00343323,-0.99455261,0.000000,0.061035,-0.061035
4651242708,0.01370239,0.00288391,-0.99417114,0.183105,0.122070,-0.122070
4661396208,0.01344299,0.00276184,-0.99523926,-0.183105,-0.244141,0.000000
4671563083,0.01377869,0.00335693,-0.99333191,-0.427246,0.305176,-0.122070
4681855166,0.01356506,0.00434875,-0.99456787,0.000000,0.000000,-0.244141
4692188750,0.01275635,0.00392151,-0.99526978,-0.061035,0.061035,-0.122070
4701964041,0.01290894,0.00422668,-0.99554443,0.183105,0.000000,-0.061035
4712163750,0.01332092,0.00390625,-0.99337769,0.000000,0.244141,-0.122070
4721616583,0.01173401,0.00404358,-0.99359131,0.061035,0.061035,-0.122070
4731784041,0.01304626,0.00340271,-0.99465942,-0.061035,0.244141,0.000000
4741553458,0.01351929,0.00378418,-0.99325562,0.000000,0.183105,0.000000
4751707083,0.01380920,0.00427246,-0.99342346,0.061035,0.122070,-0.122070
4761860458,0.01460266,0.00315857,-0.99470520,0.183105,0.488281,-0.183105
4771660166,0.01327515,0.00178528,-0.99284363,-0.122070,0.244141,-0.183105
4781783416,0.01347351,0.00161743,-0.99798584,0.061035,0.122070,0.000000
4791900916,0.01422119,0.00184631,-0.99153137,0.183105,0.183105,-0.183105
4802066875,0.01348877,0.00093079,-0.99638367,-0.061035,0.122070,-0.122070
4812187375,0.01159668,0.00274658,-0.99334717,0.000000,0.122070,-0.244141
4822320791,0.01165771,0.00369263,-0.99394226,0.061035,0.183105,-0.244141
4832471958,0.01130676,0.00395203,-0.99308777,0.793457,0.183105,-0.122070
4842251291,0.01284790,0.00584412,-0.98193359,0.793457,0.305176,-0.244141
4852032500,0.01411438,0.00596619,-1.00369263,-0.305176,0.305176,-0.183105
4862173625,0.01483154,0.00523376,-0.99546814,0.000000,0.061035,0.000000
4872289541,0.01443481,0.00405884,-0.99557495,-0.305176,0.122070,-0.061035
4882150125,0.01318359,0.00360107,-0.99752808,-0.183105,0.061035,-0.061035
4892030041,0.01182556,0.00114441,-0.99316406,-0.061035,0.122070,0.061035
4902165458,0.01243591,0.00138855,-0.99421692,0.000000,0.122070,-0.183105
4912304166,0.01257324,0.00169373,-0.99191284,0.183105,0.305176,-0.183105
4922426916,0.01191711,0.00187683,-0.99385071,0.183105,0.305176,-0.183105
4924975916,0.01191711,0.00187683,-0.99385071,-0.549316,0.244141,-0.122070
4932589666,0.01254272,0.00253296,-0.99455261,0.549316,0.183105,-0.183105
4942278208,0.01445007,0.00506592,-0.99690247,-0.122070,0.122070,-0.183105
4952429500,0.01463318,0.00624084,-0.98873901,0.061035,0.244141,-0.122070
4962446000,0.01455688,0.00608826,-0.99551392,0.061035,0.122070,-0.122070
4972288083,0.01426697,0.00535583,-0.99650574,0.305176,0.061035,-0.122070
4982442083,0.01246643,0.00492859,-0.99369812,-0.244141,0.244141,-0.244141
4992327416,0.01092529,0.00335693,-0.99479675,0.183105,0.122070,0.061035
5001909083,0.01298523,0.00270081,-0.99250793,0.427246,0.122070,-0.122070
5012066625,0.01379395,0.00151062,-0.99314880,-0.061035,0.183105,-0.122070
5022209333,0.01347351,0.00309753,-0.99623108,-0.122070,0.061035,-0.061035
5032356041,0.01318359,0.00405884,-0.98541260,0.427246,0.244141,-0.061035
5042478916,0.01332092,0.00387573,-1.00630188,-0.183105,0.366211,-0.122070
5052273666,0.01345825,0.00535583,-0.98675537,0.183105,0.183105,-0.122070
5062039875,0.01332092,0.00482178,-0.99861145,-0.122070,0.183105,0.000000
5072193791,0.01330566,0.00486755,-0.99543762,-0.122070,0.183105,-0.061035
5082314208,0.01348877,0.00410461,-0.99578857,0.000000,0.305176,-0.183105
5092400333,0.01228333,0.00315857,-0.99240112,-0.061035,0.183105,-0.061035
5102320291,0.01367188,0.00210571,-0.99438477,0.122070,0.000000,-0.183105
5112469916,0.01359558,0.00094604,-0.99365234,-0.671387,0.183105,-0.122070
5122420416,0.01416016,0.00083923,-0.99641418,0.305176,0.122070,-0.122070
5132544875,0.01368713,0.00213623,-0.99345398,0.305176,0.244141,-0.061035
5142236791,0.01303101,0.00288391,-0.99203491,-0.366211,0.244141,-0.061035
5152410333,0.01089478,0.00453186,-0.98423767,0.671387,0.183105,-0.122070
5162556500,0.01185608,0.00355530,-1.01013184,-1.281738,0.183105,-0.061035
5172490958,0.01332092,0.00379944,-0.98637390,-0.122070,0.122070,-0.183105
5182630375,0.01264954,0.00277710,-0.98962402,0.305176,0.183105,-0.122070
5192723125,0.01188660,0.00238037,-1.00334167,-0.122070,0.122070,-0.183105
5202872125,0.01353455,0.00363159,-0.98919678,0.061035,0.244141,-0.061035
5213022125,0.01400757,0.00434875,-0.99697876,-0.122070,0.183105,-0.183105
5223154791,0.01402283,0.00585938,-0.99511719,-0.244141,0.183105,-0.244141
5233292000,0.01377869,0.00675964,-0.99623108,-0.061035,0.061035,-0.122070
5243447583,0.01278687,0.00624084,-0.99494934,-0.366211,0.122070,-0.183105
5253608125,0.01280212,0.00491333,-0.99423218,0.061035,0.122070,0.000000
5263510833,0.01271057,0.00485229,-0.99424744,-0.183105,0.061035,0.000000
5273100333,0.01220703,0.00332642,-0.99211121,0.488281,0.244141,-0.122070
5283237791,0.01243591,0.00222778,-0.99642944,-0.061035,0.244141,-0.061035
5293390541,0.01324463,0.00199890,-0.99009705,0.000000,0.244141,0.000000
5303193250,0.01477051,0.00120544,-0.99481201,0.000000,0.000000,-0.183105
5313339708,0.01515198,0.00141907,-0.99342346,0.061035,0.183105,-0.183105
5323510541,0.01568604,0.00149536,-0.99383545,0.000000,0.183105,-0.122070
5333390333,0.01449585,0.00231934,-0.99389648,0.122070,0.183105,-0.122070
5343550541,0.01197815,0.00344849,-0.99356079,0.061035,0.183105,-0.061035
5353694541,0.01156616,0.00299072,-0.99363708,0.183105,0.244141,-0.183105
5363871000,0.01220703,0.00370789,-0.99519348,0.000000,0.183105,-0.122070
5374075291,0.01223755,0.00480652,-0.99430847,0.000000,0.183105,-0.061035
5384257875,0.01354980,0.00434875,-0.99328613,0.061035,0.305176,-0.061035
5393947375,0.01269531,0.00367737,-0.99374390,0.122070,0.061035,-0.122070
5403845250,0.01345825,0.00437927,-0.99510193,0.183105,0.183105,-0.122070
5414030583,0.01356506,0.00415039,-0.99494934,0.183105,0.244141,0.000000
5424196666,0.01359558,0.00459290,-0.99267578,0.061035,0.183105,-0.183105
5431867583,0.01539612,0.00430298,-0.99380493,0.061035,0.183105,-0.183105
5434186541,0.01539612,0.00430298,-0.99380493,-0.061035,0.061035,-0.061035
5444052750,0.01296997,0.00367737,-0.99394226,0.061035,0.122070,-0.122070
5454175083,0.01280212,0.00321960,-0.99447632,0.183105,0.244141,-0.061035
5464338583,0.01345825,0.00292969,-0.99334717,0.000000,0.244141,-0.183105
5471941166,0.01313782,0.00173950,-0.99435425,0.000000,0.244141,-0.183105
5474495291,0.01313782,0.00173950,-0.99435425,-0.122070,0.183105,-0.122070
5482131458,0.01292419,0.00170898,-0.99409485,-0.122070,0.183105,-0.122070
5484693916,0.01292419,0.00170898,-0.99409485,0.061035,0.061035,-0.061035
5492299583,0.01263428,0.00183105,-0.99337769,0.061035,0.061035,-0.061035
5494832708,0.01263428,0.00183105,-0.99337769,0.000000,0.061035,-0.061035
5502442833,0.01240540,0.00245667,-0.99429321,0.000000,0.061035,-0.061035
5505003958,0.01240540,0.00245667,-0.99429321,-0.122070,0.183105,-0.183105
5512607083,0.01286316,0.00189209,-0.99363708,-0.122070,0.183105,-0.183105
5515157583,0.01286316,0.00189209,-0.99363708,0.061035,0.061035,-0.183105
5522777500,0.01329041,0.00212097,-0.99369812,0.061035,0.061035,-0.183105
5525324708,0.01329041,0.00212097,-0.99369812,0.000000,0.061035,-0.061035
5532974166,0.01353455,0.00286865,-0.99322510,0.000000,0.061035,-0.061035
5535550750,0.01353455,0.00286865,-0.99322510,0.061035,0.061035,-0.183105
5543187041,0.01356506,0.00413513,-0.99468994,-0.061035,0.183105,-0.122070
5553346416,0.01303101,0.00419617,-0.99426270,0.122070,0.244141,-0.122070
5563487041,0.01367188,0.00474548,-0.99421692,0.061035,0.122070,-0.122070
5573638708,0.01312256,0.00515747,-0.99383545,0.061035,0.122070,-0.122070
5583792541,0.01339722,0.00459290,-0.99400330,0.183105,0.244141,-0.061035
5593951958,0.01362610,0.00372314,-0.99423218,0.000000,0.122070,-0.244141
5604141166,0.01408386,0.00302124,-0.99328613,0.122070,0.122070,-0.122070
5614159166,0.01448059,0.00256348,-0.99389648,0.000000,0.183105,-0.122070
5624314958,0.01393127,0.00259399,-0.99356079,0.122070,0.183105,-0.244141
5634469583,0.01475525,0.00305176,-0.99455261,0.122070,0.183105,-0.122070
5644218500,0.01303101,0.00224304,-0.99475098,0.061035,0.122070,-0.183105
5654360666,0.01339722,0.00294495,-0.99468994,0.061035,0.061035,-0.122070
5664229166,0.01327515,0.00325012,-0.99427795,0.061035,0.183105,-0.183105
5674359333,0.01210022,0.00392151,-0.99412537,0.061035,0.244141,0.000000
5684520791,0.01225281,0.00421143,-0.99545288,0.244141,0.122070,-0.061035
5692213583,0.01377869,0.00376892,-0.99382019,0.244141,0.122070,-0.061035
5694779750,0.01377869,0.00376892,-0.99382019,0.000000,0.183105,-0.183105
5702396500,0.01438904,0.00445557,-0.99473572,0.000000,0.183105,-0.183105
5704944958,0.01438904,0.00445557,-0.99473572,0.061035,0.122070,-0.061035
5712562583,0.01361084,0.00469971,-0.99441528,0.061035,0.122070,-0.061035
5715114000,0.01361084,0.00469971,-0.99441528,0.000000,0.122070,-0.183105
5722747708,0.01402283,0.00254822,-0.99325562,0.000000,0.122070,-0.183105
5725316958,0.01402283,0.00254822,-0.99325562,0.000000,0.183105,-0.122070
5732969916,0.01425171,0.00140381,-0.99418640,0.000000,0.183105,-0.122070
5735525250,0.01425171,0.00140381,-0.99418640,0.122070,0.305176,-0.122070
5743137875,0.01359558,0.00048828,-0.99360657,0.122070,0.305176,-0.122070
5745690958,0.01359558,0.00048828,-0.99360657,-0.061035,0.122070,-0.244141
5752813041,0.01335144,0.00006104,-0.99137878,-0.061035,0.122070,-0.244141
5755373583,0.01335144,0.00006104,-0.99137878,0.000000,0.122070,-0.122070
5762996625,0.01289368,-0.00109863,-0.99208069,0.000000,0.122070,-0.122070
5765554000,0.01289368,-0.00109863,-0.99208069,-0.061035,0.183105,-0.244141
5773174625,0.01348877,0.00012207,-0.99697876,-0.061035,0.183105,-0.244141
5775736000,0.01348877,0.00012207,-0.99697876,-0.122070,0.549316,-0.122070
5782867583,0.01330566,0.00392151,-0.99536133,-0.122070,0.549316,-0.122070
5785436208,0.01330566,0.00392151,-0.99536133,0.122070,0.305176,-0.122070
5793051416,0.01211548,0.00755310,-0.99143982,0.122070,0.305176,-0.122070
5795483291,0.01211548,0.00755310,-0.99143982,0.061035,0.183105,0.000000
5803097083,0.01263428,0.00860596,-0.99781799,0.061035,0.183105,0.000000
5805636333,0.01263428,0.00860596,-0.99781799,-0.183105,0.244141,-0.183105
5813191166,0.01330566,0.00782776,-0.99249268,-0.183105,0.244141,-0.183105
5815749916,0.01330566,0.00782776,-0.99249268,-0.061035,0.244141,-0.183105
5823374375,0.01319885,0.00517273,-0.99502563,-0.061035,0.244141,-0.183105
5825921041,0.01319885,0.00517273,-0.99502563,0.183105,0.183105,-0.122070
5833549000,0.01312256,0.00416565,-0.99287415,0.183105,0.183105,-0.122070
5836099666,0.01312256,0.00416565,-0.99287415,0.244141,0.183105,-0.244141
5843627625,0.01275635,0.00238037,-0.99375916,0.244141,0.183105,-0.244141
5846189625,0.01275635,0.00238037,-0.99375916,0.122070,0.305176,-0.183105
5853878333,0.01295471,0.00111389,-0.99360657,0.061035,0.183105,-0.122070
5864056208,0.01347351,0.00285339,-0.99293518,0.122070,0.183105,0.061035
5874226250,0.01406860,0.00349426,-0.99522400,-0.122070,0.000000,-0.061035
5884487416,0.01371765,0.00303650,-0.99461365,-0.183105,0.183105,-0.122070
5894033708,0.01414490,0.00337219,-0.99691772,0.061035,0.305176,-0.122070
5904181041,0.01422119,0.00317383,-0.99168396,0.000000,0.244141,-0.061035
5913860791,0.01435852,0.00314331,-0.99441528,0.000000,0.244141,-0.122070
5924036791,0.01486206,0.00274658,-0.99296570,-0.061035,0.183105,-0.122070
5934128375,0.01431274,0.00265503,-0.99502563,-0.061035,0.244141,-0.122070
5944284583,0.01202393,0.00424194,-0.99472046,-0.122070,0.122070,-0.122070
5954025125,0.01248169,0.00546265,-0.99316406,0.061035,0.244141,0.000000
5964153416,0.01301575,0.00614929,-0.99362183,0.061035,0.061035,-0.061035
5974048500,0.01275635,0.00741577,-0.99436951,0.122070,0.061035,-0.061035
5983904666,0.01188660,0.00750732,-0.99327087,0.122070,0.061035,-0.061035
5986061458,0.01188660,0.00750732,-0.99327087,0.000000,0.183105,-0.122070
5993662166,0.01141357,0.00746155,-0.99400330,0.000000,0.183105,-0.122070
5996212916,0.01141357,0.00746155,-0.99400330,-0.183105,0.244141,0.000000
6003813666,0.01310730,0.00688171,-0.99327087,-0.183105,0.244141,0.000000
6006363375,0.01310730,0.00688171,-0.99327087,0.671387,-0.122070,0.000000
6013997958,0.01342773,0.00463867,-0.98007202,0.671387,-0.122070,0.000000
6016369750,0.01342773,0.00463867,-0.98007202,-0.549316,0.366211,-0.061035
6023966875,0.01443481,0.00195312,-1.01391602,-0.549316,0.366211,-0.061035
6026511291,0.01443481,0.00195312,-1.01391602,-0.244141,0.000000,-0.183105
6034105625,0.01477051,0.00318909,-0.98487854,-0.244141,0.000000,-0.183105
6036682500,0.01477051,0.00318909,-0.98487854,-0.122070,0.244141,0.000000
6044314458,0.01371765,-0.00149536,-0.99958801,-0.427246,0.305176,-0.183105
6053998291,0.01281738,-0.00112915,-0.99243164,-0.427246,0.305176,-0.183105
6056098458,0.01281738,-0.00112915,-0.99243164,-0.305176,0.122070,-0.061035
6063713125,0.01388550,0.00074768,-0.99801636,-0.305176,0.122070,-0.061035
6066260166,0.01388550,0.00074768,-0.99801636,-0.061035,0.183105,-0.122070
6073866125,0.01292419,0.00155640,-0.99353027,-0.061035,0.183105,-0.122070
6076417458,0.01292419,0.00155640,-0.99353027,0.000000,-0.183105,-0.061035
6084018333,0.01243591,0.00360107,-0.98960876,0.000000,-0.183105,-0.061035
6086565750,0.01243591,0.00360107,-0.98960876,-0.305176,0.122070,-0.061035
6094162083,0.01187134,0.00791931,-0.99822998,-0.305176,0.122070,-0.061035
6096744291,0.01187134,0.00791931,-0.99822998,0.000000,0.122070,-0.061035
6104406458,0.01104736,0.01031494,-0.99256897,0.061035,0.183105,0.061035
6114501833,0.01242065,0.00900269,-0.99359131,0.061035,0.183105,0.061035
6117032500,0.01242065,0.00900269,-0.99359131,0.061035,0.244141,-0.061035
6124606291,0.01416016,0.00584412,-0.99302673,0.061035,0.244141,-0.061035
6127148916,0.01416016,0.00584412,-0.99302673,0.000000,0.061035,-0.061035
6134738833,0.01388550,0.00292969,-0.99525452,0.000000,0.061035,-0.061035
6137302875,0.01388550,0.00292969,-0.99525452,0.122070,0.183105,-0.061035
6144892250,0.01426697,0.00086975,-0.99449158,0.183105,0.183105,0.000000
6154516375,0.01455688,-0.00035095,-0.99501038,0.183105,0.183105,0.000000
6157062208,0.01455688,-0.00035095,-0.99501038,-0.061035,0.183105,-0.061035
6164661750,0.01570129,-0.00151062,-0.99371338,-0.061035,0.183105,-0.061035
6167222958,0.01570129,-0.00151062,-0.99371338,-0.061035,0.000000,-0.183105
6174876333,0.01434326,-0.00123596,-0.99186707,0.000000,0.122070,-0.244141
6184550458,0.01306152,0.00045776,-0.99368286,0.000000,0.122070,-0.244141
6187099875,0.01306152,0.00045776,-0.99368286,0.061035,0.122070,-0.183105
6194417375,0.01274109,0.00326538,-0.99394226,0.061035,0.122070,-0.183105
6196962833,0.01274109,0.00326538,-0.99394226,0.061035,0.366211,-0.061035
6204575541,0.01043701,0.00524902,-0.99415588,0.061035,0.366211,-0.061035
6207120916,0.01043701,0.00524902,-0.99415588,0.061035,0.183105,-0.183105
6214734666,0.01055908,0.00807190,-0.99444580,0.061035,0.183105,-0.183105
6217299750,0.01055908,0.00807190,-0.99444580,0.061035,0.122070,-0.061035
6224929833,0.01220703,0.00967407,-0.99459839,0.244141,0.061035,0.000000
6235102666,0.01300049,0.00958252,-0.99542236,0.244141,-2.136230,-0.122070
6244802791,0.01432800,0.00874329,-0.98132324,0.244141,-2.136230,-0.122070
6247364000,0.01432800,0.00874329,-0.98132324,-0.671387,0.488281,-0.061035
6254992666,0.01358032,0.00625610,-1.00619507,0.854492,-0.183105,-0.061035
6265130666,0.01516724,0.00691223,-1.00033569,-0.366211,0.305176,0.000000
6274742500,0.01525879,0.00364685,-0.99287415,0.061035,0.305176,-0.183105
6284849541,0.01557922,0.00152588,-0.99374390,0.183105,0.366211,-0.183105
6294638375,0.01452637,0.00181580,-0.99670410,0.183105,0.366211,-0.183105
6297197958,0.01452637,0.00181580,-0.99670410,0.061035,0.305176,0.000000
6304870875,0.01240540,0.00028992,-0.99290466,0.366211,0.427246,-0.061035
6315007833,0.01182556,-0.00131226,-0.99246216,0.244141,0.000000,-0.122070
6324719125,0.00994873,-0.00015259,-0.99093628,0.244141,0.000000,-0.122070
6327269375,0.00994873,-0.00015259,-0.99093628,0.366211,0.244141,-0.183105
6334923375,0.01016235,0.00286865,-0.99961853,0.183105,0.183105,0.000000
6344416708,0.01159668,0.00428772,-0.98756409,0.183105,0.183105,0.000000
6346702750,0.01159668,0.00428772,-0.98756409,0.122070,0.183105,0.000000
6354302000,0.01338196,0.00650024,-0.99584961,0.122070,0.183105,0.000000
6356842500,0.01338196,0.00650024,-0.99584961,0.122070,0.183105,-0.061035
6364448958,0.01399231,0.00834656,-0.99578857,0.122070,0.183105,-0.061035
6366994458,0.01399231,0.00834656,-0.99578857,0.244141,0.122070,-0.183105
6374599500,0.01370239,0.00846863,-0.99617004,0.244141,0.122070,-0.183105
6377148583,0.01370239,0.00846863,-0.99617004,0.000000,0.122070,0.061035
6384748000,0.01510620,0.00788879,-0.99334717,0.000000,0.122070,0.061035
6387284208,0.01510620,0.00788879,-0.99334717,0.183105,0.122070,0.000000
6394516166,0.01489258,0.00662231,-0.99472046,0.183105,0.122070,0.000000
6397052208,0.01489258,0.00662231,-0.99472046,0.122070,0.183105,-0.061035
6404650541,0.01463318,0.00450134,-0.99441528,0.122070,0.183105,-0.061035
6407200041,0.01463318,0.00450134,-0.99441528,0.122070,0.244141,-0.122070
6414790958,0.01310730,0.00167847,-0.99252319,0.122070,0.244141,-0.122070
6417318750,0.01310730,0.00167847,-0.99252319,0.244141,0.122070,0.000000
6424327708,0.01313782,0.00125122,-0.99305725,0.244141,0.122070,0.000000
6426883583,0.01313782,0.00125122,-0.99305725,0.061035,0.305176,0.000000
6434495125,0.01339722,-0.00126648,-0.99430847,0.061035,0.305176,0.000000
6437042166,0.01339722,-0.00126648,-0.99430847,0.183105,0.183105,-0.122070
6444638500,0.01203918,-0.00190735,-0.99172974,0.183105,0.183105,-0.122070
6447182875,0.01203918,-0.00190735,-0.99172974,0.122070,0.244141,-0.061035
6454772958,0.01214600,-0.00085449,-0.99353027,0.122070,0.244141,-0.061035
6457312875,0.01214600,-0.00085449,-0.99353027,-0.061035,0.183105,-0.061035
6464914625,0.01132202,0.00151062,-0.99392700,-0.061035,0.183105,-0.061035
6467455750,0.01132202,0.00151062,-0.99392700,0.061035,0.244141,-0.183105
6475142083,0.01249695,0.00518799,-0.99400330,0.061035,0.244141,-0.183105
6477695625,0.01249695,0.00518799,-0.99400330,0.183105,0.305176,-0.061035
6485125208,0.01304626,0.00633240,-0.99418640,0.183105,0.305176,-0.061035
6487666625,0.01304626,0.00633240,-0.99418640,0.183105,0.000000,-0.122070
6495287125,0.01426697,0.00732422,-0.99432373,0.183105,0.244141,0.061035
6505425541,0.01437378,0.00724792,-0.99462891,0.244141,0.183105,-0.122070
6515196291,0.01550293,0.00462341,-0.99444580,0.244141,0.183105,-0.122070
6517740791,0.01550293,0.00462341,-0.99444580,0.183105,0.183105,0.000000
6525377916,0.01510620,0.00328064,-0.99467468,0.122070,0.122070,-0.122070
6535521583,0.01306152,0.00164795,-0.99378967,0.183105,0.183105,-0.122070
6545665750,0.01312256,0.00099182,-0.99327087,0.183105,0.122070,-0.122070
6555400041,0.01342773,0.00117493,-0.99420166,0.183105,0.122070,-0.122070
6557954708,0.01342773,0.00117493,-0.99420166,0.183105,0.244141,-0.061035
6565539750,0.01220703,0.00250244,-0.99485779,0.183105,0.244141,-0.061035
6568079541,0.01220703,0.00250244,-0.99485779,0.000000,0.244141,-0.183105
6575683333,0.01129150,0.00265503,-0.99301147,0.000000,0.244141,-0.183105
6578238041,0.01129150,0.00265503,-0.99301147,0.122070,0.366211,-0.183105
6585342416,0.01168823,0.00421143,-0.99320984,0.122070,0.366211,-0.183105
6587872500,0.01168823,0.00421143,-0.99320984,0.061035,0.122070,-0.122070
6595479541,0.01199341,0.00527954,-0.99333191,0.061035,0.122070,-0.122070
6598023750,0.01199341,0.00527954,-0.99333191,-0.061035,0.122070,-0.061035
6605513375,0.01239014,0.00590515,-0.99438477,-0.061035,0.122070,-0.061035
6607807375,0.01239014,0.00590515,-0.99438477,0.244141,0.305176,-0.122070
6615188541,0.01296997,0.00610352,-0.99473572,0.244141,0.305176,-0.122070
6617299166,0.01296997,0.00610352,-0.99473572,0.183105,0.610352,-0.061035
6624887583,0.01338196,0.00659180,-0.99201965,0.183105,0.610352,-0.061035
6627438000,0.01338196,0.00659180,-0.99201965,-0.244141,0.610352,-0.122070
6635029291,0.01452637,0.00550842,-0.99250793,-0.244141,0.610352,-0.122070
6637573166,0.01452637,0.00550842,-0.99250793,-0.244141,0.183105,-0.061035
6644643583,0.01344299,0.00549316,-0.99676514,-0.244141,0.183105,-0.061035
6647195166,0.01344299,0.00549316,-0.99676514,0.183105,0.183105,-0.122070
6654800791,0.01377869,0.00430298,-0.99397278,0.183105,0.183105,-0.122070
6657336166,0.01377869,0.00430298,-0.99397278,0.061035,-0.061035,-0.122070
6666796291,0.01457214,0.00358582,-0.99580383,0.000000,0.000000,-0.122070
6676923625,0.01298523,0.00338745,-0.99421692,0.000000,0.061035,-0.244141
6687065208,0.01385498,0.00309753,-0.99516296,0.000000,0.183105,-0.061035
6696729666,0.01348877,0.00259399,-0.99263000,0.122070,0.488281,0.000000
6706877708,0.01350403,0.00221252,-0.99176025,0.061035,0.305176,-0.122070
6716987916,0.01324463,0.00093079,-0.99591064,0.305176,0.366211,-0.122070
6726954666,0.01258850,0.00141907,-0.99063110,0.122070,0.244141,-0.183105
6737039875,0.01263428,0.00122070,-0.99488831,0.061035,0.122070,-0.061035
6746606500,0.01226807,0.00184631,-0.99499512,0.061035,0.061035,-0.061035
6756521500,0.01176453,0.00311279,-0.99615479,-0.122070,0.061035,0.000000
6766364291,0.01136780,0.00398254,-0.99319458,0.061035,0.244141,-0.183105
6776495500,0.01185608,0.00517273,-0.99279785,0.061035,0.244141,-0.122070
6786690916,0.01354980,0.00466919,-0.99440002,-0.122070,0.122070,-0.183105
6796725291,0.01539612,0.00410461,-0.99368286,-0.061035,0.061035,-0.122070
6806586333,0.01638794,0.00491333,-0.99369812,0.000000,0.122070,-0.122070
6816438750,0.01376343,0.00535583,-0.99546814,0.000000,0.244141,0.000000
6826229458,0.01318359,0.00447083,-0.99436951,0.000000,0.244141,0.000000
6836371583,0.01217651,0.00328064,-0.99359131,0.000000,0.244141,0.000000
6838917583,0.01217651,0.00328064,-0.99359131,0.061035,0.183105,-0.183105
6846526375,0.01148987,0.00250244,-0.99340820,0.061035,0.244141,-0.122070
6856541291,0.01217651,0.00282288,-0.99456787,0.061035,0.061035,-0.122070
6866345958,0.01251221,0.00222778,-0.99378967,0.061035,0.244141,-0.061035
6876479041,0.01319885,0.00323486,-0.99404907,0.000000,0.183105,-0.122070
6886451541,0.01258850,0.00473022,-0.99429321,0.061035,0.305176,0.000000
6896366708,0.01312256,0.00466919,-0.99328613,-0.061035,0.122070,-0.244141
6906464583,0.01321411,0.00529480,-0.99316406,0.061035,0.122070,-0.122070
6916600583,0.01348877,0.00558472,-0.99508667,0.061035,0.122070,-0.061035
6926734041,0.01333618,0.00584412,-0.99435425,0.000000,0.183105,-0.183105
6936875916,0.01393127,0.00492859,-0.99346924,0.000000,0.183105,-0.061035
6947014750,0.01397705,0.00604248,-0.99267578,0.183105,0.000000,-0.061035
6957181375,0.01281738,0.00527954,-0.99282837,0.122070,0.122070,-0.061035
6967347916,0.01231384,0.00468445,-0.99270630,0.000000,0.305176,-0.122070
6977518416,0.01364136,0.00250244,-0.99845886,-0.122070,0.244141,-0.122070
6987458833,0.01391602,0.00169373,-0.99470520,0.061035,0.122070,-0.244141
6995120125,0.01246643,0.00172424,-0.99353027,0.061035,0.122070,-0.244141
6997666333,0.01246643,0.00172424,-0.99353027,0.000000,0.244141,-0.122070
7005280291,0.01322937,0.00199890,-0.99279785,0.000000,0.244141,-0.122070
7007649250,0.01322937,0.00199890,-0.99279785,0.061035,0.183105,-0.122070
7015261041,0.01307678,0.00215149,-0.99430847,0.061035,0.183105,-0.122070
7017813416,0.01307678,0.00215149,-0.99430847,0.000000,0.183105,-0.305176
7025408125,0.01271057,0.00270081,-0.99407959,0.000000,0.183105,-0.305176
7027949500,0.01271057,0.00270081,-0.99407959,0.000000,0.183105,-0.061035
7035548041,0.01319885,0.00419617,-0.99420166,0.000000,0.183105,-0.061035
7038100791,0.01319885,0.00419617,-0.99420166,0.122070,0.366211,-0.061035
7045673291,0.01316833,0.00648499,-0.99468994,0.122070,0.366211,-0.061035
7048213000,0.01316833,0.00648499,-0.99468994,0.061035,0.122070,-0.183105
7055810958,0.01249695,0.00625610,-0.99452209,0.061035,0.122070,-0.183105
7058354041,0.01249695,0.00625610,-0.99452209,0.122070,0.183105,-0.061035
7066002208,0.01248169,0.00669861,-0.99377441,0.122070,0.183105,-0.061035
7068558416,0.01248169,0.00669861,-0.99377441,0.305176,0.244141,-0.061035
7076171833,0.01396179,0.00666809,-0.99362183,0.305176,0.244141,-0.061035
7078719833,0.01396179,0.00666809,-0.99362183,0.183105,0.244141,-0.061035
7086323000,0.01283264,0.00531006,-0.99446106,0.183105,0.244141,-0.061035
7088880833,0.01283264,0.00531006,-0.99446106,0.244141,0.122070,-0.122070
7096279541,0.01307678,0.00302124,-0.99409485,0.244141,0.122070,-0.122070
7098828791,0.01307678,0.00302124,-0.99409485,0.122070,0.183105,-0.183105
7106447208,0.01301575,0.00198364,-0.99482727,0.122070,0.183105,-0.183105
7109019458,0.01301575,0.00198364,-0.99482727,0.183105,0.122070,-0.122070
7116673750,0.01203918,0.00109863,-0.99398804,0.183105,0.122070,-0.122070
7119235666,0.01203918,0.00109863,-0.99398804,0.244141,0.305176,0.000000
7126857958,0.01368713,0.00042725,-0.99259949,0.183105,0.183105,-0.061035
7136940500,0.01319885,0.00082397,-0.99227905,0.366211,0.427246,-0.183105
7147031375,0.01268005,0.00228882,-0.99192810,0.366211,0.366211,-0.061035
7157099541,0.01220703,0.00479126,-0.99516296,0.305176,0.366211,0.000000
7167198875,0.01121521,0.00735474,-0.99113464,-0.061035,0.122070,-0.061035
7177372916,0.01217651,0.00938416,-1.00073242,0.061035,0.183105,0.000000
7187299708,0.01174927,0.01097107,-0.99507141,0.000000,0.122070,0.061035
7197435875,0.01257324,0.00997925,-0.99537659,0.000000,0.305176,0.000000
7207544166,0.01370239,0.00814819,-0.99459839,0.305176,0.122070,0.061035
7217729541,0.01515198,0.00581360,-0.99046326,0.183105,0.244141,0.061035
7227881166,0.01596069,0.00181580,-0.99371338,0.244141,0.122070,-0.061035
7238013125,0.01399231,-0.00172424,-0.99366760,0.122070,0.183105,0.000000
7248161791,0.01478577,-0.00257874,-0.99465942,0.122070,0.305176,0.000000
7258308875,0.01477051,-0.00387573,-0.99496460,0.183105,0.305176,-0.061035
7265943458,0.01409912,-0.00439453,-0.99391174,0.183105,0.305176,-0.061035
7268505458,0.01409912,-0.00439453,-0.99391174,0.122070,0.244141,-0.183105
7276096208,0.01432800,-0.00300598,-0.99398804,0.122070,0.244141,-0.183105
7278636125,0.01432800,-0.00300598,-0.99398804,0.183105,0.183105,-0.244141
7286226666,0.01275635,-0.00115967,-0.99348450,0.183105,0.183105,-0.244141
7288764791,0.01275635,-0.00115967,-0.99348450,0.122070,0.305176,-0.061035
7296379250,0.01187134,0.00122070,-0.99432373,0.122070,0.305176,-0.061035
7298928541,0.01187134,0.00122070,-0.99432373,0.000000,0.244141,-0.244141
7306542958,0.01188660,0.00431824,-0.99473572,0.000000,0.244141,-0.244141
7309101916,0.01188660,0.00431824,-0.99473572,0.183105,0.061035,-0.244141
7316722333,0.01257324,0.00645447,-0.99488831,0.183105,0.061035,-0.244141
7319267500,0.01257324,0.00645447,-0.99488831,0.183105,0.183105,-0.183105
7326876458,0.01232910,0.00747681,-0.99583435,0.183105,0.183105,-0.183105
7329437208,0.01232910,0.00747681,-0.99583435,0.183105,0.122070,-0.061035
7337053250,0.01200867,0.00920105,-0.99516296,0.183105,0.122070,-0.061035
7339499791,0.01200867,0.00920105,-0.99516296,0.122070,0.244141,-0.122070
7346880958,0.01275635,0.00912476,-0.99443054,0.122070,0.244141,-0.122070
7349411625,0.01275635,0.00912476,-0.99443054,0.244141,0.183105,-0.122070
7356973583,0.01254272,0.00830078,-0.99403381,0.244141,0.183105,-0.122070
7359454625,0.01254272,0.00830078,-0.99403381,0.061035,0.244141,0.061035
7367045000,0.01390076,0.00703430,-0.99423218,0.061035,0.244141,0.061035
7369598541,0.01390076,0.00703430,-0.99423218,0.122070,0.000000,-0.122070
7377189833,0.01368713,0.00450134,-0.99382019,0.122070,0.000000,-0.122070
7379754000,0.01368713,0.00450134,-0.99382019,0.183105,0.305176,-0.061035
7387033083,0.01345825,0.00320435,-0.99290466,0.183105,0.305176,-0.061035
7389475916,0.01345825,0.00320435,-0.99290466,0.000000,0.122070,0.000000
7396870625,0.01283264,0.00114441,-0.99288940,0.000000,0.122070,0.000000
7398957416,0.01283264,0.00114441,-0.99288940,0.000000,0.244141,-0.183105
7406471416,0.01234436,0.00093079,-0.99337769,0.000000,0.244141,-0.183105
7409026166,0.01234436,0.00093079,-0.99337769,0.061035,0.305176,-0.061035
7416659166,0.01298523,0.00140381,-0.99371338,0.061035,0.305176,-0.061035
7419221583,0.01298523,0.00140381,-0.99371338,0.061035,0.305176,-0.122070
7426821750,0.01258850,0.00094604,-0.99243164,0.061035,0.305176,-0.122070
7429375708,0.01258850,0.00094604,-0.99243164,0.061035,0.244141,-0.122070
7436242375,0.01211548,0.00079346,-0.99380493,0.061035,0.244141,-0.122070
7438792166,0.01211548,0.00079346,-0.99380493,0.122070,0.305176,0.000000
7448573708,0.01296997,0.00157166,-0.99386597,0.000000,0.183105,-0.183105
7456183833,0.01263428,0.00410461,-0.99475098,0.000000,0.183105,-0.183105
7458624916,0.01263428,0.00410461,-0.99475098,0.183105,0.305176,-0.122070
7466278541,0.01370239,0.00498962,-0.99482727,0.183105,0.305176,-0.122070
7468833708,0.01370239,0.00498962,-0.99482727,0.183105,0.244141,-0.122070
7476440500,0.01504517,0.00454712,-0.99458313,0.183105,0.244141,-0.122070
7478979958,0.01504517,0.00454712,-0.99458313,0.122070,0.122070,-0.183105
7486582500,0.01319885,0.00468445,-0.99447632,0.122070,0.122070,-0.183105
7489125083,0.01319885,0.00468445,-0.99447632,0.122070,0.061035,-0.061035
7496717458,0.01319885,0.00457764,-0.99424744,0.122070,0.061035,-0.061035
7499254583,0.01319885,0.00457764,-0.99424744,0.122070,0.061035,-0.061035
7506833500,0.01268005,0.00434875,-0.99472046,0.122070,0.061035,-0.061035
7509355208,0.01268005,0.00434875,-0.99472046,0.183105,0.061035,-0.061035
7516921583,0.01335144,0.00379944,-0.99438477,0.183105,0.061035,-0.061035
7519444083,0.01335144,0.00379944,-0.99438477,0.183105,0.122070,-0.061035
7527080625,0.01255798,0.00318909,-0.99464417,0.183105,0.122070,-0.061035
7529631500,0.01255798,0.00318909,-0.99464417,0.000000,0.061035,-0.244141
7536700916,0.01269531,0.00311279,-0.99356079,0.000000,0.061035,-0.244141
7539244041,0.01269531,0.00311279,-0.99356079,0.061035,0.183105,-0.122070
7546334416,0.01293945,0.00236511,-0.99356079,0.061035,0.183105,-0.122070
7548877708,0.01293945,0.00236511,-0.99356079,0.122070,0.183105,-0.061035
7558999875,0.01251221,0.00210571,-0.99392700,0.000000,0.122070,-0.183105
7568675500,0.01374817,0.00305176,-0.99310303,0.000000,0.305176,-0.061035
7578783416,0.01489258,0.00251770,-0.99412537,0.000000,0.427246,-0.122070
7588619458,0.01509094,0.00349426,-0.99360657,0.000000,0.244141,-0.183105
7598751750,0.01361084,0.00347900,-0.99383545,0.000000,0.122070,-0.122070
7608437541,0.01303101,0.00302124,-0.99546814,0.000000,0.244141,-0.122070
7618577125,0.01324463,0.00457764,-0.99497986,0.061035,0.183105,-0.061035
7628704083,0.01379395,0.00520325,-0.99452209,0.183105,0.122070,-0.122070
7638822250,0.01391602,0.00364685,-0.99400330,0.000000,0.183105,-0.061035
7648967416,0.01353455,0.00379944,-0.99424744,0.000000,0.244141,-0.122070
7659222500,0.01376343,0.00326538,-0.99356079,0.183105,0.122070,0.000000
7669302208,0.01391602,0.00256348,-0.99359131,0.061035,0.183105,-0.183105
7676927500,0.01313782,0.00148010,-0.99385071,0.061035,0.183105,-0.183105
7679469666,0.01313782,0.00148010,-0.99385071,0.122070,0.183105,-0.122070
7687072416,0.01365662,0.00167847,-0.99389648,0.122070,0.183105,-0.122070
7689620791,0.01365662,0.00167847,-0.99389648,0.183105,0.244141,-0.061035
7697154125,0.01403809,0.00210571,-0.99377441,0.183105,0.244141,-0.061035
7699228958,0.01403809,0.00210571,-0.99377441,0.061035,0.061035,-0.183105
7706859375,0.01304626,0.00216675,-0.99322510,0.061035,0.061035,-0.183105
7709404083,0.01304626,0.00216675,-0.99322510,0.183105,0.244141,-0.061035
7716906333,0.01409912,0.00268555,-0.99446106,0.183105,0.244141,-0.061035
7719449333,0.01409912,0.00268555,-0.99446106,0.122070,0.122070,-0.061035
7727052000,0.01324463,0.00344849,-0.99433899,0.122070,0.122070,-0.061035
7729595208,0.01324463,0.00344849,-0.99433899,0.061035,0.122070,-0.061035
7737198541,0.01339722,0.00389099,-0.99441528,0.061035,0.122070,-0.061035
7739738041,0.01339722,0.00389099,-0.99441528,0.183105,0.305176,-0.061035
7747048041,0.01405334,0.00366211,-0.99285889,0.183105,0.305176,-0.061035
7749595166,0.01405334,0.00366211,-0.99285889,0.122070,0.183105,-0.244141
7759353333,0.01338196,0.00521851,-0.99234009,0.000000,0.183105,-0.061035
7766955166,0.01535034,0.00587463,-0.99424744,0.000000,0.183105,-0.061035
7769510583,0.01535034,0.00587463,-0.99424744,0.061035,0.183105,-0.061035
7777100250,0.01405334,0.00433350,-0.99559021,0.061035,0.183105,-0.061035
7779638458,0.01405334,0.00433350,-0.99559021,0.000000,0.244141,-0.183105
7787255291,0.01266479,0.00445557,-0.99374390,0.000000,0.244141,-0.183105
7789798875,0.01266479,0.00445557,-0.99374390,-0.061035,0.122070,-0.122070
7797378250,0.01222229,0.00325012,-0.99406433,-0.061035,0.122070,-0.122070
7799910583,0.01222229,0.00325012,-0.99406433,0.183105,0.244141,0.000000
7807500666,0.01286316,0.00227356,-0.99389648,0.183105,0.244141,0.000000
7810027666,0.01286316,0.00227356,-0.99389648,0.000000,0.244141,-0.122070
7817587791,0.01300049,0.00274658,-0.99302673,0.000000,0.244141,-0.122070
7820128041,0.01300049,0.00274658,-0.99302673,0.122070,0.183105,-0.061035
7827718166,0.01226807,0.00202942,-0.99476624,0.122070,0.183105,-0.061035
7830254708,0.01226807,0.00202942,-0.99476624,0.061035,0.244141,-0.122070
7837846916,0.01330566,0.00192261,-0.99356079,0.061035,0.244141,-0.122070
7840387333,0.01330566,0.00192261,-0.99356079,0.000000,0.183105,-0.122070
7848003250,0.01278687,0.00227356,-0.99458313,0.000000,0.183105,-0.122070
7850559958,0.01278687,0.00227356,-0.99458313,0.183105,0.244141,-0.122070
7858187875,0.01295471,0.00172424,-0.99485779,0.183105,0.244141,-0.122070
7860784458,0.01295471,0.00172424,-0.99485779,0.061035,0.183105,-0.122070
7868384083,0.01374817,0.00282288,-0.99372864,0.061035,0.244141,-0.183105
7878535375,0.01359558,0.00401306,-0.99386597,0.061035,0.183105,-0.122070
7888666458,0.01269531,0.00349426,-0.99427795,0.061035,0.183105,-0.122070
7891219375,0.01269531,0.00349426,-0.99427795,0.122070,0.183105,-0.061035
7898888458,0.01361084,0.00454712,-0.99450684,0.183105,0.183105,-0.183105
7909030625,0.01397705,0.00651550,-0.99432373,0.000000,0.061035,-0.122070
7919153916,0.01307678,0.00598145,-0.99473572,0.061035,0.183105,-0.122070
7928803333,0.01332092,0.00543213,-0.99252319,0.061035,0.183105,-0.061035
7938633208,0.01472473,0.00415039,-0.99356079,0.061035,0.183105,-0.061035
7941173083,0.01472473,0.00415039,-0.99356079,0.061035,0.183105,-0.183105
7948769166,0.01431274,0.00366211,-0.99392700,0.061035,0.183105,-0.183105
7951325250,0.01431274,0.00366211,-0.99392700,0.122070,0.244141,0.000000
7958949875,0.01368713,0.00309753,-0.99368286,-0.061035,0.061035,-0.244141
7969060875,0.01380920,0.00306702,-0.99359131,0.122070,0.244141,-0.122070
7979014708,0.01397705,0.00236511,-0.99450684,0.061035,0.122070,-0.061035
7989128583,0.01354980,0.00141907,-0.99389648,0.061035,0.183105,-0.061035
7998649083,0.01257324,0.00204468,-0.99336243,0.061035,0.183105,-0.061035
8001133791,0.01257324,0.00204468,-0.99336243,0.000000,0.061035,-0.183105
8008456583,0.01300049,0.00244141,-0.99403381,0.000000,0.061035,-0.183105
8011000375,0.01300049,0.00244141,-0.99403381,0.061035,0.244141,-0.122070
8018620541,0.01365662,0.00222778,-0.99427795,0.061035,0.244141,-0.122070
8021178000,0.01365662,0.00222778,-0.99427795,0.000000,0.122070,-0.183105
8028728916,0.01319885,0.00260925,-0.99418640,0.000000,0.122070,-0.183105
8031272625,0.01319885,0.00260925,-0.99418640,0.183105,0.122070,-0.183105
8038885041,0.01358032,0.00404358,-0.99386597,0.122070,0.244141,-0.122070
8048675125,0.01354980,0.00445557,-0.99317932,0.122070,0.244141,-0.122070
8051232500,0.01354980,0.00445557,-0.99317932,0.122070,0.061035,-0.183105
8058838375,0.01306152,0.00419617,-0.99397278,0.061035,0.122070,-0.183105
8068748541,0.01391602,0.00413513,-0.99472046,0.061035,0.122070,-0.183105
8071315916,0.01391602,0.00413513,-0.99472046,0.061035,0.061035,-0.183105
8078922083,0.01332092,0.00360107,-0.99455261,0.000000,0.244141,-0.244141
8089069083,0.01345825,0.00372314,-0.99411011,0.061035,0.183105,0.000000
8099205291,0.01426697,0.00340271,-0.99353027,0.122070,0.183105,0.000000
8109355125,0.01370239,0.00347900,-0.99295044,0.061035,0.122070,-0.061035
8119399583,0.01362610,0.00302124,-0.99415588,0.061035,0.183105,-0.122070
8129466375,0.01322937,0.00280762,-0.99415588,0.061035,0.244141,-0.061035
8139550333,0.01287842,0.00325012,-0.99328613,0.122070,0.244141,-0.183105
8149454250,0.01327515,0.00291443,-0.99380493,0.061035,0.244141,-0.061035
8159587583,0.01327515,0.00424194,-0.99395752,-0.122070,0.305176,-0.061035
8169744958,0.01393127,0.00292969,-0.99412537,0.000000,0.183105,-0.061035
8179885625,0.01356506,0.00291443,-0.99488831,-0.061035,0.122070,-0.183105
8189889375,0.01339722,0.00306702,-0.99464417,0.000000,0.061035,-0.061035
8200026375,0.01437378,0.00268555,-0.99371338,0.061035,0.244141,-0.122070
8209991791,0.01411438,0.00230408,-0.99385071,-0.061035,0.122070,-0.061035
8220158125,0.01301575,0.00236511,-0.99392700,-0.183105,0.244141,-0.061035
8230011416,0.01318359,0.00296021,-0.99404907,0.000000,0.244141,0.000000
8240156541,0.01336670,0.00259399,-0.99487305,-0.122070,0.183105,-0.122070
8250304583,0.01306152,0.00357056,-0.99525452,-0.122070,0.122070,-0.244141
8260465875,0.01268005,0.00294495,-0.99421692,-0.183105,0.244141,0.000000
8270377250,0.01235962,0.00250244,-0.99423218,-0.061035,0.122070,-0.183105
8280469791,0.01309204,0.00234985,-0.99307251,-0.183105,0.183105,-0.183105
8288082916,0.01431274,0.00138855,-0.99328613,-0.183105,0.183105,-0.183105
8290633833,0.01431274,0.00138855,-0.99328613,0.000000,0.244141,-0.183105
8298230875,0.01541138,0.00187683,-0.99433899,0.000000,0.244141,-0.183105
8300781541,0.01541138,0.00187683,-0.99433899,0.000000,0.183105,-0.122070
8308407083,0.01452637,0.00375366,-0.99551392,0.000000,0.183105,-0.122070
8310946625,0.01452637,0.00375366,-0.99551392,-0.061035,0.183105,-0.122070
8318539291,0.01249695,0.00456238,-0.99485779,-0.061035,0.183105,-0.122070
8321086500,0.01249695,0.00456238,-0.99485779,0.061035,0.183105,0.000000
8328680125,0.01310730,0.00532532,-0.99304199,0.061035,0.183105,0.000000
8331220291,0.01310730,0.00532532,-0.99304199,-0.061035,0.000000,0.000000
8338492875,0.01222229,0.00579834,-0.99514771,-0.061035,0.000000,0.000000
8341001291,0.01222229,0.00579834,-0.99514771,0.061035,0.000000,-0.244141
8348612791,0.01155090,0.00656128,-0.99264526,0.061035,0.000000,-0.244141
8351163708,0.01155090,0.00656128,-0.99264526,0.183105,0.122070,0.000000
8358759208,0.01086426,0.00611877,-0.99406433,0.183105,0.122070,0.000000
8361304166,0.01086426,0.00611877,-0.99406433,0.000000,0.183105,-0.122070
8368918416,0.01211548,0.00567627,-0.99331665,0.000000,0.183105,-0.122070
8371472250,0.01211548,0.00567627,-0.99331665,0.061035,0.183105,0.000000
8379327708,0.01425171,0.00503540,-0.99198914,0.061035,0.183105,0.000000
8381895541,0.01425171,0.00503540,-0.99198914,0.000000,0.244141,-0.061035
8389149375,0.01510620,0.00335693,-0.99453735,0.000000,0.244141,-0.061035
8391441500,0.01510620,0.00335693,-0.99453735,0.122070,0.122070,-0.061035
8398989166,0.01531982,0.00187683,-0.99354553,0.122070,0.122070,-0.061035
8401529083,0.01531982,0.00187683,-0.99354553,-0.061035,0.183105,-0.061035
8408803875,0.01515198,0.00091553,-0.99487305,-0.061035,0.183105,-0.061035
8411344708,0.01515198,0.00091553,-0.99487305,0.122070,0.061035,-0.122070
8418953291,0.01432800,0.00039673,-0.99533081,0.122070,0.061035,-0.122070
8421498500,0.01432800,0.00039673,-0.99533081,0.061035,0.183105,-0.061035
8429133625,0.01361084,0.00099182,-0.99386597,0.061035,0.183105,-0.061035
8431673125,0.01361084,0.00099182,-0.99386597,0.000000,0.183105,-0.122070
8438823541,0.01231384,0.00189209,-0.99378967,0.000000,0.183105,-0.122070
8441350625,0.01231384,0.00189209,-0.99378967,0.732422,-0.366211,-0.122070
8448817583,0.01045227,0.00312805,-0.99133301,0.732422,-0.366211,-0.122070
8451364750,0.01045227,0.00312805,-0.99133301,0.122070,0.671387,-0.061035
8459123375,0.01100159,0.00569153,-0.98959351,0.122070,0.671387,-0.061035
8461661500,0.01100159,0.00569153,-0.98959351,0.671387,-0.244141,-0.122070
8469138166,0.01390076,0.00779724,-1.00494385,0.671387,-0.244141,-0.122070
8471540083,0.01390076,0.00779724,-1.00494385,-0.366211,0.183105,-0.061035
8478997583,0.01426697,0.00843811,-0.98674011,-0.366211,0.183105,-0.061035
8481551250,0.01426697,0.00843811,-0.98674011,0.305176,0.122070,0.000000
8489148250,0.01379395,0.00630188,-1.00067139,0.305176,0.122070,0.000000
8491505750,0.01379395,0.00630188,-1.00067139,0.000000,0.244141,-0.122070
8499089041,0.01435852,0.00469971,-0.99105835,0.000000,0.244141,-0.122070
8501629750,0.01435852,0.00469971,-0.99105835,0.122070,0.305176,-0.122070
8509229625,0.01460266,0.00311279,-0.99670410,0.122070,0.305176,-0.122070
8511777500,0.01460266,0.00311279,-0.99670410,0.122070,0.183105,-0.061035
8519370416,0.01383972,0.00227356,-0.99380493,0.122070,0.183105,-0.061035
8521909250,0.01383972,0.00227356,-0.99380493,-0.061035,0.244141,-0.061035
8529514041,0.01420593,0.00120544,-0.99511719,-0.061035,0.244141,-0.061035
8532063166,0.01420593,0.00120544,-0.99511719,0.244141,-0.122070,-0.122070
8539348375,0.01167297,0.00129700,-0.99615479,0.244141,-0.122070,-0.122070
8541898708,0.01167297,0.00129700,-0.99615479,-0.854492,0.122070,0.000000
8549495541,0.01176453,0.00181580,-0.99501038,-0.854492,0.122070,0.000000
8551671708,0.01176453,0.00181580,-0.99501038,0.183105,0.183105,-0.061035
8558985083,0.01223755,0.00148010,-0.99087524,0.183105,0.183105,-0.061035
8561538750,0.01223755,0.00148010,-0.99087524,0.061035,0.122070,-0.244141
8569127541,0.01257324,0.00263977,-0.99301147,0.061035,0.122070,-0.244141
8571688875,0.01257324,0.00263977,-0.99301147,-0.061035,0.122070,-0.183105
8579298958,0.01316833,0.00453186,-0.99394226,-0.061035,0.122070,-0.183105
8581850750,0.01316833,0.00453186,-0.99394226,0.183105,0.183105,-0.244141
8588958000,0.01394653,0.00495911,-0.99562073,0.183105,0.183105,-0.244141
8591486791,0.01394653,0.00495911,-0.99562073,0.061035,0.183105,0.061035
8599088541,0.01414490,0.00630188,-0.99443054,0.061035,0.183105,0.061035
8601637875,0.01414490,0.00630188,-0.99443054,0.061035,0.244141,-0.061035
8609250416,0.01390076,0.00633240,-0.99462891,0.061035,0.244141,-0.061035
8611480041,0.01390076,0.00633240,-0.99462891,0.122070,0.061035,-0.122070
8619075750,0.01397705,0.00457764,-0.99398804,0.122070,0.061035,-0.122070
8621628750,0.01397705,0.00457764,-0.99398804,0.244141,0.183105,-0.183105
8631376291,0.01373291,0.00526428,-0.99346924,0.000000,0.122070,-0.061035
8638979583,0.01361084,0.00480652,-0.99464417,0.000000,0.122070,-0.061035
8641238750,0.01361084,0.00480652,-0.99464417,0.122070,0.122070,0.000000
8651040458,0.01303101,0.00344849,-0.99470520,0.061035,0.183105,-0.122070
8660857125,0.01208496,0.00309753,-0.99441528,0.122070,0.183105,-0.061035
8671065291,0.01266479,0.00256348,-0.99371338,0.122070,0.366211,-0.122070
8681190708,0.01362610,0.00219727,-0.99357605,0.061035,0.305176,0.061035
8691197833,0.01376343,0.00201416,-0.99339294,0.122070,0.122070,-0.061035
8700942166,0.01350403,0.00283813,-0.99461365,0.000000,0.122070,-0.244141
8710614291,0.01380920,0.00291443,-0.99301147,1.464844,-0.122070,-0.183105
8720757458,0.01345825,0.00213623,-0.96417236,-1.403809,0.000000,0.000000
8730488166,0.01361084,0.00169373,-1.04327393,-0.122070,0.305176,-0.183105
8740642125,0.01364136,0.00550842,-0.95950317,0.488281,0.122070,-0.061035
8750322083,0.01295471,0.00550842,-1.02416992,0.488281,0.122070,-0.061035
8752857416,0.01295471,0.00550842,-1.02416992,-0.366211,0.305176,-0.122070
8760437916,0.01043701,0.00938416,-0.98262024,0.061035,0.061035,-0.122070
8770133833,0.01177979,0.01071167,-1.00062561,0.061035,0.061035,-0.122070
8772673208,0.01177979,0.01071167,-1.00062561,0.183105,0.305176,-0.061035
8780268625,0.01258850,0.00891113,-0.98521423,0.183105,0.305176,-0.061035
8782800041,0.01258850,0.00891113,-0.98521423,0.488281,0.061035,0.000000
8790362041,0.01388550,0.00752258,-0.99662781,0.488281,0.061035,0.000000
8792913208,0.01388550,0.00752258,-0.99662781,-0.183105,0.183105,0.000000
8800526333,0.01492310,0.00540161,-0.98905945,-0.183105,0.183105,0.000000
8803076250,0.01492310,0.00540161,-0.98905945,0.183105,0.183105,-0.061035
8810694833,0.01362610,0.00286865,-0.99519348,0.183105,0.183105,-0.061035
8813271791,0.01362610,0.00286865,-0.99519348,0.122070,0.305176,-0.061035
8820435291,0.01387024,0.00119019,-0.99307251,0.122070,0.305176,-0.061035
8822993375,0.01387024,0.00119019,-0.99307251,0.000000,0.244141,0.122070
8830539041,0.01370239,0.00022888,-0.99505615,0.000000,0.244141,0.122070
8833080375,0.01370239,0.00022888,-0.99505615,0.000000,0.122070,-0.061035
8840652000,0.01388550,-0.00137329,-0.99414062,0.000000,0.122070,-0.061035
8843195666,0.01388550,-0.00137329,-0.99414062,0.000000,0.183105,0.000000
8850773250,0.01396179,-0.00054932,-0.99337769,0.000000,0.183105,0.000000
8853314250,0.01396179,-0.00054932,-0.99337769,0.305176,0.854492,-0.122070
8860924500,0.01260376,0.00059509,-0.98492432,-0.610352,-0.244141,-0.183105
8871079666,0.01231384,0.00030518,-0.98849487,1.342773,0.244141,-0.122070
8881244916,0.01264954,0.00247192,-1.02438354,-0.915527,0.183105,-0.061035
8891397833,0.01243591,0.00593567,-0.97375488,0.305176,0.061035,-0.122070
8901548000,0.01313782,0.00672913,-1.00729370,-0.061035,0.000000,-0.183105
8911480000,0.01321411,0.00900269,-0.98983765,-0.061035,0.366211,0.000000
8921629916,0.01327515,0.00900269,-0.99458313,-0.244141,-0.122070,-0.061035
8931672083,0.01232910,0.00561523,-0.99679565,0.244141,0.000000,0.000000
8941660166,0.01373291,0.00381470,-0.99169922,0.183105,0.061035,-0.183105
8951501416,0.01344299,0.00381470,-0.99645996,0.061035,0.183105,-0.061035
8961645375,0.01347351,0.00039673,-0.99081421,0.122070,0.122070,-0.061035
8971801625,0.01307678,-0.00041199,-0.99263000,0.061035,0.183105,-0.183105
8981950583,0.01408386,0.00039673,-0.99575806,0.122070,0.244141,-0.061035
8991651791,0.01324463,0.00105286,-0.99349976,0.122070,0.244141,-0.061035
9001764333,0.01344299,0.00108337,-0.99345398,0.122070,0.122070,-0.061035
9011900916,0.01342773,0.00257874,-0.99253845,0.061035,0.122070,-0.183105
9021430625,0.01367188,0.00350952,-0.99458313,0.122070,0.305176,-0.122070
9031135583,0.01296997,0.00491333,-0.99375916,0.305176,0.061035,-0.122070
9041272875,0.01315308,0.00672913,-0.99447632,0.122070,0.122070,-0.122070
9051338166,0.01298523,0.00659180,-0.99540710,0.244141,-0.366211,-0.061035
9061284250,0.01242065,0.00807190,-0.99710083,-0.061035,0.183105,-0.061035
9071336333,0.01338196,0.00764465,-0.98719788,0.549316,0.244141,0.000000
9081260375,0.01321411,0.00544739,-1.00280762,0.061035,0.244141,0.122070
9090627791,0.01367188,0.00433350,-0.98989868,0.061035,0.244141,0.122070
9093165708,0.01367188,0.00433350,-0.98989868,0.122070,0.183105,0.000000
9100766083,0.01315308,0.00065613,-0.99575806,0.122070,0.183105,0.000000
9103311666,0.01315308,0.00065613,-0.99575806,0.183105,0.183105,-0.122070
9110903833,0.01333618,-0.00082397,-0.99462891,0.183105,0.183105,-0.122070
9113445083,0.01333618,-0.00082397,-0.99462891,0.000000,0.183105,-0.061035
9121035583,0.01347351,-0.00024414,-0.99348450,0.000000,0.183105,-0.061035
9123575291,0.01347351,-0.00024414,-0.99348450,0.061035,0.244141,-0.061035
9130754083,0.01348877,-0.00006104,-0.99198914,0.061035,0.244141,-0.061035
9133300375,0.01348877,-0.00006104,-0.99198914,0.610352,-0.305176,-0.061035
9140893916,0.01243591,0.00193787,-0.98687744,0.610352,-0.305176,-0.061035
9143434750,0.01243591,0.00193787,-0.98687744,0.061035,0.488281,-0.061035
9151008833,0.01124573,0.00320435,-0.99365234,0.061035,0.488281,-0.061035
9153567708,0.01124573,0.00320435,-0.99365234,0.244141,0.122070,-0.122070
9160776791,0.01275635,0.00419617,-1.01000977,0.244141,0.122070,-0.122070
9163274333,0.01275635,0.00419617,-1.01000977,-0.549316,0.427246,-0.183105
9170872083,0.01400757,0.00669861,-0.99064636,-0.549316,0.427246,-0.183105
9173437708,0.01400757,0.00669861,-0.99064636,-0.061035,0.366211,-0.183105
9181043708,0.01342773,0.00634766,-0.98928833,-0.061035,0.366211,-0.183105
9183587666,0.01342773,0.00634766,-0.98928833,0.183105,-0.183105,-0.122070
9191173250,0.01264954,0.00556946,-0.99551392,0.183105,-0.183105,-0.122070
9193732041,0.01264954,0.00556946,-0.99551392,-0.427246,0.244141,-0.122070
9201365291,0.01269531,0.00511169,-0.99894714,0.244141,0.244141,0.061035
9211223500,0.01287842,0.00433350,-0.99020386,0.244141,0.244141,0.061035
9213777708,0.01287842,0.00433350,-0.99020386,0.244141,0.122070,-0.122070
9221099208,0.01370239,0.00308228,-0.99372864,0.244141,0.122070,-0.122070
9223647333,0.01370239,0.00308228,-0.99372864,0.183105,0.122070,0.061035
9231244666,0.01379395,0.00279236,-0.99324036,0.183105,0.122070,0.061035
9233806958,0.01379395,0.00279236,-0.99324036,0.061035,0.061035,-0.183105
9241443166,0.01281738,0.00244141,-0.99601746,0.061035,0.061035,-0.183105
9243977875,0.01281738,0.00244141,-0.99601746,0.061035,0.000000,-0.061035
9251568166,0.01243591,0.00222778,-0.99133301,0.061035,0.000000,-0.061035
9254099833,0.01243591,0.00222778,-0.99133301,0.122070,0.061035,-0.183105
9261276041,0.01219177,0.00343323,-0.99372864,0.122070,0.061035,-0.183105
9263821625,0.01219177,0.00343323,-0.99372864,0.122070,0.183105,-0.061035
9271463291,0.01310730,0.00344849,-0.99392700,0.122070,0.183105,-0.061035
9274005625,0.01310730,0.00344849,-0.99392700,0.000000,0.122070,0.000000
9281625333,0.01348877,0.00332642,-0.99325562,0.000000,0.122070,0.000000
9284183791,0.01348877,0.00332642,-0.99325562,0.122070,0.244141,-0.122070
9291747791,0.01289368,0.00334167,-0.99299622,0.122070,0.244141,-0.122070
9294284666,0.01289368,0.00334167,-0.99299622,0.061035,0.183105,-0.244141
9301939708,0.01359558,0.00389099,-0.99513245,0.061035,0.183105,-0.305176
9312083541,0.01319885,0.00498962,-0.99424744,0.244141,0.122070,-0.183105
9322235291,0.01258850,0.00672913,-0.99423218,0.305176,-0.183105,-0.183105
9332289125,0.01290894,0.00773621,-0.99162292,-0.122070,0.305176,-0.061035
9342449583,0.01220703,0.00631714,-0.99150085,0.183105,0.244141,0.000000
9352622625,0.01295471,0.00508118,-1.00503540,-0.061035,0.183105,0.000000
9362762625,0.01390076,0.00405884,-0.98809814,0.000000,0.183105,-0.061035
9372764541,0.01358032,0.00265503,-0.99551392,0.183105,0.244141,0.000000
9382652541,0.01325989,0.00132751,-0.99435425,0.000000,0.244141,-0.183105
9392608000,0.01420593,0.00028992,-0.99488831,0.061035,0.122070,-0.061035
9402745208,0.01347351,0.00004578,-0.99385071,0.183105,0.183105,0.061035
9412907125,0.01336670,0.00190735,-0.99319458,0.061035,0.183105,-0.183105
9423096041,0.01374817,0.00239563,-0.99485779,0.000000,0.061035,-0.305176
9433168875,0.01132202,0.00309753,-0.99291992,0.122070,0.061035,-0.122070
9443418416,0.01138306,0.00428772,-0.99333191,0.122070,0.183105,-0.122070
9450996916,0.01365662,0.00595093,-0.99337769,0.122070,0.183105,-0.122070
9453552625,0.01365662,0.00595093,-0.99337769,0.122070,0.244141,-0.183105
9460956875,0.01342773,0.00675964,-0.99383545,0.122070,0.244141,-0.183105
9463515458,0.01342773,0.00675964,-0.99383545,0.000000,0.122070,-0.061035
9471129250,0.01338196,0.00556946,-0.99436951,0.000000,0.122070,-0.061035
9473669833,0.01338196,0.00556946,-0.99436951,0.000000,0.244141,-0.183105
9481255083,0.01422119,0.00489807,-0.99415588,0.000000,0.244141,-0.183105
9483802541,0.01422119,0.00489807,-0.99415588,0.244141,0.183105,-0.061035
9491194625,0.01403809,0.00386047,-0.99139404,0.244141,0.183105,-0.061035
9493340041,0.01403809,0.00386047,-0.99139404,0.122070,0.305176,-0.183105
9500935375,0.01405334,0.00245667,-0.99388123,0.122070,0.305176,-0.183105
9503461958,0.01405334,0.00245667,-0.99388123,0.244141,0.244141,-0.061035
9511033916,0.01289368,0.00193787,-0.99234009,0.244141,0.244141,-0.061035
9513564875,0.01289368,0.00193787,-0.99234009,0.549316,0.305176,-0.061035
9522854458,0.01254272,0.00207520,-0.99748230,-0.671387,0.244141,-0.244141
9532719208,0.01287842,0.00000000,-0.98341370,0.610352,0.183105,-0.183105
9542694291,0.01330566,0.00077820,-1.01020813,-0.305176,0.244141,-0.183105
9552810250,0.01324463,0.00260925,-0.98841858,-0.061035,0.122070,-0.061035
9562990166,0.01271057,0.00209045,-1.00027466,-0.427246,0.061035,-0.061035
9573141416,0.01376343,0.00541687,-0.99346924,-0.244141,0.122070,-0.061035
9583281583,0.01358032,0.00732422,-0.99617004,-0.122070,0.122070,-0.122070
9593388125,0.01374817,0.00714111,-0.99229431,0.122070,0.061035,-0.183105
9603480250,0.01351929,0.00578308,-0.99298096,0.122070,0.061035,-0.122070
9613472500,0.01260376,0.00425720,-0.99122620,0.061035,0.122070,-0.061035
9621091375,0.01173401,0.00277710,-1.00361633,0.061035,0.122070,-0.061035
9623638625,0.01173401,0.00277710,-1.00361633,-0.183105,0.122070,-0.061035
9631254833,0.01310730,0.00256348,-0.98262024,-0.183105,0.122070,-0.061035
9633446208,0.01310730,0.00256348,-0.98262024,0.122070,0.305176,-0.183105
9643598333,0.01296997,0.00009155,-0.99914551,0.000000,0.122070,0.000000
9653594958,0.01397705,0.00074768,-0.99043274,-0.122070,0.305176,-0.122070
9661218166,0.01393127,0.00009155,-0.99703979,-0.122070,0.305176,-0.122070
9663780541,0.01393127,0.00009155,-0.99703979,0.000000,0.244141,-0.122070
9671206250,0.01385498,0.00112915,-0.98977661,0.000000,0.244141,-0.122070
9673750041,0.01385498,0.00112915,-0.98977661,0.122070,0.183105,-0.122070
9681318958,0.01351929,0.00315857,-0.99682617,0.122070,0.183105,-0.122070
9683845708,0.01351929,0.00315857,-0.99682617,-0.061035,0.061035,-0.122070
9691272458,0.01243591,0.00433350,-0.99398804,-0.061035,0.061035,-0.122070
9693798958,0.01243591,0.00433350,-0.99398804,0.122070,0.244141,-0.061035
9703643541,0.01173401,0.00502014,-0.99452209,0.061035,0.183105,-0.061035
9711281083,0.01185608,0.00753784,-0.99374390,0.061035,0.183105,-0.061035
9713830416,0.01185608,0.00753784,-0.99374390,0.061035,0.122070,-0.122070
9721438666,0.01232910,0.00801086,-0.99478149,0.061035,0.122070,-0.122070
9723981125,0.01232910,0.00801086,-0.99478149,0.000000,0.122070,-0.122070
9731591250,0.01248169,0.00817871,-0.99429321,0.000000,0.122070,-0.122070
9734135083,0.01248169,0.00817871,-0.99429321,0.183105,0.122070,-0.183105
9741718916,0.01400757,0.00714111,-0.99354553,0.183105,0.122070,-0.183105
9744256333,0.01400757,0.00714111,-0.99354553,0.000000,0.427246,0.000000
9751849375,0.01536560,0.00610352,-0.99459839,0.000000,0.427246,0.000000
9754390916,0.01536560,0.00610352,-0.99459839,0.183105,0.183105,-0.122070
9762011750,0.01571655,0.00430298,-0.99397278,0.183105,0.183105,-0.122070
9764556250,0.01571655,0.00430298,-0.99397278,0.122070,0.183105,-0.183105
9772062416,0.01516724,0.00212097,-0.99360657,0.122070,0.183105,-0.183105
9774606625,0.01516724,0.00212097,-0.99360657,0.000000,0.061035,-0.183105
9783662458,0.01403809,0.00057983,-0.99398804,0.061035,0.305176,-0.061035
9793762250,0.01364136,-0.00045776,-0.99369812,0.061035,0.122070,-0.122070
9803925625,0.01177979,0.00044250,-0.99314880,0.000000,0.305176,-0.183105
9814067916,0.01148987,0.00201416,-0.99354553,0.122070,0.244141,-0.061035
9824162625,0.01155090,0.00268555,-0.99319458,0.000000,0.244141,-0.183105
9831927666,0.01220703,0.00442505,-0.99401855,0.000000,0.244141,-0.183105
9834479375,0.01220703,0.00442505,-0.99401855,-0.061035,0.122070,-0.061035
9842086125,0.01319885,0.00556946,-0.99453735,-0.061035,0.122070,-0.061035
9844286833,0.01319885,0.00556946,-0.99453735,0.122070,0.305176,-0.122070
9851898583,0.01362610,0.00653076,-0.99371338,0.122070,0.305176,-0.122070
9854232458,0.01362610,0.00653076,-0.99371338,0.122070,0.244141,-0.061035
9863920750,0.01339722,0.00671387,-0.99446106,0.061035,0.122070,-0.122070
9874090166,0.01480103,0.00628662,-0.99285889,0.305176,-0.244141,-0.061035
9884217208,0.01396179,0.00502014,-0.99084473,-0.366211,-0.061035,-0.122070
9893994708,0.01301575,0.00285339,-0.98806763,0.061035,0.305176,-0.122070
9904192208,0.01419067,0.00117493,-1.00238037,0.793457,0.000000,-0.061035
9911858458,0.01301575,0.00262451,-0.99700928,0.793457,0.000000,-0.061035
9914396500,0.01301575,0.00262451,-0.99700928,-0.427246,0.122070,-0.244141
9921987083,0.01223755,0.00254822,-0.99322510,-0.427246,0.122070,-0.244141
9924557375,0.01223755,0.00254822,-0.99322510,0.061035,0.183105,-0.183105
9932275208,0.01185608,0.00465393,-0.99967957,0.061035,0.183105,-0.183105
9934826000,0.01185608,0.00465393,-0.99967957,-0.061035,0.366211,-0.122070
9942434291,0.01165771,0.00637817,-0.99465942,-0.061035,0.366211,-0.122070
9944973583,0.01165771,0.00637817,-0.99465942,-0.061035,0.244141,-0.061035
9952643750,0.01152039,0.00646973,-0.99197388,-0.061035,0.244141,-0.061035
9955186208,0.01152039,0.00646973,-0.99197388,-0.244141,0.366211,-0.061035
9962818750,0.01188660,0.00572205,-0.99043274,-0.244141,0.366211,-0.061035
9965335083,0.01188660,0.00572205,-0.99043274,0.549316,0.122070,-0.061035
9972954875,0.01321411,0.00642395,-0.99868774,0.549316,0.122070,-0.061035
9975519458,0.01321411,0.00642395,-0.99868774,-0.244141,0.305176,0.000000
9983146583,0.01368713,0.00474548,-0.98872375,0.061035,0.183105,-0.122070
9992837166,0.01390076,0.00382996,-0.99511719,0.061035,0.183105,-0.122070
9995406625,0.01390076,0.00382996,-0.99511719,0.122070,0.000000,0.000000
10003026541,0.01513672,0.00416565,-0.99488831,0.122070,0.000000,0.000000
10005582375,0.01513672,0.00416565,-0.99488831,0.061035,0.244141,-0.122070
10013188291,0.01367188,0.00242615,-0.99595642,0.122070,-0.061035,-0.061035
10023124333,0.01281738,0.00201416,-0.99009705,0.122070,-0.061035,-0.061035
10025704791,0.01281738,0.00201416,-0.99009705,0.305176,0.061035,-0.183105
10033333291,0.01213074,0.00151062,-1.00134277,0.305176,0.183105,-0.122070
10043505000,0.01286316,0.00196838,-0.98881531,-0.671387,0.366211,0.000000
10053657166,0.01216125,0.00143433,-0.99745178,-0.244141,0.000000,-0.122070
10063807083,0.01188660,0.00158691,-0.98490906,0.488281,0.244141,-0.061035
10073934041,0.01359558,0.00291443,-1.00601196,-0.183105,0.183105,-0.061035
10084073750,0.01235962,0.00361633,-0.98773193,-0.183105,0.122070,-0.061035
10094252000,0.01443481,0.00375366,-0.99867249,-0.427246,0.122070,-0.122070
10104351958,0.01254272,0.00468445,-0.99513245,-0.183105,0.244141,-0.061035
10114500750,0.01205444,0.00401306,-0.99420166,-0.061035,0.122070,-0.122070
10124896708,0.01344299,0.00340271,-0.99272156,-0.671387,0.061035,-0.122070
10132476125,0.01162720,0.00376892,-0.99314880,-0.671387,0.061035,-0.122070
10135000041,0.01162720,0.00376892,-0.99314880,0.305176,0.122070,-0.122070
10142549791,0.01191711,0.00526428,-0.99444580,0.305176,0.122070,-0.122070
10145083541,0.01191711,0.00526428,-0.99444580,0.000000,0.183105,-0.061035
10152656583,0.01295471,0.00436401,-0.99211121,0.000000,0.183105,-0.061035
10155193333,0.01295471,0.00436401,-0.99211121,-0.061035,0.061035,-0.244141
10162792791,0.01309204,0.00469971,-0.99426270,-0.061035,0.061035,-0.244141
10165333500,0.01309204,0.00469971,-0.99426270,-0.061035,0.183105,0.000000
10172907333,0.01431274,0.00526428,-0.99630737,-0.061035,0.183105,0.000000
10175445833,0.01431274,0.00526428,-0.99630737,0.061035,0.183105,-0.061035
10183039750,0.01403809,0.00500488,-0.99429321,0.061035,0.183105,-0.061035
10185578166,0.01403809,0.00500488,-0.99429321,0.000000,0.122070,-0.061035
10193161666,0.01405334,0.00386047,-0.99346924,0.000000,0.122070,-0.061035
10195701291,0.01405334,0.00386047,-0.99346924,0.000000,0.183105,0.000000
10203289166,0.01353455,0.00306702,-0.99398804,0.000000,0.183105,0.000000
10205827166,0.01353455,0.00306702,-0.99398804,0.000000,0.183105,-0.183105
10213411125,0.01354980,0.00271606,-0.99546814,0.000000,0.183105,-0.183105
10215965583,0.01354980,0.00271606,-0.99546814,0.122070,0.183105,-0.061035
10223548875,0.01295471,0.00244141,-0.99299622,0.122070,0.183105,-0.061035
10226097333,0.01295471,0.00244141,-0.99299622,0.122070,0.244141,-0.183105
10233727416,0.01254272,0.00312805,-0.99424744,0.122070,0.244141,-0.183105
10236052250,0.01254272,0.00312805,-0.99424744,-0.061035,0.122070,-0.122070
10243329083,0.01327515,0.00363159,-0.99362183,-0.061035,0.122070,-0.122070
10245880041,0.01327515,0.00363159,-0.99362183,0.122070,0.244141,-0.122070
10253504083,0.01225281,0.00436401,-0.99417114,0.122070,0.244141,-0.122070
10255726666,0.01225281,0.00436401,-0.99417114,0.061035,0.122070,-0.122070
10263318333,0.01188660,0.00451660,-0.99533081,0.061035,0.122070,-0.122070
10265860333,0.01188660,0.00451660,-0.99533081,0.000000,0.183105,-0.061035
10273478000,0.01205444,0.00463867,-0.99360657,0.000000,0.183105,-0.061035
10276026000,0.01205444,0.00463867,-0.99360657,0.061035,0.122070,0.000000
10283197458,0.01324463,0.00518799,-0.99385071,0.061035,0.122070,0.000000
10285745083,0.01324463,0.00518799,-0.99385071,0.000000,0.244141,0.000000
10295241541,0.01361084,0.00491333,-0.99290466,0.061035,0.122070,-0.122070
10305135958,0.01324463,0.00448608,-0.99424744,-0.061035,0.061035,-0.061035
10315282958,0.01373291,0.00450134,-0.99375916,0.122070,-0.061035,-0.122070
10324974250,0.01278687,0.00430298,-0.99360657,0.061035,0.122070,-0.061035
10335156250,0.01254272,0.00352478,-0.99472046,0.305176,0.122070,-0.122070
10345323541,0.01324463,0.00257874,-0.99304199,0.061035,0.061035,-0.244141
10352964583,0.01295471,0.00337219,-0.99482727,0.061035,0.061035,-0.244141
10355524083,0.01295471,0.00337219,-0.99482727,0.000000,0.183105,-0.122070
10363125458,0.01313782,0.00323486,-0.99337769,0.000000,0.183105,-0.122070
10365672125,0.01313782,0.00323486,-0.99337769,0.183105,0.183105,-0.244141
10373267208,0.01411438,0.00120544,-0.99374390,0.183105,0.183105,-0.244141
10375829791,0.01411438,0.00120544,-0.99374390,-0.061035,0.183105,-0.183105
10383450333,0.01359558,0.00004578,-0.99435425,-0.061035,0.183105,-0.183105
10385998875,0.01359558,0.00004578,-0.99435425,0.000000,0.305176,-0.061035
10393327583,0.01429749,0.00129700,-0.99540710,0.000000,0.305176,-0.061035
10395884333,0.01429749,0.00129700,-0.99540710,0.122070,0.061035,-0.244141
10405323625,0.01390076,0.00256348,-0.99478149,0.183105,0.183105,-0.122070
10412931041,0.01438904,0.00305176,-0.99444580,0.183105,0.183105,-0.122070
10415488041,0.01438904,0.00305176,-0.99444580,0.122070,0.122070,-0.183105
10423102458,0.01341248,0.00526428,-0.99494934,0.122070,0.122070,-0.183105
10425643375,0.01341248,0.00526428,-0.99494934,0.244141,0.122070,-0.061035
10435442833,0.01158142,0.00610352,-0.99430847,0.061035,0.305176,0.000000
10442952375,0.01321411,0.00729370,-0.99366760,0.061035,0.305176,0.000000
10445488208,0.01321411,0.00729370,-0.99366760,0.122070,0.183105,-0.122070
10455203041,0.01300049,0.00692749,-0.99433899,0.122070,0.000000,-0.122070
10465376875,0.01129150,0.00662231,-0.99365234,0.122070,0.061035,-0.122070
10473030083,0.01289368,0.00517273,-0.99430847,0.122070,0.061035,-0.122070
10475574541,0.01289368,0.00517273,-0.99430847,0.061035,0.122070,-0.061035
10483198000,0.01301575,0.00314331,-0.99281311,0.061035,0.122070,-0.061035
10485754583,0.01301575,0.00314331,-0.99281311,0.183105,0.183105,-0.183105
10493215875,0.01379395,0.00271606,-0.99467468,0.183105,0.183105,-0.183105
10495774583,0.01379395,0.00271606,-0.99467468,-0.061035,0.183105,-0.122070
10503407083,0.01376343,0.00279236,-0.99366760,-0.061035,0.183105,-0.122070
10505949916,0.01376343,0.00279236,-0.99366760,0.122070,0.122070,-0.061035
10513561000,0.01347351,0.00299072,-0.99487305,0.122070,0.122070,-0.061035
10516119875,0.01347351,0.00299072,-0.99487305,0.061035,0.305176,-0.122070
10523349791,0.01313782,0.00308228,-0.99432373,0.061035,0.305176,-0.122070
10525916833,0.01313782,0.00308228,-0.99432373,0.061035,0.244141,-0.122070
10533532250,0.01249695,0.00332642,-0.99478149,0.061035,0.244141,-0.122070
10536082041,0.01249695,0.00332642,-0.99478149,0.061035,0.122070,-0.183105
10543679750,0.01306152,0.00398254,-0.99449158,0.061035,0.122070,-0.183105
10545803541,0.01306152,0.00398254,-0.99449158,0.061035,-0.122070,-0.122070
10553418375,0.01396179,0.00354004,-0.99037170,0.061035,-0.122070,-0.122070
10555956291,0.01396179,0.00354004,-0.99037170,-0.183105,0.183105,-0.122070
10563396375,0.01319885,0.00286865,-0.99223328,-0.183105,0.183105,-0.122070
10565953208,0.01319885,0.00286865,-0.99223328,-0.305176,0.000000,-0.061035
10573542583,0.01310730,0.00305176,-0.99919128,-0.305176,0.000000,-0.061035
10576087375,0.01310730,0.00305176,-0.99919128,-0.122070,0.122070,-0.061035
10583711500,0.01351929,0.00392151,-0.99412537,-0.122070,0.122070,-0.061035
10586269083,0.01351929,0.00392151,-0.99412537,0.244141,0.244141,-0.122070
10593876083,0.01400757,0.00382996,-0.99584961,0.244141,0.244141,-0.122070
10596428166,0.01400757,0.00382996,-0.99584961,0.000000,0.183105,-0.122070
10603740666,0.01338196,0.00291443,-0.99351501,0.000000,0.183105,-0.122070
10606272833,0.01338196,0.00291443,-0.99351501,0.244141,0.305176,-0.061035
10613845375,0.01321411,0.00329590,-0.99601746,0.244141,0.305176,-0.061035
10616388750,0.01321411,0.00329590,-0.99601746,0.000000,0.183105,-0.183105
10624004625,0.01162720,0.00323486,-0.99465942,0.000000,0.183105,-0.183105
10626550000,0.01162720,0.00323486,-0.99465942,0.183105,0.183105,-0.061035
10634141041,0.01210022,0.00431824,-0.99426270,0.183105,0.183105,-0.061035
10636680250,0.01210022,0.00431824,-0.99426270,0.305176,0.244141,-0.122070
10644295416,0.01239014,0.00610352,-0.99443054,0.305176,0.244141,-0.122070
10646845000,0.01239014,0.00610352,-0.99443054,0.244141,0.122070,-0.061035
10654375041,0.01341248,0.00578308,-0.99423218,0.244141,0.122070,-0.061035
10656916208,0.01341248,0.00578308,-0.99423218,0.122070,0.122070,-0.061035
10666888083,0.01441956,0.00526428,-0.99340820,0.061035,0.183105,0.000000
10674563333,0.01455688,0.00503540,-0.99337769,0.061035,0.183105,0.000000
10677106291,0.01455688,0.00503540,-0.99337769,0.183105,0.183105,-0.061035
10684208666,0.01434326,0.00274658,-0.99356079,0.183105,0.183105,-0.061035
10686763916,0.01434326,0.00274658,-0.99356079,0.244141,0.244141,-0.122070
10694015083,0.01339722,0.00126648,-0.99281311,0.244141,0.244141,-0.122070
10696562583,0.01339722,0.00126648,-0.99281311,0.061035,0.244141,-0.122070
10704174916,0.01284790,0.00102234,-0.99301147,0.061035,0.244141,-0.122070
10706721375,0.01284790,0.00102234,-0.99301147,0.183105,0.244141,-0.122070
10714309791,0.01240540,0.00085449,-0.99313354,0.183105,0.244141,-0.122070
10716853291,0.01240540,0.00085449,-0.99313354,-0.061035,0.122070,-0.061035
10724460625,0.01182556,0.00086975,-0.99288940,-0.061035,0.122070,-0.061035
10727002333,0.01182556,0.00086975,-0.99288940,-0.061035,0.244141,-0.183105
10734140708,0.01280212,0.00274658,-0.99414062,-0.061035,0.244141,-0.183105
10736698666,0.01280212,0.00274658,-0.99414062,0.183105,0.244141,-0.061035
10744303500,0.01296997,0.00527954,-0.98554993,0.183105,0.244141,-0.061035
10746853291,0.01296997,0.00527954,-0.98554993,-0.244141,0.610352,-0.122070
10754381000,0.01223755,0.00640869,-0.99533081,-0.244141,0.610352,-0.122070
10756930875,0.01223755,0.00640869,-0.99533081,0.305176,0.061035,0.000000
10764537875,0.01460266,0.00874329,-1.00674438,0.305176,0.061035,0.000000
10767096916,0.01460266,0.00874329,-1.00674438,-0.183105,0.122070,-0.122070
10774706958,0.01498413,0.00823975,-0.98745728,-0.183105,0.122070,-0.122070
10777246708,0.01498413,0.00823975,-0.98745728,0.183105,0.244141,-0.061035
10784853291,0.01383972,0.00454712,-0.99424744,0.183105,0.244141,-0.061035
10787401916,0.01383972,0.00454712,-0.99424744,0.183105,0.244141,-0.122070
10795002833,0.01416016,0.00253296,-0.99456787,0.183105,0.183105,-0.122070
10804874875,0.01351929,0.00033569,-0.99609375,0.183105,0.183105,-0.122070
10807428125,0.01351929,0.00033569,-0.99609375,0.122070,0.183105,-0.183105
10815091375,0.01257324,0.00036621,-0.99249268,0.366211,0.305176,-0.061035
10825244708,0.01339722,0.00090027,-0.99165344,0.244141,0.183105,-0.061035
10835412958,0.01423645,0.00227356,-0.99874878,-0.061035,0.244141,-0.183105
10845536416,0.01222229,0.00297546,-0.98785400,0.061035,0.305176,0.000000
10855343833,0.01194763,0.00434875,-0.99159241,0.305176,0.305176,-0.122070
10865491125,0.01438904,0.00669861,-0.99456787,0.183105,0.244141,-0.061035
10875625333,0.01387024,0.00556946,-0.99470520,-0.366211,0.244141,0.000000
10885635250,0.01234436,0.00541687,-0.99501038,0.488281,-0.061035,-0.061035
10895758291,0.01300049,0.00529480,-0.99078369,0.183105,0.061035,-0.061035
10905891625,0.01316833,0.00387573,-1.00512695,-0.305176,0.305176,0.000000
10916009833,0.01261902,0.00442505,-0.98852539,0.061035,0.000000,-0.183105
10926078916,0.01313782,0.00373840,-0.99757385,-0.061035,0.183105,-0.061035
10936199541,0.01449585,0.00498962,-0.99324036,0.061035,0.122070,-0.061035
10946241125,0.01325989,0.00546265,-0.99430847,0.061035,0.183105,0.061035
10955912833,0.01164246,0.00527954,-0.99325562,0.061035,0.183105,-0.061035
10965753125,0.01118469,0.00526428,-0.99417114,0.000000,0.183105,0.000000
10975903208,0.01150513,0.00469971,-0.99412537,0.122070,0.183105,0.000000
10986079291,0.01266479,0.00408936,-0.99366760,0.488281,0.244141,-0.061035
10995898500,0.01293945,0.00410461,-0.99235535,-0.305176,0.366211,-0.122070
11005869916,0.01315308,0.00267029,-0.99804688,0.000000,0.122070,-0.061035
11015572041,0.01588440,0.00216675,-0.98864746,0.000000,0.122070,-0.061035
11018131500,0.01588440,0.00216675,-0.98864746,0.000000,0.061035,-0.122070
11025779208,0.01626587,0.00071716,-0.99595642,0.000000,0.061035,-0.122070
11027950041,0.01626587,0.00071716,-0.99595642,0.122070,0.061035,-0.061035
11035564875,0.01461792,0.00032043,-0.99114990,0.122070,0.061035,-0.061035
11038126666,0.01461792,0.00032043,-0.99114990,0.061035,0.122070,-0.061035
11045752583,0.01361084,0.00027466,-0.99485779,0.061035,0.122070,-0.061035
11048296125,0.01361084,0.00027466,-0.99485779,0.000000,0.122070,-0.122070
11055926625,0.01411438,0.00003052,-0.99485779,0.122070,0.244141,-0.183105
11066011250,0.01368713,0.00115967,-0.99458313,-0.061035,0.122070,-0.061035
11076098750,0.01397705,0.00285339,-0.99485779,0.061035,0.061035,-0.183105
11086218208,0.01396179,0.00431824,-0.99432373,0.061035,0.061035,-0.183105
11096351708,0.01268005,0.00572205,-0.99314880,0.244141,0.183105,-0.122070
11106498291,0.01252747,0.00659180,-0.99359131,0.183105,0.183105,-0.122070
11116352541,0.01263428,0.00627136,-0.99494934,0.061035,0.122070,-0.122070
11126048958,0.01298523,0.00593567,-0.99403381,0.061035,0.061035,-0.122070
11135888541,0.01268005,0.00657654,-0.99400330,0.000000,0.122070,-0.061035
11146068041,0.01325989,0.00547791,-0.99386597,-0.061035,0.183105,-0.122070
11156224041,0.01448059,0.00355530,-0.99317932,-0.061035,0.244141,-0.122070
11166078125,0.01371765,0.00300598,-0.99291992,0.183105,0.183105,0.000000
11175647333,0.01319885,0.00209045,-0.99299622,0.183105,0.183105,0.000000
11178208916,0.01319885,0.00209045,-0.99299622,0.000000,0.244141,-0.122070
11185864416,0.01367188,0.00251770,-0.99327087,0.000000,0.305176,0.061035
11196009916,0.01371765,0.00225830,-0.99589539,0.061035,0.305176,-0.183105
11206145041,0.01280212,0.00233459,-0.99272156,0.061035,0.305176,-0.122070
11216166958,0.01216125,0.00350952,-0.99351501,0.061035,0.244141,-0.061035
11226309541,0.01257324,0.00382996,-0.99397278,0.061035,0.244141,-0.183105
11236404000,0.01345825,0.00386047,-0.99363708,0.244141,-0.122070,-0.183105
11246127666,0.01390076,0.00442505,-0.99349976,0.244141,0.122070,-0.122070
11256253541,0.01333618,0.00468445,-0.99127197,0.915527,0.488281,-0.122070
11266389916,0.01298523,0.00546265,-0.99282837,-0.366211,-0.061035,-0.244141
11276566208,0.01387024,0.00514221,-1.00105286,-0.061035,0.183105,-0.061035
11286379916,0.01274109,0.00434875,-0.98828125,0.305176,0.000000,-0.122070
11296413958,0.01199341,0.00350952,-0.99794006,0.061035,0.122070,-0.122070
11306564708,0.01229858,0.00326538,-0.99089050,0.183105,0.366211,-0.061035
11316531250,0.01246643,0.00347900,-0.99722290,-0.122070,0.488281,-0.122070
