timestamp_ns,accel_x,accel_y,accel_z,gyro_x,gyro_y,gyro_z
100438666,0.01188660,0.00434875,-0.99659729,0.061035,0.183105,0.000000
110787375,0.01139832,0.00401306,-0.99633789,0.061035,0.183105,0.000000
113769166,0.01139832,0.00401306,-0.99633789,0.122070,0.122070,-0.183105
126026041,0.01139832,0.00401306,-0.99633789,0.061035,0.183105,0.000000
131751750,0.01112366,0.00404358,-0.99765015,0.000000,0.244141,-0.183105
131754041,0.01171875,0.00395203,-0.99800110,0.000000,0.244141,-0.183105
138143958,0.01130676,0.00376892,-0.99540710,0.000000,0.244141,-0.183105
141810791,0.01130676,0.00376892,-0.99540710,0.122070,0.122070,-0.122070
148189541,0.01234436,0.00424194,-0.99613953,0.122070,0.122070,-0.122070
151062083,0.01234436,0.00424194,-0.99613953,0.061035,0.122070,-0.061035
159688916,0.01300049,0.00442505,-0.99681091,0.061035,0.244141,-0.061035
167569333,0.01196289,0.00465393,-0.99708557,0.061035,0.244141,-0.061035
170567250,0.01196289,0.00465393,-0.99708557,0.061035,0.122070,-0.122070
178119666,0.01190186,0.00559998,-0.99623108,-0.122070,0.122070,-0.183105
188157833,0.01100159,0.00636292,-0.99568176,0.061035,0.122070,-0.183105
198198583,0.01187134,0.00605774,-0.99629211,0.122070,0.244141,-0.061035
208233375,0.01203918,0.00559998,-0.99671936,0.000000,0.122070,-0.061035
218281500,0.01283264,0.00559998,-0.99639893,0.122070,0.122070,-0.061035
228328541,0.01092529,0.00427246,-0.99620056,0.183105,0.183105,-0.122070
238374041,0.01129150,0.00411987,-0.99751282,0.000000,0.122070,-0.244141
248429125,0.01202393,0.00418091,-0.99697876,0.000000,0.122070,-0.122070
258485000,0.01257324,0.00448608,-0.99786377,0.061035,0.061035,-0.122070
268535166,0.01197815,0.00459290,-0.99754333,0.061035,0.183105,-0.061035
278631291,0.01217651,0.00378418,-0.99714661,-0.061035,0.122070,-0.183105
288714750,0.01179504,0.00474548,-0.99716187,0.061035,0.183105,-0.122070
298807375,0.01222229,0.00462341,-0.99842834,0.122070,0.244141,-0.122070
308909125,0.01226807,0.00550842,-0.99751282,0.122070,0.122070,-0.061035
319016250,0.01170349,0.00492859,-0.99676514,0.061035,0.122070,-0.122070
329120666,0.01176453,0.00567627,-0.99691772,0.122070,0.061035,-0.183105
339244125,0.01203918,0.00599670,-0.99798584,0.122070,0.244141,0.000000
349376375,0.01254272,0.00573730,-0.99899292,0.061035,0.122070,-0.122070
359503625,0.01249695,0.00505066,-0.99673462,0.305176,0.183105,-0.061035
367118500,0.01260376,0.00520325,-0.99691772,0.305176,0.183105,-0.061035
369638208,0.01260376,0.00520325,-0.99691772,0.122070,0.061035,-0.122070
379724333,0.01271057,0.00494385,-0.99729919,0.061035,0.061035,-0.122070
387283833,0.01237488,0.00408936,-0.99697876,0.061035,0.061035,-0.122070
389815833,0.01237488,0.00408936,-0.99697876,0.183105,0.061035,0.000000
397377958,0.01190186,0.00465393,-0.99612427,0.183105,0.061035,0.000000
399910125,0.01190186,0.00465393,-0.99612427,0.122070,0.183105,-0.122070
407519791,0.01110840,0.00495911,-0.99617004,0.122070,0.183105,-0.122070
410095458,0.01110840,0.00495911,-0.99617004,0.122070,0.061035,-0.183105
417676666,0.01107788,0.00505066,-0.99659729,0.122070,0.061035,-0.183105
420211166,0.01107788,0.00505066,-0.99659729,0.122070,0.183105,-0.122070
427785916,0.01150513,0.00628662,-0.99623108,0.122070,0.183105,-0.122070
430308750,0.01150513,0.00628662,-0.99623108,0.061035,0.061035,0.000000
437583541,0.01066589,0.00689697,-0.99681091,0.061035,0.061035,0.000000
440122708,0.01066589,0.00689697,-0.99681091,-0.061035,0.183105,-0.183105
447698458,0.01246643,0.00685120,-0.99647522,-0.061035,0.183105,-0.183105
450229666,0.01246643,0.00685120,-0.99647522,0.061035,0.000000,-0.122070
457816791,0.01223755,0.00735474,-0.99768066,0.061035,0.000000,-0.122070
460361708,0.01223755,0.00735474,-0.99768066,0.122070,0.183105,0.061035
467944000,0.01167297,0.00729370,-0.99676514,0.122070,0.183105,0.061035
470487875,0.01167297,0.00729370,-0.99676514,0.000000,0.244141,-0.061035
478081000,0.01174927,0.00628662,-0.99700928,0.000000,0.244141,-0.061035
480621458,0.01174927,0.00628662,-0.99700928,0.122070,0.122070,-0.122070
488220083,0.01229858,0.00596619,-0.99803162,0.122070,0.122070,-0.122070
490767541,0.01229858,0.00596619,-0.99803162,0.122070,0.244141,-0.061035
498369250,0.01161194,0.00584412,-0.99740601,0.122070,0.244141,-0.061035
500907625,0.01161194,0.00584412,-0.99740601,0.122070,0.061035,-0.061035
508535541,0.01278687,0.00392151,-0.99766541,0.122070,0.061035,-0.061035
511111125,0.01278687,0.00392151,-0.99766541,0.000000,0.122070,-0.122070
518735666,0.01289368,0.00331116,-0.99627686,0.000000,0.122070,-0.122070
521284958,0.01289368,0.00331116,-0.99627686,0.122070,0.305176,-0.061035
528615166,0.01202393,0.00323486,-0.99771118,0.122070,0.305176,-0.061035
531390583,0.01202393,0.00323486,-0.99771118,0.061035,0.061035,-0.061035
539055750,0.01304626,0.00155640,-0.99694824,0.061035,0.183105,0.061035
549169583,0.01358032,0.00170898,-0.99719238,0.000000,0.183105,-0.122070
559320583,0.01419067,0.00138855,-0.99739075,0.244141,0.122070,-0.122070
568583583,0.01385498,0.00193787,-0.99726868,0.244141,0.122070,-0.122070
571178291,0.01385498,0.00193787,-0.99726868,0.122070,0.244141,-0.244141
578884750,0.01242065,0.00233459,-0.99531555,0.122070,0.244141,-0.244141
588415291,0.01162720,0.00369263,-0.99455261,0.122070,0.244141,-0.244141
590962791,0.01162720,0.00369263,-0.99455261,0.183105,0.122070,-0.183105
598276166,0.01075745,0.00363159,-0.99618530,0.183105,0.122070,-0.183105
600815083,0.01075745,0.00363159,-0.99618530,0.000000,0.244141,-0.305176
608190458,0.01235962,0.00468445,-0.99565125,0.000000,0.244141,-0.305176
610657708,0.01235962,0.00468445,-0.99565125,0.183105,0.183105,-0.183105
620582791,0.01258850,0.00540161,-0.99748230,0.183105,0.122070,-0.244141
630369375,0.01258850,0.00695801,-0.99740601,0.122070,0.183105,-0.122070
640532125,0.01091003,0.00889587,-0.99566650,0.244141,0.183105,-0.061035
648138166,0.01138306,0.00950623,-0.99450684,0.244141,0.183105,-0.061035
650732041,0.01138306,0.00950623,-0.99450684,0.122070,0.122070,-0.183105
659934750,0.01167297,0.00798035,-0.99783325,0.122070,0.305176,0.000000
669951125,0.01109314,0.00657654,-0.99955750,0.061035,0.183105,0.000000
680084083,0.01188660,0.00550842,-0.99630737,0.061035,0.000000,-0.183105
693557875,0.01126099,0.00289917,-0.99559021,0.061035,0.122070,-0.061035
698709000,0.01087952,0.00099182,-0.99800110,0.061035,0.122070,-0.061035
701278583,0.01087952,0.00099182,-0.99800110,0.061035,0.122070,-0.122070
708373625,0.01094055,0.00155640,-0.99749756,0.061035,0.122070,-0.122070
710917875,0.01094055,0.00155640,-0.99749756,0.122070,0.061035,-0.122070
718491333,0.01148987,0.00129700,-0.99583435,0.122070,0.061035,-0.122070
721017958,0.01148987,0.00129700,-0.99583435,0.000000,0.061035,-0.244141
728522000,0.01208496,0.00212097,-0.99719238,0.000000,0.061035,-0.244141
731052791,0.01208496,0.00212097,-0.99719238,-0.061035,0.183105,-0.244141
738639000,0.01155090,0.00482178,-0.99850464,-0.061035,0.183105,-0.244141
741177250,0.01155090,0.00482178,-0.99850464,0.061035,0.366211,-0.122070
748778500,0.01184082,0.00492859,-0.99714661,0.061035,0.366211,-0.122070
751333875,0.01184082,0.00492859,-0.99714661,0.000000,0.183105,-0.122070
758702916,0.01206970,0.00550842,-0.99603271,0.000000,0.183105,-0.122070
761086625,0.01206970,0.00550842,-0.99603271,0.122070,0.122070,-0.061035
768707125,0.01194763,0.00752258,-0.99658203,0.122070,0.122070,-0.061035
771282583,0.01194763,0.00752258,-0.99658203,0.244141,0.122070,-0.183105
778427916,0.01068115,0.00764465,-0.99763489,0.244141,0.122070,-0.183105
780986750,0.01068115,0.00764465,-0.99763489,0.061035,0.183105,0.000000
788174541,0.01112366,0.00660706,-0.99652100,0.061035,0.183105,0.000000
790800875,0.01112366,0.00660706,-0.99652100,0.061035,0.122070,0.000000
798597625,0.01202393,0.00572205,-0.99682617,0.061035,0.122070,0.000000
800762166,0.01202393,0.00572205,-0.99682617,0.244141,0.183105,-0.061035
808754416,0.01246643,0.00451660,-0.99833679,0.244141,0.183105,-0.061035
811381375,0.01246643,0.00451660,-0.99833679,-0.061035,0.244141,-0.061035
819237583,0.01321411,0.00408936,-0.99794006,-0.061035,0.244141,-0.061035
821805833,0.01321411,0.00408936,-0.99794006,0.122070,0.305176,-0.183105
829409458,0.01249695,0.00247192,-0.99645996,-0.061035,0.244141,-0.122070
839569041,0.01228333,0.00218201,-0.99610901,0.000000,0.183105,-0.061035
849557375,0.01103210,0.00251770,-0.99832153,0.000000,0.122070,-0.061035
859688875,0.01092529,0.00315857,-0.99726868,0.183105,0.305176,-0.061035
869820708,0.01019287,0.00366211,-0.99525452,0.122070,0.183105,-0.061035
879956041,0.01060486,0.00405884,-0.99749756,0.122070,0.244141,-0.061035
890088333,0.01153564,0.00596619,-0.99768066,0.000000,0.305176,0.000000
900220541,0.01089478,0.00706482,-0.99732971,0.183105,0.122070,0.061035
910373208,0.01281738,0.00738525,-0.99603271,0.061035,0.061035,-0.061035
920523666,0.01278687,0.00708008,-0.99829102,0.183105,0.183105,0.000000
930666375,0.01396179,0.00567627,-0.99783325,0.183105,0.183105,-0.122070
940820666,0.01498413,0.00556946,-0.99645996,0.061035,0.061035,-0.061035
948489208,0.01408386,0.00498962,-0.99768066,0.061035,0.061035,-0.061035
951033583,0.01408386,0.00498962,-0.99768066,0.061035,0.183105,-0.061035
958691375,0.01245117,0.00459290,-0.99775696,0.061035,0.183105,-0.061035
961231208,0.01245117,0.00459290,-0.99775696,0.061035,0.244141,-0.061035
968889583,0.01210022,0.00352478,-0.99603271,0.061035,0.244141,-0.061035
971434666,0.01210022,0.00352478,-0.99603271,0.122070,0.000000,-0.122070
978771625,0.01181030,0.00158691,-0.99626160,0.122070,0.000000,-0.122070
981323875,0.01181030,0.00158691,-0.99626160,0.061035,0.122070,-0.061035
988944500,0.01142883,0.00086975,-0.99717712,0.061035,0.122070,-0.061035
991490875,0.01142883,0.00086975,-0.99717712,0.061035,0.122070,-0.122070
999094791,0.01190186,0.00291443,-0.99713135,0.061035,0.122070,-0.122070
1001861166,0.01190186,0.00291443,-0.99713135,0.183105,0.183105,0.000000
1009453958,0.01141357,0.00340271,-0.99874878,0.183105,0.183105,0.000000
1012015666,0.01141357,0.00340271,-0.99874878,0.122070,0.183105,-0.061035
1019695708,0.01197815,0.00375366,-0.99575806,0.122070,0.183105,-0.061035
1022261083,0.01197815,0.00375366,-0.99575806,0.305176,0.183105,0.061035
1029659875,0.01173401,0.00540161,-0.99690247,0.305176,0.183105,0.061035
1032208291,0.01173401,0.00540161,-0.99690247,0.061035,0.122070,-0.183105
1039817583,0.01165771,0.00566101,-0.99765015,0.061035,0.122070,-0.183105
1042454000,0.01165771,0.00566101,-0.99765015,0.061035,0.122070,-0.183105
1050052958,0.01182556,0.00631714,-0.99749756,0.061035,0.122070,-0.183105
1052612791,0.01182556,0.00631714,-0.99749756,0.061035,0.183105,0.061035
1060272166,0.01104736,0.00697327,-0.99574280,0.122070,0.122070,0.000000
1070398083,0.01193237,0.00651550,-0.99644470,0.122070,0.183105,-0.061035
1080402666,0.01281738,0.00685120,-0.99734497,0.122070,0.183105,-0.061035
1090570708,0.01228333,0.00680542,-0.99647522,0.122070,0.183105,-0.122070
1100696541,0.01184082,0.00575256,-0.99624634,0.000000,0.183105,0.000000
1110844500,0.01261902,0.00613403,-0.99581909,0.122070,0.183105,0.000000
1120967083,0.01216125,0.00471497,-0.99758911,-0.061035,0.061035,-0.061035
1130927458,0.01243591,0.00422668,-0.99810791,0.000000,0.183105,-0.122070
1141067750,0.01203918,0.00323486,-0.99783325,0.122070,0.122070,-0.061035
1151264250,0.01217651,0.00215149,-0.99803162,-0.061035,0.183105,0.000000
1161410750,0.01243591,0.00267029,-0.99763489,0.000000,0.244141,0.000000
1171546125,0.01206970,0.00212097,-0.99676514,0.122070,0.244141,-0.122070
1179163791,0.01287842,0.00285339,-0.99571228,0.122070,0.244141,-0.122070
1181716916,0.01287842,0.00285339,-0.99571228,0.122070,0.244141,-0.183105
1189173458,0.01168823,0.00363159,-0.99755859,0.122070,0.244141,-0.183105
1191722250,0.01168823,0.00363159,-0.99755859,0.000000,0.061035,-0.244141
1199363583,0.01199341,0.00382996,-0.99658203,0.000000,0.061035,-0.244141
1201909250,0.01199341,0.00382996,-0.99658203,-0.061035,0.122070,-0.183105
1209491625,0.01344299,0.00578308,-1.00024414,-0.061035,0.122070,-0.183105
1212032708,0.01344299,0.00578308,-1.00024414,0.000000,0.061035,-0.122070
1219637333,0.01263428,0.00590515,-0.99784851,0.000000,0.061035,-0.122070
1222193291,0.01263428,0.00590515,-0.99784851,0.122070,0.183105,-0.183105
1229461083,0.01309204,0.00601196,-0.99678040,0.122070,0.183105,-0.183105
1232001708,0.01309204,0.00601196,-0.99678040,0.061035,0.122070,-0.061035
1239468291,0.01228333,0.00601196,-0.99636841,0.061035,0.122070,-0.061035
1242017916,0.01228333,0.00601196,-0.99636841,-0.061035,0.122070,-0.244141
1249640041,0.01287842,0.00550842,-0.99653625,-0.061035,0.122070,-0.244141
1252179500,0.01287842,0.00550842,-0.99653625,0.122070,0.305176,-0.122070
1259777375,0.01148987,0.00479126,-0.99600220,0.122070,0.305176,-0.122070
1262320208,0.01148987,0.00479126,-0.99600220,0.183105,0.305176,-0.183105
1269654333,0.01159668,0.00456238,-0.99591064,0.183105,0.305176,-0.183105
1272196458,0.01159668,0.00456238,-0.99591064,0.061035,0.183105,-0.183105
1279823333,0.01101685,0.00404358,-0.99812317,0.061035,0.183105,-0.183105
1282379916,0.01101685,0.00404358,-0.99812317,0.061035,0.122070,-0.183105
1290009125,0.01141357,0.00370789,-0.99913025,0.061035,0.122070,-0.183105
1292570708,0.01141357,0.00370789,-0.99913025,0.061035,0.122070,-0.183105
1300168125,0.01194763,0.00430298,-0.99574280,0.061035,0.122070,-0.183105
1302714916,0.01194763,0.00430298,-0.99574280,-0.061035,0.000000,-0.122070
1310315791,0.01144409,0.00341797,-0.99632263,-0.061035,0.000000,-0.122070
1312852583,0.01144409,0.00341797,-0.99632263,0.122070,0.061035,-0.122070
1320283958,0.01235962,0.00466919,-0.99536133,0.122070,0.061035,-0.122070
1322833750,0.01235962,0.00466919,-0.99536133,0.000000,0.244141,-0.061035
1330419833,0.01312256,0.00540161,-0.99909973,0.000000,0.244141,-0.061035
1332978750,0.01312256,0.00540161,-0.99909973,-0.183105,0.122070,-0.122070
1340660708,0.01335144,0.00668335,-0.99668884,0.122070,0.183105,-0.061035
1350785166,0.01206970,0.00669861,-0.99645996,0.122070,0.183105,-0.061035
1353332500,0.01206970,0.00669861,-0.99645996,0.122070,0.305176,0.000000
1360917125,0.01274109,0.00549316,-0.99617004,0.122070,0.305176,0.000000
1363089750,0.01274109,0.00549316,-0.99617004,-0.061035,0.244141,-0.183105
1370698666,0.01248169,0.00379944,-0.99725342,-0.061035,0.244141,-0.183105
1373242250,0.01248169,0.00379944,-0.99725342,0.061035,0.122070,0.061035
1380827166,0.01283264,0.00347900,-0.99835205,0.061035,0.122070,0.061035
1383382333,0.01283264,0.00347900,-0.99835205,0.122070,0.305176,-0.122070
1391003166,0.01284790,0.00373840,-0.99749756,0.122070,0.305176,-0.122070
1393562625,0.01284790,0.00373840,-0.99749756,0.000000,0.183105,-0.061035
1401182333,0.01150513,0.00294495,-0.99726868,0.061035,0.305176,-0.061035
1411307375,0.01118469,0.00300598,-0.99633789,0.122070,0.244141,-0.122070
1421423458,0.01121521,0.00335693,-0.99717712,-0.061035,0.183105,-0.183105
1431550833,0.01202393,0.00329590,-0.99801636,0.061035,0.244141,-0.183105
1441684083,0.01187134,0.00302124,-0.99732971,-0.122070,0.122070,-0.183105
1451833500,0.01190186,0.00431824,-0.99792480,0.000000,0.183105,-0.183105
1461968458,0.01153564,0.00521851,-0.99682617,0.122070,0.183105,-0.061035
1472118666,0.01130676,0.00529480,-0.99726868,-0.061035,0.122070,-0.122070
1482248625,0.01217651,0.00613403,-0.99627686,0.061035,0.244141,-0.183105
1492375041,0.01249695,0.00561523,-0.99606323,0.122070,0.183105,-0.061035
1502556541,0.01243591,0.00621033,-0.99732971,0.000000,0.122070,-0.061035
1510187125,0.01277161,0.00610352,-0.99667358,0.000000,0.122070,-0.061035
1512394500,0.01277161,0.00610352,-0.99667358,0.061035,0.122070,-0.122070
1522554583,0.01148987,0.00587463,-0.99580383,0.061035,0.305176,-0.122070
1530186208,0.01176453,0.00527954,-0.99617004,0.061035,0.305176,-0.122070
1532740125,0.01176453,0.00527954,-0.99617004,0.000000,0.183105,-0.061035
1540342791,0.01225281,0.00503540,-0.99609375,0.000000,0.183105,-0.061035
1542886000,0.01225281,0.00503540,-0.99609375,0.061035,0.244141,0.000000
1550480916,0.01242065,0.00473022,-0.99563599,0.061035,0.244141,0.000000
1553019458,0.01242065,0.00473022,-0.99563599,0.000000,0.183105,-0.061035
1560171916,0.01132202,0.00437927,-0.99623108,0.000000,0.183105,-0.061035
1562326083,0.01132202,0.00437927,-0.99623108,0.061035,0.183105,-0.061035
1572468416,0.01135254,0.00317383,-0.99665833,0.183105,0.122070,-0.244141
1582605375,0.01181030,0.00312805,-0.99717712,0.122070,0.061035,-0.122070
1590211916,0.01115417,0.00376892,-0.99781799,0.122070,0.061035,-0.122070
1592465000,0.01115417,0.00376892,-0.99781799,0.061035,0.183105,-0.183105
1600072625,0.01167297,0.00376892,-0.99682617,0.061035,0.183105,-0.183105
1602620958,0.01167297,0.00376892,-0.99682617,0.061035,0.183105,0.000000
1610213458,0.01188660,0.00439453,-0.99705505,0.061035,0.183105,0.000000
1612766708,0.01188660,0.00439453,-0.99705505,0.122070,0.305176,-0.061035
1620375208,0.01213074,0.00404358,-0.99694824,0.122070,0.305176,-0.061035
1622916250,0.01213074,0.00404358,-0.99694824,0.061035,0.244141,-0.061035
1630540041,0.01289368,0.00480652,-0.99780273,0.061035,0.244141,-0.061035
1633081708,0.01289368,0.00480652,-0.99780273,0.122070,0.122070,-0.061035
1640405291,0.01164246,0.00616455,-0.99694824,0.122070,0.122070,-0.061035
1642951583,0.01164246,0.00616455,-0.99694824,-0.061035,0.061035,-0.122070
1650539083,0.01167297,0.00656128,-0.99748230,-0.061035,0.061035,-0.122070
1653090708,0.01167297,0.00656128,-0.99748230,0.122070,0.183105,-0.061035
1660677958,0.01176453,0.00624084,-0.99804688,0.122070,0.183105,-0.061035
1663224125,0.01176453,0.00624084,-0.99804688,0.183105,0.244141,-0.061035
1670456041,0.01249695,0.00593567,-0.99786377,0.183105,0.244141,-0.061035
1673020500,0.01249695,0.00593567,-0.99786377,0.122070,0.122070,-0.061035
1680245791,0.01240540,0.00502014,-0.99635315,0.122070,0.122070,-0.061035
1682789083,0.01240540,0.00502014,-0.99635315,0.000000,0.061035,-0.122070
1690166625,0.01124573,0.00416565,-0.99644470,0.000000,0.061035,-0.122070
1692722208,0.01124573,0.00416565,-0.99644470,0.122070,0.305176,-0.183105
1700329000,0.01182556,0.00350952,-0.99731445,0.122070,0.305176,-0.183105
1702873125,0.01182556,0.00350952,-0.99731445,0.122070,0.183105,0.000000
1710493083,0.01185608,0.00373840,-0.99583435,0.122070,0.183105,0.000000
1713052916,0.01185608,0.00373840,-0.99583435,-0.122070,0.244141,-0.244141
1720344458,0.01179504,0.00260925,-0.99690247,-0.122070,0.244141,-0.244141
1722888541,0.01179504,0.00260925,-0.99690247,-0.061035,0.122070,-0.061035
1730489208,0.01289368,0.00337219,-0.99723816,-0.061035,0.122070,-0.061035
1733082208,0.01289368,0.00337219,-0.99723816,0.000000,0.183105,-0.244141
1740685708,0.01217651,0.00375366,-0.99853516,0.000000,0.183105,-0.244141
1743225416,0.01217651,0.00375366,-0.99853516,0.000000,0.122070,-0.061035
1750807416,0.01188660,0.00483704,-0.99696350,0.000000,0.122070,-0.061035
1753344291,0.01188660,0.00483704,-0.99696350,0.000000,0.183105,-0.183105
1760929500,0.01231384,0.00521851,-0.99687195,0.000000,0.183105,-0.183105
1763054458,0.01231384,0.00521851,-0.99687195,-0.061035,0.244141,-0.061035
1772814541,0.01261902,0.00379944,-0.99731445,0.000000,0.183105,-0.061035
1780435625,0.01264954,0.00512695,-0.99679565,0.000000,0.183105,-0.061035
1782979250,0.01264954,0.00512695,-0.99679565,0.122070,0.183105,-0.122070
1790590583,0.01202393,0.00546265,-0.99566650,0.122070,0.183105,-0.122070
1793142000,0.01202393,0.00546265,-0.99566650,0.183105,0.244141,-0.061035
1800753583,0.01092529,0.00584412,-0.99597168,0.183105,0.244141,-0.061035
1803305208,0.01092529,0.00584412,-0.99597168,0.183105,0.183105,0.000000
1810778208,0.01077271,0.00770569,-0.99768066,0.183105,0.183105,0.000000
1813317500,0.01077271,0.00770569,-0.99768066,0.061035,0.244141,-0.122070
1820905916,0.01164246,0.00683594,-0.99821472,0.061035,0.244141,-0.122070
1823450625,0.01164246,0.00683594,-0.99821472,0.122070,0.122070,0.000000
1831075333,0.01196289,0.00537109,-0.99769592,0.122070,0.122070,0.000000
1833634625,0.01196289,0.00537109,-0.99769592,0.000000,0.061035,-0.183105
1841239166,0.01277161,0.00480652,-0.99601746,0.000000,0.061035,-0.183105
1843790958,0.01277161,0.00480652,-0.99601746,0.061035,0.183105,0.000000
1851399416,0.01322937,0.00361633,-0.99601746,0.061035,0.183105,0.000000
1853734416,0.01322937,0.00361633,-0.99601746,0.122070,0.244141,-0.122070
1861345166,0.01315308,0.00160217,-0.99761963,0.122070,0.244141,-0.122070
1863897708,0.01315308,0.00160217,-0.99761963,0.061035,0.183105,-0.183105
1871388875,0.01307678,-0.00045776,-0.99617004,0.061035,0.183105,-0.183105
1873921000,0.01307678,-0.00045776,-0.99617004,0.183105,0.244141,-0.122070
1881486000,0.01225281,-0.00094604,-0.99732971,0.183105,0.244141,-0.122070
1884014625,0.01225281,-0.00094604,-0.99732971,0.061035,0.183105,-0.183105
1891105000,0.01220703,-0.00061035,-0.99775696,0.061035,0.183105,-0.183105
1893668000,0.01220703,-0.00061035,-0.99775696,0.122070,0.122070,-0.061035
1901224000,0.01246643,0.00067139,-0.99803162,0.122070,0.122070,-0.061035
1903747500,0.01246643,0.00067139,-0.99803162,0.061035,0.183105,-0.183105
1911332000,0.01240540,0.00263977,-0.99507141,0.061035,0.183105,-0.183105
1913886791,0.01240540,0.00263977,-0.99507141,0.183105,0.122070,-0.122070
1921566833,0.01258850,0.00529480,-0.99685669,0.183105,0.122070,-0.122070
1924135166,0.01258850,0.00529480,-0.99685669,0.000000,0.305176,-0.244141
1931341208,0.01206970,0.00772095,-0.99667358,0.000000,0.305176,-0.244141
1933882625,0.01206970,0.00772095,-0.99667358,0.122070,0.122070,-0.183105
1941452041,0.00990295,0.00808716,-0.99600220,0.122070,0.122070,-0.183105
1943985916,0.00990295,0.00808716,-0.99600220,0.000000,0.122070,-0.122070
1952813666,0.00994873,0.00828552,-0.99758911,0.061035,0.244141,-0.122070
1962736750,0.01103210,0.00929260,-0.99754333,-0.061035,0.244141,0.000000
1972900875,0.01277161,0.00794983,-0.99789429,0.183105,0.183105,-0.061035
1983275416,0.01315308,0.00730896,-0.99720764,0.061035,0.061035,-0.061035
1993689041,0.01216125,0.00492859,-0.99748230,0.061035,0.122070,-0.061035
2004339958,0.01301575,0.00329590,-0.99772644,0.061035,0.122070,-0.061035
2006942583,0.01301575,0.00329590,-0.99772644,0.061035,0.122070,-0.122070
2012095083,0.01277161,0.00228882,-0.99635315,0.122070,0.061035,-0.122070
2021627500,0.01254272,0.00202942,-0.99728394,0.122070,0.061035,-0.122070
2024205541,0.01254272,0.00202942,-0.99728394,0.183105,0.122070,-0.061035
2033796833,0.01229858,0.00201416,-0.99595642,0.183105,0.122070,-0.061035
2036557500,0.01229858,0.00201416,-0.99595642,0.061035,0.122070,-0.061035
2041674500,0.01194763,0.00178528,-0.99707031,0.061035,0.122070,-0.061035
2044232916,0.01194763,0.00178528,-0.99707031,0.244141,0.305176,-0.061035
2051827458,0.01208496,0.00344849,-0.99626160,0.244141,0.305176,-0.061035
2054371500,0.01208496,0.00344849,-0.99626160,0.000000,0.122070,-0.122070
2061929000,0.01217651,0.00482178,-0.99795532,0.000000,0.122070,-0.122070
2064455000,0.01217651,0.00482178,-0.99795532,0.061035,0.183105,-0.061035
2071549500,0.01211548,0.00544739,-0.99757385,0.061035,0.183105,-0.061035
2074083000,0.01211548,0.00544739,-0.99757385,0.122070,0.244141,-0.061035
2081672166,0.01162720,0.00556946,-0.99700928,0.122070,0.244141,-0.061035
2084219750,0.01162720,0.00556946,-0.99700928,0.061035,0.183105,-0.122070
2091738916,0.01281738,0.00567627,-0.99703979,0.061035,0.183105,-0.122070
2094292750,0.01281738,0.00567627,-0.99703979,0.061035,0.305176,-0.122070
2101855833,0.01199341,0.00543213,-0.99836731,0.061035,0.305176,-0.122070
2104388375,0.01199341,0.00543213,-0.99836731,0.061035,0.183105,0.000000
2111953416,0.01132202,0.00462341,-0.99581909,0.061035,0.183105,0.000000
2114478041,0.01132202,0.00462341,-0.99581909,0.000000,0.122070,-0.061035
2122039708,0.01152039,0.00401306,-0.99725342,0.000000,0.122070,-0.061035
2124576125,0.01152039,0.00401306,-0.99725342,0.183105,0.244141,-0.061035
2132138041,0.01290894,0.00456238,-0.99728394,0.183105,0.244141,-0.061035
2134679875,0.01290894,0.00456238,-0.99728394,0.122070,0.183105,-0.183105
2142268541,0.01354980,0.00357056,-0.99638367,0.122070,0.183105,-0.183105
2144812125,0.01354980,0.00357056,-0.99638367,0.000000,0.122070,-0.061035
2152422916,0.01184082,0.00270081,-0.99708557,0.000000,0.122070,-0.061035
2154969875,0.01184082,0.00270081,-0.99708557,0.122070,0.061035,0.000000
2163361333,0.01193237,0.00442505,-0.99758911,0.122070,0.061035,0.000000
2165925333,0.01193237,0.00442505,-0.99758911,0.122070,0.305176,-0.061035
2173940750,0.01211548,0.00465393,-0.99671936,0.122070,0.183105,-0.061035
2181677208,0.01235962,0.00419617,-0.99751282,0.122070,0.183105,-0.061035
2184262041,0.01235962,0.00419617,-0.99751282,0.061035,0.122070,-0.122070
2191862375,0.01190186,0.00328064,-0.99702454,0.061035,0.122070,-0.122070
2194437541,0.01190186,0.00328064,-0.99702454,0.000000,0.183105,0.122070
2201752000,0.01179504,0.00413513,-0.99687195,0.000000,0.183105,0.122070
2204298500,0.01179504,0.00413513,-0.99687195,-0.061035,0.122070,-0.122070
2211870583,0.01220703,0.00569153,-0.99604797,-0.061035,0.122070,-0.122070
2214410708,0.01220703,0.00569153,-0.99604797,0.061035,0.122070,-0.061035
2221990750,0.01103210,0.00541687,-0.99624634,0.061035,0.122070,-0.061035
2224536375,0.01103210,0.00541687,-0.99624634,-0.061035,0.061035,-0.061035
2232135541,0.01138306,0.00587463,-0.99691772,-0.061035,0.061035,-0.061035
2234690208,0.01138306,0.00587463,-0.99691772,-0.061035,0.183105,0.000000
2242292291,0.01286316,0.00587463,-0.99737549,-0.061035,0.183105,0.000000
2244841458,0.01286316,0.00587463,-0.99737549,0.122070,0.122070,-0.061035
2252425375,0.01260376,0.00482178,-0.99723816,0.122070,0.122070,-0.061035
2254966041,0.01260376,0.00482178,-0.99723816,0.000000,0.122070,0.061035
2262548958,0.01229858,0.00462341,-0.99723816,0.000000,0.122070,0.061035
2265084416,0.01229858,0.00462341,-0.99723816,0.061035,0.122070,-0.061035
2272246166,0.01220703,0.00457764,-0.99714661,0.061035,0.122070,-0.061035
2274792541,0.01220703,0.00457764,-0.99714661,0.000000,0.000000,0.000000
2282362458,0.01245117,0.00479126,-0.99679565,0.000000,0.000000,0.000000
2284903791,0.01245117,0.00479126,-0.99679565,0.000000,0.366211,-0.061035
2292505833,0.01164246,0.00369263,-0.99674988,0.000000,0.366211,-0.061035
2295051125,0.01164246,0.00369263,-0.99674988,0.000000,0.183105,-0.122070
2302654458,0.01231384,0.00279236,-0.99679565,0.000000,0.183105,-0.122070
2305230458,0.01231384,0.00279236,-0.99679565,0.000000,0.122070,-0.183105
2312851875,0.01112366,0.00350952,-0.99681091,0.000000,0.122070,-0.183105
2315415208,0.01112366,0.00350952,-0.99681091,0.061035,0.244141,-0.122070
2323034916,0.01208496,0.00279236,-0.99668884,0.061035,0.244141,-0.122070
2325592791,0.01208496,0.00279236,-0.99668884,0.122070,0.122070,-0.061035
2333198708,0.01167297,0.00402832,-0.99757385,0.061035,0.244141,-0.061035
2343334041,0.01078796,0.00424194,-0.99827576,0.000000,0.061035,-0.244141
2353454625,0.01300049,0.00453186,-0.99597168,-0.183105,0.122070,-0.122070
2363592291,0.01260376,0.00534058,-0.99668884,0.122070,0.122070,-0.122070
2373599333,0.01129150,0.00634766,-0.99603271,0.000000,0.183105,-0.122070
2383752875,0.01264954,0.00685120,-0.99647522,0.122070,0.244141,-0.061035
2393971791,0.01313782,0.00543213,-0.99758911,-0.061035,0.183105,-0.183105
2404090375,0.01208496,0.00529480,-0.99696350,0.122070,0.183105,-0.061035
2414213416,0.01231384,0.00511169,-0.99656677,0.000000,0.183105,-0.183105
2424391166,0.01167297,0.00411987,-0.99687195,0.183105,0.061035,-0.122070
2434519125,0.01210022,0.00384521,-0.99835205,0.061035,0.183105,-0.122070
2442137291,0.01075745,0.00306702,-0.99749756,0.061035,0.183105,-0.122070
2444688500,0.01075745,0.00306702,-0.99749756,-0.061035,0.183105,-0.244141
2452307791,0.01138306,0.00308228,-0.99673462,-0.061035,0.183105,-0.244141
2454852916,0.01138306,0.00308228,-0.99673462,0.061035,0.244141,-0.061035
2462448541,0.01258850,0.00311279,-0.99729919,0.061035,0.244141,-0.061035
2464985208,0.01258850,0.00311279,-0.99729919,0.061035,0.122070,-0.122070
2472573833,0.01141357,0.00373840,-0.99681091,0.061035,0.122070,-0.122070
2475110083,0.01141357,0.00373840,-0.99681091,0.000000,0.183105,-0.061035
2482714666,0.01206970,0.00416565,-0.99720764,0.000000,0.183105,-0.061035
2485257333,0.01206970,0.00416565,-0.99720764,0.000000,0.122070,-0.122070
2492860458,0.01220703,0.00527954,-0.99649048,0.000000,0.122070,-0.122070
2495400416,0.01220703,0.00527954,-0.99649048,-0.061035,0.183105,-0.122070
2502990083,0.01161194,0.00517273,-0.99679565,-0.061035,0.183105,-0.122070
2505527916,0.01161194,0.00517273,-0.99679565,0.000000,0.244141,0.000000
2513136041,0.01159668,0.00430298,-0.99696350,0.000000,0.244141,0.000000
2515688166,0.01159668,0.00430298,-0.99696350,0.000000,0.183105,-0.122070
2523322125,0.01155090,0.00437927,-0.99645996,0.000000,0.183105,-0.122070
2525717375,0.01155090,0.00437927,-0.99645996,0.000000,0.183105,-0.122070
2533365875,0.01206970,0.00440979,-0.99768066,0.000000,0.183105,-0.122070
2543499250,0.01190186,0.00482178,-0.99690247,0.061035,0.122070,-0.061035
2553635958,0.01200867,0.00462341,-0.99739075,0.000000,0.244141,-0.122070
2563069291,0.01235962,0.00376892,-0.99822998,0.000000,0.244141,-0.122070
2565611208,0.01235962,0.00376892,-0.99822998,-0.122070,0.061035,0.000000
2573204791,0.01206970,0.00457764,-0.99682617,-0.122070,0.061035,0.000000
2575746166,0.01206970,0.00457764,-0.99682617,0.122070,0.000000,-0.122070
2583374958,0.01158142,0.00469971,-0.99600220,0.122070,0.000000,-0.122070
2585921458,0.01158142,0.00469971,-0.99600220,0.061035,0.244141,-0.061035
2593558041,0.01164246,0.00453186,-0.99761963,0.000000,0.122070,-0.061035
2603689375,0.01313782,0.00453186,-0.99681091,0.000000,0.305176,-0.061035
2613823708,0.01150513,0.00392151,-0.99685669,0.000000,0.122070,-0.122070
2623944625,0.01190186,0.00396729,-0.99710083,0.122070,0.244141,0.061035
2633908666,0.01196289,0.00462341,-0.99809265,0.061035,0.122070,-0.061035
2644052708,0.01182556,0.00544739,-0.99699402,0.061035,0.122070,-0.061035
2646605041,0.01182556,0.00544739,-0.99699402,-0.061035,0.061035,-0.122070
2654224166,0.01171875,0.00521851,-0.99851990,0.000000,0.183105,-0.061035
2664360416,0.01220703,0.00474548,-0.99818420,0.122070,0.183105,0.000000
2674498625,0.01213074,0.00462341,-0.99632263,0.061035,0.122070,-0.183105
2684634375,0.01266479,0.00491333,-0.99751282,0.061035,0.122070,-0.061035
2694787125,0.01316833,0.00480652,-0.99713135,0.122070,0.244141,-0.122070
2704509291,0.01231384,0.00459290,-0.99638367,-0.061035,0.305176,-0.122070
2714629791,0.01177979,0.00459290,-0.99797058,0.122070,0.000000,-0.061035
2724413958,0.01260376,0.00364685,-0.99627686,0.061035,0.244141,-0.122070
2734601541,0.01223755,0.00436401,-0.99769592,0.122070,0.305176,0.000000
2744392625,0.01066589,0.00375366,-0.99664307,0.122070,0.061035,0.000000
2754512708,0.01194763,0.00358582,-0.99728394,0.061035,0.183105,0.000000
2764630000,0.01216125,0.00436401,-0.99621582,0.000000,0.183105,-0.122070
2774769083,0.01225281,0.00405884,-0.99850464,0.000000,0.061035,-0.122070
2784886916,0.01301575,0.00500488,-0.99722290,0.061035,0.183105,0.000000
2794939791,0.01286316,0.00567627,-0.99697876,0.061035,0.183105,-0.122070
2805066125,0.01339722,0.00433350,-0.99728394,0.061035,0.183105,-0.122070
2814728708,0.01127625,0.00495911,-0.99557495,0.000000,0.122070,-0.061035
2824555541,0.01184082,0.00491333,-0.99623108,0.061035,0.122070,-0.061035
2834307625,0.01190186,0.00466919,-0.99732971,0.122070,0.244141,-0.122070
2844483625,0.01158142,0.00537109,-0.99781799,0.122070,0.183105,-0.122070
2854627583,0.01193237,0.00471497,-0.99655151,0.183105,0.244141,-0.122070
2864791125,0.01278687,0.00479126,-0.99678040,0.061035,0.183105,-0.122070
2874931125,0.01315308,0.00439453,-0.99819946,-0.061035,0.122070,0.000000
2884997958,0.01211548,0.00440979,-0.99670410,0.183105,0.122070,-0.061035
2895170083,0.01300049,0.00408936,-0.99728394,0.061035,0.183105,-0.122070
2905313708,0.01199341,0.00427246,-0.99696350,0.000000,0.244141,-0.061035
2915487708,0.01101685,0.00436401,-0.99769592,0.000000,0.244141,-0.244141
2923108333,0.01129150,0.00477600,-0.99655151,0.000000,0.244141,-0.244141
2925653708,0.01129150,0.00477600,-0.99655151,0.122070,0.122070,-0.183105
2933241666,0.01216125,0.00486755,-0.99687195,0.122070,0.122070,-0.183105
2935809583,0.01216125,0.00486755,-0.99687195,0.000000,0.122070,-0.244141
2943421416,0.01092529,0.00442505,-0.99658203,0.000000,0.122070,-0.244141
2945966833,0.01092529,0.00442505,-0.99658203,0.122070,0.061035,-0.061035
2953554458,0.01187134,0.00421143,-0.99737549,0.122070,0.061035,-0.061035
2956089958,0.01187134,0.00421143,-0.99737549,0.061035,0.305176,-0.122070
2963672125,0.01260376,0.00407410,-0.99775696,0.061035,0.305176,-0.122070
2966208000,0.01260376,0.00407410,-0.99775696,0.244141,0.183105,-0.061035
2973809583,0.01251221,0.00445557,-0.99678040,0.244141,0.183105,-0.061035
2976351666,0.01251221,0.00445557,-0.99678040,0.122070,0.061035,-0.122070
2983938375,0.01318359,0.00502014,-0.99655151,0.122070,0.061035,-0.122070
2986477750,0.01318359,0.00502014,-0.99655151,0.000000,0.244141,-0.183105
2994081291,0.01350403,0.00498962,-0.99720764,0.000000,0.244141,-0.183105
2996640833,0.01350403,0.00498962,-0.99720764,0.061035,0.122070,-0.061035
3004246416,0.01226807,0.00389099,-0.99737549,0.061035,0.122070,-0.061035
3006792458,0.01226807,0.00389099,-0.99737549,0.061035,0.183105,-0.244141
3014404625,0.01232910,0.00471497,-0.99653625,0.061035,0.183105,-0.244141
3016968000,0.01232910,0.00471497,-0.99653625,0.061035,0.061035,0.000000
3024603583,0.01223755,0.00505066,-0.99745178,0.122070,0.122070,-0.122070
3034666875,0.01098633,0.00451660,-0.99671936,0.000000,0.122070,-0.061035
3044797083,0.01089478,0.00502014,-0.99670410,-0.061035,0.122070,-0.061035
3054922166,0.01193237,0.00454712,-0.99732971,-0.061035,0.122070,0.061035
3065044375,0.01243591,0.00495911,-0.99737549,0.061035,0.122070,-0.061035
3075177500,0.01277161,0.00514221,-0.99710083,0.000000,0.122070,-0.122070
3085300583,0.01211548,0.00454712,-0.99604797,0.122070,0.183105,-0.061035
3095295083,0.01286316,0.00401306,-0.99691772,0.000000,0.061035,-0.122070
3105415958,0.01200867,0.00428772,-0.99679565,0.061035,0.183105,0.000000
3115538791,0.01202393,0.00473022,-0.99739075,0.061035,0.183105,-0.122070
3125653416,0.01268005,0.00498962,-0.99705505,0.183105,0.183105,-0.122070
3135810791,0.01231384,0.00439453,-0.99703979,0.061035,0.000000,-0.122070
3145933708,0.01269531,0.00416565,-0.99806213,0.244141,0.000000,0.000000
3153607583,0.01219177,0.00460815,-0.99647522,0.244141,0.000000,0.000000
3156156000,0.01219177,0.00460815,-0.99647522,0.061035,0.183105,-0.183105
3163762875,0.01162720,0.00389099,-0.99665833,0.061035,0.183105,-0.183105
3166312041,0.01162720,0.00389099,-0.99665833,0.061035,0.122070,-0.061035
3173975583,0.01205444,0.00376892,-0.99691772,0.061035,0.122070,-0.061035
3176387791,0.01205444,0.00376892,-0.99691772,0.122070,0.183105,-0.061035
3186577041,0.01211548,0.00396729,-0.99642944,0.122070,0.122070,-0.061035
3196323958,0.01290894,0.00433350,-0.99681091,0.122070,0.183105,-0.183105
3206467541,0.01229858,0.00418091,-0.99633789,0.122070,0.183105,-0.122070
3214079583,0.01185608,0.00459290,-0.99610901,0.122070,0.183105,-0.122070
3216615458,0.01185608,0.00459290,-0.99610901,0.000000,0.061035,0.000000
3224172166,0.01113892,0.00460815,-0.99674988,0.000000,0.061035,0.000000
3226701791,0.01113892,0.00460815,-0.99674988,0.061035,0.183105,-0.061035
3234288083,0.01107788,0.00459290,-0.99703979,0.061035,0.183105,-0.061035
3236818083,0.01107788,0.00459290,-0.99703979,0.061035,0.244141,-0.122070
3244123083,0.01228333,0.00570679,-0.99665833,0.061035,0.244141,-0.122070
3246646833,0.01228333,0.00570679,-0.99665833,0.000000,0.122070,-0.061035
3254196208,0.01200867,0.00646973,-0.99632263,0.000000,0.122070,-0.061035
3256717250,0.01200867,0.00646973,-0.99632263,0.000000,0.122070,-0.061035
3264271000,0.01147461,0.00614929,-0.99615479,0.000000,0.122070,-0.061035
3266800958,0.01147461,0.00614929,-0.99615479,0.122070,0.122070,-0.122070
3274306375,0.01246643,0.00556946,-0.99761963,0.122070,0.122070,-0.122070
3276854875,0.01246643,0.00556946,-0.99761963,0.122070,0.122070,-0.061035
3284128083,0.01284790,0.00509644,-0.99624634,0.122070,0.122070,-0.061035
3286667708,0.01284790,0.00509644,-0.99624634,0.061035,0.122070,-0.122070
3294270666,0.01130676,0.00350952,-0.99659729,0.061035,0.122070,-0.122070
3296811125,0.01130676,0.00350952,-0.99659729,0.000000,0.244141,-0.122070
3304406916,0.01155090,0.00276184,-0.99822998,0.000000,0.244141,-0.122070
3306949083,0.01155090,0.00276184,-0.99822998,0.000000,0.183105,-0.122070
3314539000,0.01162720,0.00373840,-0.99722290,0.000000,0.183105,-0.122070
3317080666,0.01162720,0.00373840,-0.99722290,0.061035,0.305176,-0.122070
3324682875,0.01205444,0.00428772,-0.99769592,0.061035,0.305176,-0.122070
3327219375,0.01205444,0.00428772,-0.99769592,0.122070,0.122070,-0.183105
3334701916,0.01235962,0.00440979,-0.99697876,0.122070,0.122070,-0.183105
3337241750,0.01235962,0.00440979,-0.99697876,0.122070,0.122070,-0.061035
3344830208,0.01138306,0.00454712,-0.99703979,0.122070,0.122070,-0.061035
3347369375,0.01138306,0.00454712,-0.99703979,0.000000,0.122070,0.000000
3354971916,0.01182556,0.00524902,-0.99623108,0.000000,0.122070,0.000000
3357509750,0.01182556,0.00524902,-0.99623108,0.061035,0.061035,-0.061035
3365179541,0.01136780,0.00505066,-0.99659729,0.061035,0.061035,-0.061035
3367727291,0.01136780,0.00505066,-0.99659729,-0.061035,0.183105,-0.122070
3375356458,0.01142883,0.00468445,-0.99682617,0.000000,0.061035,-0.122070
3385489166,0.01158142,0.00550842,-0.99792480,0.122070,0.122070,-0.183105
3395660458,0.01051331,0.00581360,-0.99644470,0.122070,0.244141,-0.061035
3405785791,0.01264954,0.00473022,-0.99656677,0.122070,0.305176,-0.061035
3415982500,0.01158142,0.00444031,-0.99678040,-0.061035,0.244141,0.061035
3426112250,0.01226807,0.00433350,-0.99775696,0.061035,0.183105,-0.122070
3436262625,0.01104736,0.00364685,-0.99606323,0.122070,0.244141,-0.122070
3446397333,0.01191711,0.00372314,-0.99662781,0.061035,0.305176,-0.061035
3456267583,0.01190186,0.00364685,-0.99656677,0.122070,0.122070,-0.122070
3466405500,0.01170349,0.00442505,-0.99754333,0.000000,0.183105,-0.122070
3476525125,0.01179504,0.00462341,-0.99678040,0.122070,0.183105,0.000000
3486637208,0.01284790,0.00396729,-0.99708557,0.000000,0.183105,-0.183105
3496403750,0.01197815,0.00419617,-0.99710083,0.061035,0.183105,-0.183105
3506547250,0.01184082,0.00447083,-0.99835205,0.000000,0.244141,-0.061035
3516704083,0.01191711,0.00440979,-0.99688721,0.183105,0.183105,-0.244141
3526853791,0.01228333,0.00451660,-0.99705505,0.000000,0.061035,-0.183105
3536998458,0.01235962,0.00428772,-0.99754333,0.122070,0.183105,-0.122070
3546935041,0.01278687,0.00486755,-0.99749756,0.061035,0.122070,-0.183105
3554553458,0.01225281,0.00489807,-0.99707031,0.061035,0.122070,-0.183105
3557134041,0.01225281,0.00489807,-0.99707031,0.183105,0.183105,-0.122070
3564654875,0.01216125,0.00505066,-0.99700928,0.183105,0.183105,-0.122070
3567207916,0.01216125,0.00505066,-0.99700928,0.000000,0.183105,-0.122070
3574810833,0.01287842,0.00425720,-0.99662781,0.000000,0.183105,-0.122070
3577357375,0.01287842,0.00425720,-0.99662781,0.061035,0.305176,-0.183105
3584961208,0.01269531,0.00376892,-0.99633789,0.061035,0.305176,-0.183105
3587501750,0.01269531,0.00376892,-0.99633789,0.061035,0.244141,-0.061035
3595083583,0.01097107,0.00433350,-0.99679565,0.061035,0.244141,-0.061035
3597624500,0.01097107,0.00433350,-0.99679565,0.122070,0.183105,-0.122070
3605430583,0.01171875,0.00514221,-0.99757385,0.122070,0.183105,-0.122070
3607986500,0.01171875,0.00514221,-0.99757385,-0.122070,0.244141,-0.122070
3615625333,0.01324463,0.00416565,-0.99723816,-0.122070,0.244141,-0.122070
3618165250,0.01324463,0.00416565,-0.99723816,0.000000,0.000000,-0.305176
3625762500,0.01194763,0.00474548,-0.99740601,0.000000,0.000000,-0.305176
3628303791,0.01194763,0.00474548,-0.99740601,0.061035,0.183105,-0.122070
3635919708,0.01118469,0.00492859,-0.99694824,0.061035,0.183105,-0.122070
3638485958,0.01118469,0.00492859,-0.99694824,0.000000,0.183105,-0.122070
3646104166,0.01315308,0.00511169,-0.99742126,0.122070,0.183105,-0.061035
3656234250,0.01264954,0.00558472,-0.99723816,0.122070,0.122070,-0.122070
3666398083,0.01248169,0.00517273,-0.99586487,0.061035,0.183105,-0.061035
3676275833,0.01075745,0.00550842,-0.99600220,0.000000,0.122070,-0.122070
3686291666,0.01136780,0.00511169,-0.99755859,-0.061035,0.183105,0.061035
3696267916,0.01226807,0.00405884,-0.99740601,0.122070,0.183105,-0.061035
3706515500,0.01261902,0.00509644,-0.99763489,-0.061035,0.061035,-0.122070
3716647583,0.01155090,0.00506592,-0.99731445,-0.061035,0.122070,-0.061035
3726801000,0.01177979,0.00444031,-0.99688721,-0.061035,0.244141,-0.183105
3736924291,0.01211548,0.00314331,-0.99792480,-0.061035,0.122070,-0.122070
3747049125,0.01191711,0.00354004,-0.99588013,0.061035,0.183105,-0.061035
3757201166,0.01289368,0.00354004,-0.99690247,0.061035,0.122070,-0.305176
3767402416,0.01261902,0.00279236,-0.99644470,0.122070,0.244141,-0.183105
3777618333,0.01208496,0.00454712,-0.99696350,0.122070,0.183105,-0.061035
3785218625,0.01216125,0.00416565,-0.99661255,0.122070,0.183105,-0.061035
3787758125,0.01216125,0.00416565,-0.99661255,0.061035,0.183105,-0.244141
3795342833,0.01184082,0.00454712,-0.99765015,0.061035,0.183105,-0.244141
3797880833,0.01184082,0.00454712,-0.99765015,0.061035,0.122070,-0.122070
3805472125,0.01133728,0.00587463,-0.99665833,0.061035,0.122070,-0.122070
3808013916,0.01133728,0.00587463,-0.99665833,0.122070,0.183105,0.000000
3815607291,0.01112366,0.00656128,-0.99629211,0.122070,0.183105,0.000000
3818150208,0.01112366,0.00656128,-0.99629211,0.000000,0.122070,0.000000
3825740041,0.01109314,0.00703430,-0.99687195,0.000000,0.122070,0.000000
3828293333,0.01109314,0.00703430,-0.99687195,0.000000,0.183105,-0.061035
3835878375,0.01184082,0.00614929,-0.99594116,0.000000,0.183105,-0.061035
3838415708,0.01184082,0.00614929,-0.99594116,-0.061035,0.122070,-0.183105
3846027791,0.01284790,0.00518799,-0.99650574,-0.061035,0.122070,-0.183105
3848587666,0.01284790,0.00518799,-0.99650574,0.122070,0.305176,-0.061035
3855742375,0.01358032,0.00459290,-0.99674988,0.122070,0.305176,-0.061035
3858283875,0.01358032,0.00459290,-0.99674988,0.061035,0.122070,-0.061035
3865921833,0.01278687,0.00401306,-0.99702454,0.061035,0.122070,-0.061035
3868469625,0.01278687,0.00401306,-0.99702454,0.061035,0.183105,-0.061035
3876060583,0.01235962,0.00462341,-0.99754333,0.061035,0.183105,-0.061035
3878683166,0.01235962,0.00462341,-0.99754333,-0.061035,0.122070,0.000000
3885801458,0.01164246,0.00430298,-0.99652100,-0.061035,0.122070,0.000000
3888340875,0.01164246,0.00430298,-0.99652100,-0.061035,0.122070,-0.061035
3895933750,0.01119995,0.00344849,-0.99740601,-0.061035,0.122070,-0.061035
3898469541,0.01119995,0.00344849,-0.99740601,0.000000,0.061035,-0.183105
3906115916,0.01225281,0.00424194,-0.99580383,0.000000,0.061035,-0.183105
3908675875,0.01225281,0.00424194,-0.99580383,0.061035,0.183105,-0.061035
3916286791,0.01303101,0.00543213,-0.99574280,0.061035,0.183105,-0.061035
3918826958,0.01303101,0.00543213,-0.99574280,0.061035,0.244141,-0.122070
3926445000,0.01275635,0.00498962,-0.99575806,0.061035,0.244141,-0.122070
3928986541,0.01275635,0.00498962,-0.99575806,-0.061035,0.305176,-0.061035
3936613375,0.01206970,0.00495911,-0.99645996,-0.061035,0.305176,-0.061035
3939156083,0.01206970,0.00495911,-0.99645996,0.122070,0.061035,-0.122070
3946772500,0.01338196,0.00451660,-0.99694824,0.122070,0.061035,-0.122070
3949327416,0.01338196,0.00451660,-0.99694824,0.122070,0.061035,0.000000
3956926166,0.01278687,0.00451660,-0.99711609,0.122070,0.061035,0.000000
3959471250,0.01278687,0.00451660,-0.99711609,0.305176,0.183105,-0.122070
3967099541,0.01243591,0.00382996,-0.99304199,0.305176,0.183105,-0.122070
3969644708,0.01243591,0.00382996,-0.99304199,0.000000,0.061035,-0.061035
3977233500,0.01254272,0.00370789,-1.00566101,-0.122070,-0.427246,-0.122070
3987372166,0.01283264,0.00376892,-0.99293518,-0.244141,0.427246,-0.122070
3997509125,0.01251221,0.00338745,-0.99577332,0.427246,0.000000,-0.122070
4007453333,0.01199341,0.00344849,-1.00291443,0.061035,0.122070,0.000000
4017583708,0.01089478,0.00559998,-0.99324036,0.061035,0.183105,-0.061035
4027738291,0.01109314,0.00685120,-0.99951172,-0.061035,0.122070,-0.122070
4037871208,0.01101685,0.00749207,-0.99639893,-0.061035,0.122070,-0.122070
4048003916,0.01086426,0.00837708,-0.99662781,0.244141,0.183105,-0.061035
4058171583,0.01116943,0.00683594,-0.99807739,0.061035,0.244141,-0.061035
4068310291,0.01213074,0.00428772,-0.99710083,0.000000,0.183105,0.061035
4078421500,0.01296997,0.00303650,-0.99710083,0.122070,0.000000,-0.122070
4086053750,0.01205444,0.00233459,-0.99609375,0.122070,0.000000,-0.122070
4088595375,0.01205444,0.00233459,-0.99609375,0.244141,-0.061035,-0.061035
4096203291,0.01216125,0.00141907,-0.99615479,0.244141,-0.061035,-0.061035
4098740250,0.01216125,0.00141907,-0.99615479,-0.366211,0.305176,-0.061035
4106323833,0.01269531,0.00062561,-0.99841309,-0.366211,0.305176,-0.061035
4108862625,0.01269531,0.00062561,-0.99841309,0.122070,0.244141,-0.244141
4116463041,0.01171875,0.00279236,-0.99366760,0.122070,0.244141,-0.244141
4118999833,0.01171875,0.00279236,-0.99366760,0.000000,0.000000,-0.183105
4126586791,0.01162720,0.00405884,-0.99821472,0.000000,0.000000,-0.183105
4129120250,0.01162720,0.00405884,-0.99821472,0.061035,0.244141,-0.183105
4136400458,0.01231384,0.00469971,-0.99496460,0.061035,0.244141,-0.183105
4138977500,0.01231384,0.00469971,-0.99496460,0.244141,0.000000,-0.122070
4146586083,0.01118469,0.00540161,-0.99772644,0.244141,0.000000,-0.122070
4149129125,0.01118469,0.00540161,-0.99772644,0.000000,0.183105,-0.244141
4156382083,0.01203918,0.00669861,-0.99598694,0.000000,0.183105,-0.244141
4158924416,0.01203918,0.00669861,-0.99598694,0.061035,0.183105,0.000000
4166528666,0.01255798,0.00778198,-0.99755859,0.061035,0.183105,0.000000
4169070000,0.01255798,0.00778198,-0.99755859,-0.061035,0.061035,0.000000
4176258500,0.01173401,0.00852966,-0.99641418,-0.061035,0.061035,0.000000
4178803625,0.01173401,0.00852966,-0.99641418,0.000000,0.183105,-0.183105
4186397625,0.01225281,0.00755310,-0.99798584,0.000000,0.183105,-0.183105
4188951916,0.01225281,0.00755310,-0.99798584,-0.061035,0.061035,0.000000
4196576750,0.01242065,0.00656128,-0.99804688,-0.061035,0.061035,0.000000
4199119250,0.01242065,0.00656128,-0.99804688,-0.061035,0.061035,-0.122070
4206719958,0.01268005,0.00375366,-0.99594116,-0.061035,0.061035,-0.122070
4209270375,0.01268005,0.00375366,-0.99594116,0.000000,0.122070,-0.122070
4216865041,0.01296997,0.00335693,-0.99749756,0.000000,0.122070,-0.122070
4219414250,0.01296997,0.00335693,-0.99749756,-0.061035,0.061035,-0.061035
4226798583,0.01335144,0.00288391,-0.99479675,-0.061035,0.061035,-0.061035
4229336416,0.01335144,0.00288391,-0.99479675,0.061035,0.122070,-0.122070
4236939916,0.01284790,0.00259399,-0.99670410,0.061035,0.122070,-0.122070
4239496541,0.01284790,0.00259399,-0.99670410,0.061035,0.122070,-0.061035
4247093458,0.01152039,0.00303650,-0.99618530,0.061035,0.122070,-0.061035
4249629166,0.01152039,0.00303650,-0.99618530,0.122070,0.183105,-0.122070
4257219500,0.01051331,0.00347900,-0.99806213,0.122070,0.183105,-0.122070
4259766750,0.01051331,0.00347900,-0.99806213,0.061035,0.122070,-0.122070
4267373833,0.01168823,0.00387573,-0.99786377,0.000000,0.244141,-0.183105
4277527083,0.01116943,0.00541687,-0.99620056,0.000000,0.305176,0.000000
4287474541,0.01086426,0.00538635,-0.99650574,0.061035,0.244141,-0.061035
4297645375,0.01170349,0.00532532,-0.99729919,0.061035,0.061035,-0.183105
4307761250,0.01104736,0.00646973,-0.99726868,0.122070,0.305176,0.000000
4317887500,0.01210022,0.00619507,-0.99578857,0.061035,0.244141,-0.122070
4328022750,0.01202393,0.00517273,-0.99563599,0.061035,0.122070,0.000000
4338172666,0.01199341,0.00540161,-0.99656677,0.183105,0.183105,-0.061035
4348160000,0.01168823,0.00390625,-0.99400330,0.183105,0.366211,0.000000
4358287208,0.01165771,0.00384521,-0.99670410,0.183105,0.061035,-0.061035
4368001583,0.01246643,0.00382996,-0.99700928,-0.244141,0.305176,-0.061035
4378073375,0.01110840,0.00424194,-1.00044250,-0.122070,0.183105,-0.061035
4388204541,0.01153564,0.00447083,-0.98739624,0.183105,0.061035,-0.122070
4398332041,0.01141357,0.00459290,-1.01048279,0.000000,0.305176,-0.061035
4408165791,0.01306152,0.00466919,-0.99002075,-0.061035,0.305176,-0.061035
4418283416,0.01275635,0.00488281,-1.00341797,-0.061035,0.244141,-0.122070
4428413250,0.01123047,0.00422668,-0.99226379,-0.671387,0.122070,-0.061035
4438530875,0.01072693,0.00390625,-0.99554443,0.427246,0.000000,-0.061035
4448648666,0.01213074,0.00363159,-1.00276184,0.000000,0.122070,-0.061035
4458754625,0.01264954,0.00436401,-0.99113464,0.122070,0.366211,-0.183105
4468872291,0.01252747,0.00440979,-0.99717712,0.122070,0.183105,-0.061035
4479006750,0.01271057,0.00495911,-0.99554443,0.061035,0.244141,-0.061035
4489127041,0.01240540,0.00561523,-0.99699402,0.122070,0.183105,-0.061035
4499256208,0.01155090,0.00549316,-0.99800110,0.183105,0.183105,0.000000
4509385541,0.01126099,0.00579834,-0.99575806,-0.183105,0.305176,-0.061035
4519512458,0.01055908,0.00476074,-0.99678040,0.183105,0.183105,-0.061035
4527152333,0.01060486,0.00297546,-1.00025940,0.183105,0.183105,-0.061035
4529711250,0.01060486,0.00297546,-1.00025940,0.122070,0.061035,-0.183105
4537317833,0.01106262,0.00331116,-0.99328613,0.122070,0.061035,-0.183105
4539863500,0.01106262,0.00331116,-0.99328613,0.183105,0.122070,-0.183105
4547460541,0.01203918,0.00402832,-0.99473572,0.183105,0.122070,-0.183105
4550065416,0.01203918,0.00402832,-0.99473572,0.244141,0.305176,-0.122070
4557471208,0.01202393,0.00515747,-0.99885559,0.244141,0.305176,-0.122070
4560019291,0.01202393,0.00515747,-0.99885559,0.915527,-0.061035,-0.061035
4567607083,0.01126099,0.00526428,-0.99696350,0.915527,-0.061035,-0.061035
4570151166,0.01126099,0.00526428,-0.99696350,-0.427246,0.183105,-0.122070
4577755333,0.01132202,0.00605774,-0.99650574,-0.427246,0.183105,-0.122070
4580310041,0.01132202,0.00605774,-0.99650574,0.061035,0.305176,0.000000
4587910666,0.01219177,0.00665283,-0.99545288,0.061035,0.305176,0.000000
4590457833,0.01219177,0.00665283,-0.99545288,0.000000,0.244141,-0.061035
4597614333,0.01165771,0.00413513,-0.99951172,0.000000,0.244141,-0.061035
4600168375,0.01165771,0.00413513,-0.99951172,0.061035,0.244141,-0.122070
4607767541,0.01202393,0.00430298,-0.99638367,0.061035,0.244141,-0.122070
4610316083,0.01202393,0.00430298,-0.99638367,-0.122070,0.122070,-0.122070
4617460708,0.01298523,0.00354004,-0.99902344,-0.122070,0.122070,-0.122070
4620005166,0.01298523,0.00354004,-0.99902344,-0.122070,0.061035,-0.122070
4627588583,0.01188660,0.00343323,-0.99519348,-0.122070,0.061035,-0.122070
4630139750,0.01188660,0.00343323,-0.99519348,-0.183105,0.244141,-0.061035
4637751750,0.01168823,0.00331116,-0.99867249,-0.183105,0.244141,-0.061035
4639941125,0.01168823,0.00331116,-0.99867249,-0.061035,0.183105,-0.122070
4647222750,0.01214600,0.00372314,-0.99603271,-0.061035,0.183105,-0.122070
4649777083,0.01214600,0.00372314,-0.99603271,0.366211,0.183105,0.000000
4657389333,0.01266479,0.00393677,-0.99610901,0.366211,0.183105,0.000000
4659936125,0.01266479,0.00393677,-0.99610901,-0.732422,0.305176,0.000000
4667524000,0.01116943,0.00398254,-0.99856567,-0.732422,0.305176,0.000000
4669725666,0.01116943,0.00398254,-0.99856567,0.427246,0.122070,-0.244141
4677313708,0.01228333,0.00440979,-0.99633789,0.427246,0.122070,-0.244141
4679859125,0.01228333,0.00440979,-0.99633789,0.061035,0.061035,-0.122070
4687224791,0.01112366,0.00523376,-0.99475098,0.061035,0.061035,-0.122070
4689766291,0.01112366,0.00523376,-0.99475098,0.122070,0.183105,-0.061035
4697360708,0.01138306,0.00688171,-0.99659729,0.122070,0.183105,-0.061035
4699914333,0.01138306,0.00688171,-0.99659729,0.000000,0.122070,-0.183105
4707500208,0.01062012,0.00837708,-0.99774170,0.000000,0.122070,-0.183105
4710046291,0.01062012,0.00837708,-0.99774170,0.122070,0.305176,-0.122070
4717616416,0.01133728,0.00767517,-0.99551392,0.122070,0.305176,-0.122070
4720165666,0.01133728,0.00767517,-0.99551392,0.122070,0.183105,-0.183105
4727772416,0.01211548,0.00645447,-0.99832153,0.122070,0.183105,-0.183105
4730316291,0.01211548,0.00645447,-0.99832153,0.000000,0.183105,-0.122070
4737914708,0.01300049,0.00553894,-0.99671936,0.000000,0.183105,-0.122070
4740455125,0.01300049,0.00553894,-0.99671936,-0.061035,0.183105,-0.122070
4748060000,0.01390076,0.00396729,-0.99864197,-0.061035,0.183105,-0.122070
4750604541,0.01390076,0.00396729,-0.99864197,0.122070,0.244141,-0.061035
4758202958,0.01422119,0.00234985,-0.99604797,0.122070,0.244141,-0.061035
4760747291,0.01422119,0.00234985,-0.99604797,0.122070,0.122070,-0.122070
4768340875,0.01316833,0.00076294,-0.99751282,0.122070,0.122070,-0.122070
4770884333,0.01316833,0.00076294,-0.99751282,0.061035,0.122070,-0.183105
4778504333,0.01177979,0.00175476,-0.99595642,0.061035,0.122070,-0.183105
4781073166,0.01177979,0.00175476,-0.99595642,0.000000,0.244141,-0.183105
4788672791,0.01066589,0.00257874,-0.99760437,0.061035,0.183105,-0.122070
4798786166,0.01078796,0.00335693,-0.99777222,0.061035,0.183105,-0.122070
4801324208,0.01078796,0.00335693,-0.99777222,-0.061035,0.122070,-0.061035
4808933166,0.01086426,0.00622559,-0.99639893,0.061035,0.305176,-0.122070
4818762708,0.01029968,0.00764465,-0.99708557,0.061035,0.305176,-0.122070
4821307208,0.01029968,0.00764465,-0.99708557,0.000000,0.244141,-0.122070
4828923791,0.01100159,0.00807190,-0.99630737,0.000000,0.244141,-0.122070
4831475916,0.01100159,0.00807190,-0.99630737,-0.061035,0.183105,-0.061035
4839100000,0.01075745,0.00822449,-0.99613953,0.000000,0.244141,0.000000
4849226791,0.01168823,0.00590515,-0.99662781,-0.061035,0.183105,-0.122070
4859370708,0.01348877,0.00480652,-0.99688721,0.061035,0.244141,0.000000
4869510666,0.01333618,0.00213623,-0.99696350,0.000000,0.061035,-0.122070
4879308583,0.01342773,0.00062561,-0.99575806,0.061035,0.244141,-0.122070
4888964458,0.01374817,0.00090027,-0.99743652,0.061035,0.244141,-0.122070
4891527416,0.01374817,0.00090027,-0.99743652,0.061035,0.122070,-0.183105
4898766375,0.01341248,0.00161743,-0.99664307,0.061035,0.122070,-0.183105
4901309916,0.01341248,0.00161743,-0.99664307,0.000000,0.122070,-0.244141
4908960625,0.01245117,0.00354004,-0.99719238,0.000000,0.122070,-0.244141
4911496958,0.01245117,0.00354004,-0.99719238,0.122070,0.122070,-0.244141
4919072791,0.01136780,0.00605774,-0.99569702,0.000000,0.061035,-0.122070
4929226625,0.01191711,0.00807190,-0.99726868,0.122070,0.183105,-0.122070
4939173500,0.01144409,0.00894165,-0.99639893,0.061035,0.183105,-0.183105
4949299500,0.01171875,0.00764465,-0.99664307,0.000000,0.122070,-0.122070
4959439250,0.01126099,0.00675964,-0.99710083,0.244141,0.122070,-0.061035
4969557208,0.01193237,0.00379944,-0.99588013,0.000000,0.122070,-0.061035
4979210666,0.01240540,0.00180054,-0.99945068,0.244141,0.183105,-0.122070
4989403416,0.01234436,0.00161743,-0.99438477,0.305176,0.305176,-0.122070
4999541958,0.01176453,0.00184631,-0.99459839,1.098633,0.183105,-0.061035
5009680041,0.01231384,0.00167847,-0.99978638,-0.122070,0.366211,-0.061035
5019831791,0.01119995,0.00331116,-0.99504089,0.000000,0.000000,0.000000
5029968541,0.01162720,0.00546265,-1.00086975,-0.183105,0.122070,-0.183105
5040115750,0.01170349,0.00659180,-0.99490356,-0.122070,0.061035,-0.122070
5049956958,0.01205444,0.00692749,-0.99736023,-0.183105,0.244141,-0.183105
5060112916,0.01304626,0.00651550,-0.99946594,-0.061035,0.122070,-0.061035
5069989125,0.01269531,0.00619507,-0.99752808,0.061035,0.122070,-0.122070
5080121708,0.01046753,0.00656128,-0.99673462,0.122070,0.122070,-0.122070
5090258416,0.00987244,0.00585938,-0.99630737,0.000000,0.122070,-0.122070
5100382958,0.01077271,0.00613403,-0.99697876,0.000000,0.122070,0.061035
5108059750,0.01185608,0.00683594,-0.99642944,0.000000,0.122070,0.061035
5110608708,0.01185608,0.00683594,-0.99642944,0.122070,0.183105,0.000000
5118208958,0.01339722,0.00584412,-0.99664307,0.122070,0.183105,0.000000
5120761333,0.01339722,0.00584412,-0.99664307,0.061035,0.244141,-0.061035
5128157750,0.01428223,0.00437927,-0.99603271,0.061035,0.244141,-0.061035
5130695000,0.01428223,0.00437927,-0.99603271,-0.671387,0.122070,-0.122070
5138304875,0.01423645,0.00289917,-0.99682617,-0.671387,0.122070,-0.122070
5140849500,0.01423645,0.00289917,-0.99682617,0.122070,0.122070,-0.122070
5148463041,0.01161194,0.00256348,-0.99908447,0.122070,0.122070,-0.122070
5151014666,0.01161194,0.00256348,-0.99908447,-0.122070,0.000000,0.000000
5158647916,0.01078796,0.00253296,-0.99504089,-0.122070,0.000000,0.000000
5161189791,0.01078796,0.00253296,-0.99504089,0.122070,0.244141,-0.122070
5168780708,0.01005554,0.00364685,-0.99626160,0.122070,0.244141,-0.122070
5171316250,0.01005554,0.00364685,-0.99626160,0.061035,0.183105,-0.122070
5178900500,0.01002502,0.00328064,-0.99772644,0.061035,0.183105,-0.122070
5181437125,0.01002502,0.00328064,-0.99772644,0.000000,0.244141,-0.122070
5189047416,0.01144409,0.00329590,-0.99575806,0.000000,0.244141,-0.122070
5191592791,0.01144409,0.00329590,-0.99575806,0.061035,0.183105,-0.122070
5199190833,0.01101685,0.00390625,-0.99780273,0.061035,0.183105,-0.122070
5201736583,0.01101685,0.00390625,-0.99780273,0.122070,0.244141,-0.183105
5209336375,0.01206970,0.00546265,-0.99537659,0.122070,0.244141,-0.183105
5211893791,0.01206970,0.00546265,-0.99537659,0.000000,0.122070,-0.122070
5219507375,0.01228333,0.00527954,-0.99771118,0.000000,0.122070,-0.122070
5222055541,0.01228333,0.00527954,-0.99771118,0.000000,0.183105,0.000000
5229654375,0.01246643,0.00619507,-0.99668884,0.000000,0.183105,0.000000
5232198166,0.01246643,0.00619507,-0.99668884,-0.061035,0.122070,-0.122070
5239785166,0.01281738,0.00680542,-0.99839783,-0.061035,0.122070,-0.122070
5242322291,0.01281738,0.00680542,-0.99839783,0.061035,0.183105,-0.122070
5250092291,0.01231384,0.00625610,-0.99688721,0.122070,0.183105,-0.122070
5260218541,0.01211548,0.00587463,-0.99661255,0.000000,0.061035,-0.122070
5270372958,0.01199341,0.00520325,-0.99617004,0.122070,0.183105,0.122070
5280279208,0.01290894,0.00440979,-0.99780273,0.122070,0.183105,0.000000
5290394166,0.01127625,0.00421143,-0.99691772,0.000000,0.183105,0.000000
5300508166,0.01152039,0.00445557,-0.99542236,-0.122070,0.122070,-0.061035
5310624791,0.01171875,0.00563049,-0.99687195,-0.061035,0.366211,-0.061035
5320839041,0.01237488,0.00579834,-0.99548340,0.305176,0.183105,0.061035
5331109333,0.01380920,0.00672913,-1.00144958,0.122070,0.183105,-0.122070
5340791791,0.01316833,0.00584412,-0.99536133,0.122070,0.244141,-0.061035
5350924125,0.01226807,0.00506592,-0.99824524,0.061035,0.244141,-0.183105
5361047916,0.01187134,0.00323486,-0.99655151,0.122070,0.183105,-0.122070
5371216125,0.01231384,0.00091553,-0.99665833,0.183105,0.244141,-0.122070
5381016083,0.01194763,0.00129700,-0.99784851,0.061035,0.122070,-0.061035
5391165166,0.01222229,0.00294495,-0.99714661,-0.244141,0.183105,-0.122070
5401312625,0.01179504,0.00463867,-0.99751282,0.122070,0.122070,-0.305176
5411195250,0.01216125,0.00608826,-0.99617004,0.122070,0.122070,-0.061035
5421376750,0.01318359,0.00691223,-0.99830627,0.122070,0.061035,-0.244141
5431501833,0.01460266,0.00619507,-0.99562073,0.061035,0.183105,-0.122070
5440886250,0.01473999,0.00503540,-0.99702454,-0.061035,0.183105,-0.061035
5450809750,0.01251221,0.00566101,-0.99684143,0.122070,0.122070,-0.061035
5460957208,0.01057434,0.00541687,-0.99771118,0.000000,0.122070,-0.061035
5471089416,0.01052856,0.00442505,-0.99650574,-0.061035,0.183105,-0.122070
5481214916,0.01113892,0.00434875,-0.99786377,-0.061035,0.122070,-0.061035
5491073458,0.01057434,0.00610352,-0.99617004,-0.061035,-0.488281,0.000000
5501232250,0.01103210,0.00619507,-0.99301147,0.244141,0.549316,0.000000
5511520791,0.01235962,0.00477600,-0.99258423,0.000000,0.183105,-0.122070
5519119000,0.01341248,0.00393677,-1.01002502,0.000000,0.183105,-0.122070
5521666791,0.01341248,0.00393677,-1.01002502,-0.305176,0.000000,-0.183105
5529257458,0.01339722,0.00439453,-0.99090576,-0.305176,0.000000,-0.183105
5531798208,0.01339722,0.00439453,-0.99090576,-0.061035,0.366211,-0.122070
5541615458,0.01358032,0.00267029,-0.99998474,-0.061035,0.183105,-0.244141
5549214791,0.01347351,0.00299072,-0.99699402,-0.061035,0.183105,-0.244141
5551755000,0.01347351,0.00299072,-0.99699402,0.000000,0.244141,-0.122070
5559124000,0.01226807,0.00349426,-0.99871826,0.000000,0.244141,-0.122070
5561682333,0.01226807,0.00349426,-0.99871826,-0.061035,0.122070,-0.122070
5571528708,0.01165771,0.00382996,-0.99440002,0.183105,0.183105,-0.122070
5581604833,0.01156616,0.00517273,-0.99510193,0.244141,0.549316,0.000000
5591590666,0.01147461,0.00637817,-0.99676514,0.305176,0.061035,-0.061035
5601232916,0.01162720,0.00723267,-1.00082397,0.000000,0.061035,-0.061035
5611359666,0.01170349,0.00753784,-0.99304199,0.000000,0.183105,-0.122070
5621303625,0.01121521,0.00717163,-0.99678040,0.000000,0.183105,0.000000
5631036458,0.01278687,0.00636292,-0.99763489,-0.122070,0.122070,0.000000
5641148250,0.01304626,0.00546265,-0.99865723,-0.061035,0.244141,0.000000
5650793041,0.01223755,0.00244141,-0.99649048,-0.061035,0.244141,0.000000
5653341875,0.01223755,0.00244141,-0.99649048,0.000000,0.122070,-0.061035
5661065666,0.01249695,0.00048828,-0.99763489,0.000000,0.122070,-0.061035
5663610541,0.01249695,0.00048828,-0.99763489,0.122070,0.183105,-0.183105
5671198500,0.01211548,0.00067139,-0.99690247,0.000000,0.122070,-0.122070
5681007416,0.01191711,0.00070190,-0.99656677,0.000000,0.122070,-0.122070
5683550000,0.01191711,0.00070190,-0.99656677,0.061035,0.122070,-0.183105
5691166833,0.01155090,0.00276184,-0.99629211,0.183105,0.061035,-0.183105
5701239041,0.01034546,0.00473022,-0.99638367,0.122070,0.122070,-0.122070
5711398916,0.01002502,0.00645447,-0.99726868,0.183105,0.122070,-0.122070
5721528208,0.01086426,0.00880432,-0.99674988,0.183105,0.061035,-0.122070
5731673875,0.01100159,0.01141357,-0.99771118,0.000000,0.183105,0.122070
5741804875,0.01225281,0.01208496,-0.99789429,-0.061035,0.122070,-0.061035
5751932375,0.01232910,0.01054382,-0.99855042,-0.183105,-1.464844,-0.061035
5762098000,0.01353455,0.00885010,-0.98400879,-0.610352,0.549316,0.000000
5772235750,0.01210022,0.00378418,-1.01000977,0.183105,0.183105,0.000000
5782393416,0.01371765,0.00241089,-1.00297546,-0.061035,0.244141,0.061035
5792187125,0.01214600,0.00196838,-0.99224854,0.183105,0.122070,-0.061035
5802325666,0.01071167,0.00032043,-0.99598694,0.122070,0.244141,-0.122070
5812448666,0.00982666,0.00077820,-0.99821472,-0.061035,0.244141,0.000000
5822578333,0.01016235,0.00189209,-0.99479675,0.122070,-0.061035,-0.183105
5830184000,0.01106262,0.00166321,-0.99737549,0.122070,-0.061035,-0.183105
5832725208,0.01106262,0.00166321,-0.99737549,-0.244141,0.000000,-0.122070
5842462708,0.01119995,0.00477600,-0.99552917,0.305176,0.244141,-0.122070
5852626375,0.01173401,0.00666809,-0.99887085,0.183105,0.183105,-0.122070
5860222166,0.01115417,0.00903320,-0.99472046,0.183105,0.183105,-0.122070
5862758541,0.01115417,0.00903320,-0.99472046,0.122070,0.244141,-0.061035
5870359458,0.01109314,0.00997925,-0.99728394,0.122070,0.244141,-0.061035
5872896916,0.01109314,0.00997925,-0.99728394,-0.061035,0.000000,-0.183105
5882602458,0.01203918,0.00985718,-0.99826050,0.000000,0.244141,-0.122070
5892502250,0.01248169,0.00942993,-0.99763489,0.000000,0.183105,-0.061035
5902659708,0.01296997,0.00558472,-0.99826050,-0.061035,0.244141,0.061035
5910274708,0.01194763,0.00331116,-0.99609375,-0.061035,0.244141,0.061035
5912817041,0.01194763,0.00331116,-0.99609375,0.244141,0.183105,-0.061035
5920437750,0.01278687,0.00207520,-0.99710083,0.244141,0.183105,-0.061035
5922997041,0.01278687,0.00207520,-0.99710083,0.000000,0.183105,-0.244141
5930603875,0.01345825,0.00125122,-0.99658203,0.000000,0.183105,-0.244141
5933149666,0.01345825,0.00125122,-0.99658203,0.061035,0.244141,-0.122070
5940753750,0.01286316,0.00103760,-0.99684143,0.061035,0.244141,-0.122070
5942978416,0.01286316,0.00103760,-0.99684143,0.122070,0.244141,-0.244141
5950563333,0.01268005,0.00218201,-0.99659729,0.122070,0.244141,-0.244141
5953101541,0.01268005,0.00218201,-0.99659729,0.122070,0.122070,0.000000
5960389083,0.01165771,0.00401306,-0.99684143,0.122070,0.122070,0.000000
5962938166,0.01165771,0.00401306,-0.99684143,0.183105,0.183105,-0.061035
5970533083,0.01127625,0.00479126,-0.99742126,0.183105,0.183105,-0.061035
5973083750,0.01127625,0.00479126,-0.99742126,0.061035,0.244141,-0.183105
5980676291,0.01133728,0.00633240,-0.99641418,0.061035,0.244141,-0.183105
5983212000,0.01133728,0.00633240,-0.99641418,0.122070,0.061035,-0.061035
5990807166,0.01129150,0.00703430,-0.99700928,0.122070,0.061035,-0.061035
5992922750,0.01129150,0.00703430,-0.99700928,0.061035,0.183105,-0.061035
6000506458,0.01170349,0.00750732,-0.99620056,0.061035,0.183105,-0.061035
6003053208,0.01170349,0.00750732,-0.99620056,0.183105,0.366211,0.122070
6010664833,0.01112366,0.00688171,-0.99713135,0.183105,0.366211,0.122070
6013212250,0.01112366,0.00688171,-0.99713135,0.000000,0.183105,0.000000
6020386333,0.01106262,0.00582886,-0.99607849,0.000000,0.183105,0.000000
6022923583,0.01106262,0.00582886,-0.99607849,0.061035,0.122070,0.000000
6030521875,0.01222229,0.00532532,-0.99645996,0.061035,0.122070,0.000000
6033077083,0.01222229,0.00532532,-0.99645996,-0.061035,0.061035,-0.122070
6040391500,0.01348877,0.00370789,-0.99700928,-0.061035,0.061035,-0.122070
6042929500,0.01348877,0.00370789,-0.99700928,0.000000,0.244141,-0.061035
6050523375,0.01365662,0.00231934,-0.99722290,0.000000,0.244141,-0.061035
6052613625,0.01365662,0.00231934,-0.99722290,0.122070,0.122070,-0.122070
6062753333,0.01216125,0.00312805,-0.99591064,0.122070,0.244141,-0.061035
6070371708,0.01213074,0.00305176,-0.99700928,0.122070,0.244141,-0.061035
6072913750,0.01213074,0.00305176,-0.99700928,0.183105,0.244141,-0.061035
6082782458,0.01147461,0.00439453,-0.99678040,0.000000,0.061035,-0.183105
6092915083,0.01170349,0.00497437,-0.99658203,0.000000,0.122070,-0.122070
6100514958,0.01147461,0.00569153,-0.99641418,0.000000,0.122070,-0.122070
6103080291,0.01147461,0.00569153,-0.99641418,0.122070,0.122070,-0.122070
6110679208,0.01197815,0.00529480,-0.99763489,0.122070,0.122070,-0.122070
6113223458,0.01197815,0.00529480,-0.99763489,-0.061035,0.183105,-0.122070
6120819291,0.01203918,0.00567627,-0.99739075,-0.061035,0.183105,-0.122070
6123359708,0.01203918,0.00567627,-0.99739075,0.122070,0.122070,-0.183105
6130958041,0.01264954,0.00508118,-0.99771118,0.122070,0.122070,-0.183105
6133501208,0.01264954,0.00508118,-0.99771118,0.000000,0.061035,-0.061035
6141103291,0.01271057,0.00500488,-0.99705505,0.000000,0.061035,-0.061035
6143656500,0.01271057,0.00500488,-0.99705505,-0.061035,0.061035,-0.061035
6151248500,0.01170349,0.00535583,-0.99725342,-0.061035,0.061035,-0.061035
6153787125,0.01170349,0.00535583,-0.99725342,0.000000,0.122070,-0.122070
6160892000,0.01210022,0.00454712,-0.99679565,0.000000,0.122070,-0.122070
6163436375,0.01210022,0.00454712,-0.99679565,0.000000,0.122070,-0.061035
6171026416,0.01364136,0.00421143,-0.99682617,0.000000,0.122070,-0.061035
6173569958,0.01364136,0.00421143,-0.99682617,0.000000,0.183105,-0.183105
6181165708,0.01441956,0.00350952,-0.99792480,0.000000,0.183105,-0.183105
6183704000,0.01441956,0.00350952,-0.99792480,0.122070,0.244141,-0.122070
6191286833,0.01446533,0.00321960,-0.99778748,0.122070,0.244141,-0.122070
6193825208,0.01446533,0.00321960,-0.99778748,0.061035,0.244141,-0.061035
6201438916,0.01245117,0.00260925,-0.99649048,0.061035,0.244141,-0.061035
6203987500,0.01245117,0.00260925,-0.99649048,0.122070,0.244141,-0.183105
6211583250,0.01206970,0.00343323,-0.99818420,0.122070,0.244141,-0.183105
6214144125,0.01206970,0.00343323,-0.99818420,0.183105,0.183105,-0.183105
6221766875,0.01139832,0.00337219,-0.99613953,0.183105,0.183105,-0.183105
6224314083,0.01139832,0.00337219,-0.99613953,-0.061035,0.122070,-0.244141
6231922916,0.01200867,0.00321960,-0.99743652,-0.061035,0.122070,-0.244141
6234498000,0.01200867,0.00321960,-0.99743652,0.122070,0.244141,-0.061035
6242111708,0.01181030,0.00373840,-0.99745178,0.122070,0.244141,-0.061035
6244661000,0.01181030,0.00373840,-0.99745178,0.061035,0.122070,-0.122070
6252271750,0.01208496,0.00439453,-0.99763489,0.061035,0.183105,-0.122070
6262406208,0.01112366,0.00538635,-0.99682617,-0.061035,0.183105,-0.244141
6272529916,0.01190186,0.00666809,-0.99761963,0.122070,0.000000,-0.122070
6282700416,0.01278687,0.00584412,-0.99809265,0.061035,0.244141,-0.122070
6292840583,0.01284790,0.00691223,-0.99645996,0.183105,0.061035,-0.061035
6302974500,0.01271057,0.00753784,-0.99743652,0.122070,0.183105,-0.061035
6313098458,0.01181030,0.00714111,-0.99784851,0.183105,0.244141,0.000000
6322783666,0.01234436,0.00685120,-0.99606323,0.122070,0.244141,-0.122070
6332955166,0.01271057,0.00553894,-0.99606323,0.244141,0.183105,-0.061035
6343071666,0.01098633,0.00454712,-0.99221802,0.366211,-0.244141,-0.122070
6353221916,0.01133728,0.00256348,-1.00006104,-0.061035,0.061035,-0.061035
6363400791,0.01193237,0.00155640,-0.99647522,0.000000,0.122070,-0.122070
6371062333,0.01255798,0.00250244,-1.00161743,0.000000,0.122070,-0.122070
6373610666,0.01255798,0.00250244,-1.00161743,0.000000,0.122070,-0.122070
6383683250,0.01316833,0.00527954,-0.99662781,0.000000,0.000000,-0.061035
6391032000,0.01261902,0.00842285,-0.99745178,0.000000,0.000000,-0.061035
6393576208,0.01261902,0.00842285,-0.99745178,0.000000,0.183105,0.000000
6403319291,0.01263428,0.01031494,-0.99499512,0.000000,0.183105,-0.061035
6413164708,0.01239014,0.00987244,-0.99752808,-0.061035,0.000000,0.000000
6423259541,0.01091003,0.00694275,-0.99440002,0.183105,0.122070,-0.122070
6433344875,0.01080322,0.00416565,-0.99697876,0.061035,0.244141,-0.061035
6443441625,0.01185608,0.00238037,-0.99790955,0.000000,0.183105,0.000000
6453323958,0.01296997,0.00144958,-0.99722290,0.061035,0.122070,-0.183105
6463460958,0.01319885,-0.00024414,-0.99726868,0.000000,0.122070,-0.183105
6473588625,0.01391602,-0.00006104,-0.99841309,0.122070,0.122070,-0.122070
6483722833,0.01385498,0.00233459,-0.99839783,0.061035,0.122070,-0.061035
6491344458,0.01263428,0.00419617,-0.99668884,0.061035,0.122070,-0.061035
6493904708,0.01263428,0.00419617,-0.99668884,0.000000,0.122070,-0.122070
6501544916,0.01156616,0.00482178,-0.99644470,0.000000,0.122070,-0.122070
6504095541,0.01156616,0.00482178,-0.99644470,0.061035,0.122070,-0.244141
6511728750,0.01042175,0.00578308,-0.99726868,0.061035,0.122070,-0.244141
6514292000,0.01042175,0.00578308,-0.99726868,0.000000,0.000000,-0.061035
6521901958,0.00962830,0.00642395,-0.99732971,0.000000,0.000000,-0.061035
6524449583,0.00962830,0.00642395,-0.99732971,-0.061035,0.183105,-0.061035
6532050083,0.00962830,0.00648499,-0.99726868,-0.061035,0.183105,-0.061035
6534597000,0.00962830,0.00648499,-0.99726868,0.122070,-0.061035,-0.061035
6541737416,0.01142883,0.00769043,-0.99717712,0.122070,-0.061035,-0.061035
6544183791,0.01142883,0.00769043,-0.99717712,-0.061035,0.122070,-0.061035
6551807875,0.01133728,0.00779724,-0.99781799,-0.061035,0.122070,-0.061035
6554347208,0.01133728,0.00779724,-0.99781799,-0.122070,0.122070,0.000000
6561600000,0.01275635,0.00691223,-0.99659729,-0.122070,0.122070,0.000000
6563953333,0.01275635,0.00691223,-0.99659729,0.122070,0.061035,-0.183105
6571576333,0.01325989,0.00614929,-0.99736023,0.122070,0.061035,-0.183105
6573736458,0.01325989,0.00614929,-0.99736023,-0.061035,0.183105,-0.061035
6583869708,0.01350403,0.00523376,-0.99781799,-0.061035,0.183105,-0.061035
6594009208,0.01371765,0.00430298,-0.99775696,0.000000,0.305176,-0.061035
6601652250,0.01278687,0.00457764,-0.99760437,0.000000,0.305176,-0.061035
6604188541,0.01278687,0.00457764,-0.99760437,0.000000,0.061035,-0.061035
6611811333,0.01237488,0.00485229,-0.99632263,0.000000,0.061035,-0.061035
6614364750,0.01237488,0.00485229,-0.99632263,0.000000,0.122070,-0.061035
6621723791,0.01126099,0.00422668,-0.99783325,0.000000,0.122070,-0.061035
6624273708,0.01126099,0.00422668,-0.99783325,-0.061035,0.122070,-0.183105
6634424916,0.01045227,0.00517273,-0.99653625,0.000000,0.122070,-0.061035
6644552791,0.01138306,0.00453186,-0.99775696,0.061035,0.244141,-0.061035
6652149208,0.01283264,0.00453186,-0.99699402,0.061035,0.244141,-0.061035
6654688750,0.01283264,0.00453186,-0.99699402,0.000000,-0.061035,-0.183105
6664204000,0.01292419,0.00509644,-0.99719238,0.061035,0.183105,0.000000
6674303291,0.01315308,0.00529480,-0.99649048,0.000000,0.122070,-0.122070
6684408958,0.01257324,0.00526428,-0.99725342,0.061035,0.061035,-0.183105
6694516291,0.01223755,0.00433350,-0.99684143,0.061035,0.000000,-0.061035
6702128708,0.01260376,0.00534058,-0.99763489,0.061035,0.000000,-0.061035
6704668666,0.01260376,0.00534058,-0.99763489,0.000000,0.000000,-0.122070
6712262250,0.01126099,0.00559998,-0.99760437,0.000000,0.000000,-0.122070
6714811125,0.01126099,0.00559998,-0.99760437,0.061035,0.305176,-0.183105
6724695625,0.01199341,0.00643921,-0.99798584,0.122070,0.122070,-0.061035
6732360583,0.01156616,0.00596619,-0.99644470,0.122070,0.122070,-0.061035
6734955333,0.01156616,0.00596619,-0.99644470,0.000000,0.061035,-0.061035
6742539083,0.01119995,0.00573730,-0.99613953,0.000000,0.061035,-0.061035
6745079333,0.01119995,0.00573730,-0.99613953,0.183105,0.061035,-0.122070
6752666500,0.01292419,0.00582886,-0.99598694,0.183105,0.061035,-0.122070
6755215458,0.01292419,0.00582886,-0.99598694,0.122070,0.122070,-0.122070
6762849291,0.01313782,0.00480652,-0.99746704,0.122070,0.122070,-0.122070
6765427083,0.01313782,0.00480652,-0.99746704,0.061035,0.183105,0.000000
6772984833,0.01202393,0.00485229,-0.99699402,0.061035,0.183105,0.000000
6775565708,0.01202393,0.00485229,-0.99699402,0.122070,0.244141,0.000000
6783240000,0.01144409,0.00482178,-0.99806213,0.061035,0.000000,-0.122070
6793764041,0.01258850,0.00361633,-0.99681091,0.061035,0.183105,-0.061035
6803059958,0.01342773,0.00302124,-0.99674988,0.061035,0.183105,-0.061035
6805617666,0.01342773,0.00302124,-0.99674988,0.061035,0.061035,-0.122070
6813257208,0.01268005,0.00450134,-0.99497986,0.061035,0.061035,-0.122070
6815835750,0.01268005,0.00450134,-0.99497986,0.183105,0.000000,-0.061035
6823632291,0.01168823,0.00497437,-0.99726868,0.183105,0.122070,-0.122070
6832846125,0.01278687,0.00553894,-0.99641418,0.183105,0.122070,-0.122070
6835439875,0.01278687,0.00553894,-0.99641418,0.000000,0.061035,-0.122070
6842817083,0.01249695,0.00636292,-0.99586487,0.000000,0.061035,-0.122070
6845458958,0.01249695,0.00636292,-0.99586487,0.244141,0.183105,-0.061035
6852629500,0.01200867,0.00578308,-0.99600220,0.244141,0.183105,-0.061035
6855424666,0.01200867,0.00578308,-0.99600220,0.183105,0.183105,-0.183105
6873510458,0.01283264,0.00587463,-0.99533081,0.183105,0.183105,-0.183105
6876181750,0.01341248,0.00460815,-0.99612427,0.122070,0.244141,-0.183105
6876199000,0.01341248,0.00460815,-0.99612427,0.244141,0.244141,-0.122070
6883775791,0.01350403,0.00302124,-0.99664307,0.122070,0.061035,-0.183105
6893843958,0.01336670,0.00384521,-0.99656677,0.183105,0.061035,-0.122070
6903987583,0.01239014,0.00473022,-0.99826050,0.183105,0.183105,-0.061035
6914373666,0.01126099,0.00686646,-0.99662781,0.061035,0.122070,0.000000
6924556041,0.00917053,0.00773621,-0.99626160,0.122070,0.122070,-0.183105
6934688708,0.00967407,0.00863647,-0.99607849,0.061035,0.183105,-0.061035
6944569208,0.01010132,0.00790405,-0.99804688,0.183105,0.244141,-0.061035
6953087958,0.01004028,0.00849915,-0.99641418,0.183105,0.244141,-0.061035
6955509916,0.01004028,0.00849915,-0.99641418,-0.061035,0.122070,0.000000
6963662333,0.01083374,0.00810242,-0.99705505,-0.061035,0.122070,0.000000
6966615791,0.01083374,0.00810242,-0.99705505,0.061035,0.244141,0.122070
6974274791,0.01159668,0.00624084,-0.99748230,-0.122070,0.244141,-0.122070
6984457333,0.01219177,0.00451660,-0.99771118,0.061035,0.061035,-0.122070
6994642833,0.01322937,0.00384521,-0.99665833,0.122070,0.183105,-0.122070
7004139666,0.01309204,0.00204468,-0.99555969,0.244141,0.183105,-0.061035
7014672875,0.01284790,0.00070190,-0.99487305,0.183105,0.305176,-0.061035
7024829666,0.01376343,-0.00117493,-0.99465942,0.244141,0.183105,-0.183105
7035095666,0.01303101,-0.00183105,-0.99781799,0.122070,0.244141,-0.183105
7042759750,0.01228333,-0.00028992,-0.99534607,0.122070,0.244141,-0.183105
7045332666,0.01228333,-0.00028992,-0.99534607,0.122070,0.061035,-0.122070
7052931458,0.01248169,0.00289917,-0.99777222,0.122070,0.061035,-0.122070
7055486000,0.01248169,0.00289917,-0.99777222,0.122070,0.244141,-0.183105
7063082375,0.01278687,0.00416565,-0.99659729,0.122070,0.244141,-0.183105
7065439166,0.01278687,0.00416565,-0.99659729,0.061035,0.244141,-0.244141
7075609291,0.01156616,0.00659180,-0.99694824,0.122070,0.183105,-0.061035
7085451833,0.01208496,0.00796509,-0.99649048,0.122070,0.183105,-0.183105
7093098208,0.01313782,0.00791931,-0.99710083,0.122070,0.183105,-0.183105
7095637416,0.01313782,0.00791931,-0.99710083,0.061035,0.305176,-0.122070
7103192750,0.01246643,0.00909424,-0.99705505,0.061035,0.305176,-0.122070
7105747750,0.01246643,0.00909424,-0.99705505,0.061035,0.122070,-0.061035
7113340166,0.01153564,0.00729370,-0.99711609,0.061035,0.122070,-0.061035
7115879000,0.01153564,0.00729370,-0.99711609,0.000000,0.122070,-0.122070
7123469750,0.01116943,0.00660706,-0.99818420,0.000000,0.122070,-0.122070
7126020333,0.01116943,0.00660706,-0.99818420,0.183105,0.000000,-0.122070
7133613791,0.01124573,0.00611877,-0.99775696,0.183105,0.000000,-0.122070
7136153958,0.01124573,0.00611877,-0.99775696,0.122070,0.061035,-0.122070
7143763291,0.01135254,0.00485229,-0.99642944,0.122070,0.061035,-0.122070
7146323000,0.01135254,0.00485229,-0.99642944,0.244141,0.183105,-0.061035
7153908083,0.01121521,0.00517273,-0.99546814,0.244141,0.183105,-0.061035
7156471833,0.01121521,0.00517273,-0.99546814,0.000000,0.183105,-0.122070
7164117291,0.01269531,0.00508118,-0.99641418,0.122070,0.183105,0.000000
7174277625,0.01271057,0.00482178,-0.99877930,0.061035,0.244141,-0.061035
7184393375,0.01307678,0.00454712,-0.99583435,0.061035,0.122070,-0.061035
7194539000,0.01300049,0.00387573,-0.99580383,0.183105,0.183105,0.000000
7204705625,0.01292419,0.00286865,-0.99610901,0.061035,0.305176,-0.122070
7214860083,0.01188660,0.00305176,-0.99731445,0.122070,0.183105,0.000000
7225005666,0.01153564,0.00360107,-0.99600220,0.061035,0.183105,-0.122070
7234783333,0.01196289,0.00450134,-0.99717712,0.183105,0.305176,-0.183105
7244558583,0.01182556,0.00462341,-0.99731445,0.183105,0.244141,-0.061035
7254747500,0.01263428,0.00546265,-0.99684143,0.061035,0.122070,-0.122070
7264886083,0.01100159,0.00605774,-0.99757385,0.000000,0.183105,0.000000
7274724166,0.01136780,0.00556946,-0.99693298,0.061035,0.061035,-0.122070
7284902541,0.01228333,0.00604248,-0.99632263,0.061035,0.061035,-0.122070
7295050333,0.01213074,0.00555420,-0.99758911,0.183105,0.061035,-0.061035
7305191208,0.01257324,0.00585938,-0.99713135,0.183105,0.244141,-0.061035
7315076708,0.01219177,0.00422668,-0.99659729,0.061035,0.061035,-0.061035
7325219666,0.01161194,0.00401306,-0.99638367,0.061035,0.244141,-0.183105
7335368500,0.01121521,0.00250244,-0.99703979,0.061035,0.122070,-0.183105
7345511208,0.01164246,0.00218201,-0.99586487,0.061035,0.122070,-0.122070
7355650166,0.01231384,0.00262451,-0.99806213,0.000000,0.122070,-0.122070
7365604291,0.01269531,0.00393677,-0.99739075,0.061035,0.061035,-0.061035
7375764208,0.01325989,0.00447083,-0.99678040,0.061035,0.183105,-0.122070
7383378625,0.01348877,0.00517273,-0.99664307,0.061035,0.183105,-0.122070
7385925166,0.01348877,0.00517273,-0.99664307,0.183105,0.122070,0.000000
7393528958,0.01240540,0.00680542,-0.99670410,0.183105,0.122070,0.000000
7396068583,0.01240540,0.00680542,-0.99670410,0.183105,0.183105,-0.183105
7403691208,0.01220703,0.00747681,-0.99697876,0.183105,0.183105,-0.183105
7406235708,0.01220703,0.00747681,-0.99697876,0.000000,0.122070,-0.183105
7413846458,0.01243591,0.00648499,-0.99737549,0.000000,0.122070,-0.183105
7416392208,0.01243591,0.00648499,-0.99737549,0.000000,0.183105,-0.061035
7424008750,0.01199341,0.00613403,-0.99786377,0.000000,0.183105,-0.061035
7426550333,0.01199341,0.00613403,-0.99786377,0.061035,0.183105,-0.183105
7434162125,0.01142883,0.00503540,-0.99760437,0.061035,0.183105,-0.183105
7436711583,0.01142883,0.00503540,-0.99760437,-0.061035,0.061035,-0.061035
7444315041,0.01156616,0.00411987,-0.99670410,-0.061035,0.061035,-0.061035
7446857625,0.01156616,0.00411987,-0.99670410,0.122070,0.305176,-0.183105
7454458750,0.01248169,0.00346375,-0.99761963,0.122070,0.305176,-0.183105
7456999541,0.01248169,0.00346375,-0.99761963,0.000000,0.183105,-0.061035
7464316333,0.01254272,0.00296021,-0.99736023,0.000000,0.183105,-0.061035
7466859708,0.01254272,0.00296021,-0.99736023,0.244141,0.183105,-0.122070
7474494083,0.01225281,0.00274658,-0.99751282,0.244141,0.183105,-0.122070
7477039833,0.01225281,0.00274658,-0.99751282,0.061035,0.183105,-0.244141
7484162500,0.01184082,0.00268555,-0.99694824,0.061035,0.183105,-0.244141
7486759000,0.01184082,0.00268555,-0.99694824,0.061035,0.000000,-0.122070
7494347708,0.01185608,0.00372314,-0.99679565,0.061035,0.000000,-0.122070
7496436583,0.01185608,0.00372314,-0.99679565,-0.061035,0.000000,-0.122070
7506554291,0.01185608,0.00328064,-0.99737549,0.122070,0.122070,-0.183105
7514136375,0.01229858,0.00323486,-0.99819946,0.122070,0.122070,-0.183105
7516679708,0.01229858,0.00323486,-0.99819946,0.000000,0.244141,-0.061035
7524240666,0.01219177,0.00332642,-0.99578857,0.000000,0.244141,-0.061035
7526766375,0.01219177,0.00332642,-0.99578857,0.122070,0.122070,-0.122070
7534330291,0.01095581,0.00386047,-0.99664307,0.122070,0.122070,-0.122070
7536860333,0.01095581,0.00386047,-0.99664307,0.122070,0.183105,-0.244141
7544154458,0.01139832,0.00485229,-0.99707031,0.122070,0.183105,-0.244141
7546694041,0.01139832,0.00485229,-0.99707031,0.000000,0.000000,-0.183105
7556560583,0.01174927,0.00471497,-0.99702454,0.000000,0.183105,-0.122070
7566250791,0.01158142,0.00473022,-0.99723816,0.061035,0.183105,-0.244141
7576393291,0.01251221,0.00483704,-0.99786377,0.000000,0.183105,-0.122070
7586517458,0.01296997,0.00495911,-0.99710083,0.000000,0.183105,-0.061035
7596549500,0.01321411,0.00486755,-0.99635315,0.061035,0.244141,-0.122070
7604158250,0.01203918,0.00433350,-0.99658203,0.061035,0.244141,-0.122070
7606700583,0.01203918,0.00433350,-0.99658203,0.122070,0.183105,0.000000
7614289875,0.01232910,0.00523376,-0.99748230,0.122070,0.183105,0.000000
7616834708,0.01232910,0.00523376,-0.99748230,0.000000,0.183105,-0.061035
7624177208,0.01188660,0.00616455,-0.99760437,0.000000,0.183105,-0.061035
7626737583,0.01188660,0.00616455,-0.99760437,0.061035,0.244141,0.000000
7634332666,0.01217651,0.00582886,-0.99719238,0.061035,0.244141,0.000000
7636937875,0.01217651,0.00582886,-0.99719238,0.061035,0.122070,-0.122070
7644365083,0.01205444,0.00657654,-0.99583435,0.061035,0.122070,-0.122070
7646899666,0.01205444,0.00657654,-0.99583435,0.244141,0.061035,-0.061035
7654487958,0.01177979,0.00698853,-0.99766541,0.244141,0.061035,-0.061035
7657030541,0.01177979,0.00698853,-0.99766541,0.061035,0.183105,-0.122070
7664609208,0.01200867,0.00622559,-0.99743652,0.061035,0.183105,-0.122070
7667145541,0.01200867,0.00622559,-0.99743652,0.000000,0.122070,-0.061035
7674733916,0.01191711,0.00572205,-0.99749756,0.000000,0.122070,-0.061035
7677278458,0.01191711,0.00572205,-0.99749756,0.061035,0.183105,-0.061035
7684875875,0.01237488,0.00433350,-0.99659729,0.061035,0.183105,-0.061035
7687418083,0.01237488,0.00433350,-0.99659729,0.061035,0.061035,0.061035
7695013083,0.01185608,0.00279236,-0.99687195,0.061035,0.061035,0.061035
7697556750,0.01185608,0.00279236,-0.99687195,0.122070,0.183105,-0.061035
7705146541,0.01168823,0.00315857,-0.99613953,0.122070,0.183105,-0.061035
7707696125,0.01168823,0.00315857,-0.99613953,0.122070,0.122070,-0.244141
7715295416,0.01283264,0.00273132,-0.99647522,0.122070,0.122070,-0.244141
7717836208,0.01283264,0.00273132,-0.99647522,0.244141,0.183105,-0.061035
7725767250,0.01252747,0.00270081,-0.99722290,0.061035,0.183105,-0.122070
7735907250,0.01231384,0.00434875,-0.99803162,0.122070,0.183105,-0.122070
7746036333,0.01249695,0.00454712,-0.99722290,0.061035,0.183105,-0.122070
7756161416,0.01219177,0.00468445,-0.99627686,0.122070,0.244141,-0.183105
7765914916,0.01206970,0.00509644,-0.99720764,0.122070,0.122070,-0.122070
7776034000,0.01086426,0.00624084,-0.99693298,0.061035,0.122070,-0.061035
7786172333,0.01104736,0.00587463,-0.99710083,0.061035,0.183105,-0.061035
7796330125,0.01258850,0.00659180,-0.99624634,0.122070,0.122070,-0.122070
7806488958,0.01217651,0.00514221,-0.99697876,0.183105,0.183105,-0.061035
7816159333,0.01188660,0.00460815,-0.99794006,0.183105,0.183105,-0.061035
7826286166,0.01179504,0.00584412,-0.99670410,0.000000,0.061035,0.061035
7836407125,0.01179504,0.00486755,-0.99665833,-0.061035,0.183105,-0.122070
7846526958,0.01138306,0.00572205,-0.99678040,0.061035,0.183105,0.000000
7856261458,0.01202393,0.00503540,-0.99620056,0.000000,0.183105,-0.122070
7866384375,0.01368713,0.00521851,-0.99751282,0.000000,0.061035,0.000000
7876520583,0.01234436,0.00527954,-0.99684143,0.061035,0.122070,-0.122070
7885794833,0.01261902,0.00477600,-0.99739075,0.061035,0.122070,-0.122070
7888352666,0.01261902,0.00477600,-0.99739075,0.122070,0.122070,0.061035
7895952500,0.01257324,0.00364685,-0.99638367,0.061035,0.122070,-0.122070
7906136291,0.01129150,0.00305176,-0.99726868,0.061035,0.183105,-0.061035
7916255833,0.01208496,0.00303650,-0.99766541,0.183105,0.244141,-0.183105
7926375708,0.01132202,0.00306702,-0.99961853,0.061035,0.183105,-0.061035
7936494083,0.01087952,0.00201416,-0.99647522,0.122070,0.244141,-0.122070
7946242875,0.01127625,0.00291443,-0.99707031,0.061035,0.244141,-0.061035
7956368458,0.01187134,0.00444031,-0.99758911,-0.061035,0.183105,-0.061035
7966504375,0.01307678,0.00473022,-0.99732971,0.122070,0.183105,-0.122070
7976619250,0.01226807,0.00607300,-0.99870300,0.061035,0.122070,-0.061035
7986752458,0.01110840,0.00657654,-0.99615479,0.183105,0.244141,-0.061035
7996877125,0.01199341,0.00587463,-0.99728394,0.000000,0.122070,-0.061035
8006999416,0.01350403,0.00711060,-0.99748230,-0.061035,0.061035,-0.122070
8017111666,0.01329041,0.00634766,-0.99697876,-0.061035,0.122070,-0.061035
8026775000,0.01380920,0.00531006,-0.99665833,-0.061035,0.061035,-0.122070
8036926416,0.01303101,0.00509644,-0.99536133,0.000000,0.122070,-0.061035
8047053208,0.01263428,0.00477600,-0.99696350,0.000000,0.183105,-0.061035
8057194166,0.01200867,0.00431824,-0.99615479,0.122070,0.183105,-0.183105
8067018916,0.01118469,0.00439453,-0.99794006,0.000000,0.183105,-0.061035
8076884000,0.01119995,0.00437927,-0.99623108,0.000000,0.244141,-0.061035
8087000041,0.01130676,0.00428772,-0.99618530,0.000000,0.061035,-0.122070
8097136833,0.01133728,0.00413513,-0.99572754,0.000000,0.183105,-0.061035
8107279333,0.01264954,0.00404358,-0.99748230,-0.061035,0.061035,-0.061035
8117490375,0.01091003,0.00407410,-0.99806213,-0.061035,0.122070,0.000000
8125106958,0.01130676,0.00442505,-0.99800110,-0.061035,0.122070,0.000000
8127647333,0.01130676,0.00442505,-0.99800110,-0.061035,0.183105,-0.122070
8135246041,0.01173401,0.00442505,-0.99716187,-0.061035,0.183105,-0.122070
8137785958,0.01173401,0.00442505,-0.99716187,0.061035,0.122070,-0.122070
8145375291,0.01260376,0.00436401,-0.99629211,0.061035,0.122070,-0.122070
8147912250,0.01260376,0.00436401,-0.99629211,0.000000,0.122070,-0.061035
8155511500,0.01312256,0.00408936,-0.99694824,0.000000,0.122070,-0.061035
8158057791,0.01312256,0.00408936,-0.99694824,0.000000,0.183105,0.000000
8165663875,0.01371765,0.00399780,-0.99711609,0.000000,0.183105,0.000000
8168209833,0.01371765,0.00399780,-0.99711609,-0.122070,-0.061035,-0.122070
8175827666,0.01264954,0.00347900,-0.99656677,-0.122070,-0.061035,-0.122070
8178230541,0.01264954,0.00347900,-0.99656677,-0.061035,0.122070,-0.122070
8185838958,0.01235962,0.00448608,-0.99685669,-0.061035,0.122070,-0.122070
8188391583,0.01235962,0.00448608,-0.99685669,0.000000,0.061035,-0.305176
8195591416,0.01193237,0.00540161,-0.99617004,0.000000,0.061035,-0.305176
8198139666,0.01193237,0.00540161,-0.99617004,0.061035,0.122070,-0.122070
8205726541,0.01145935,0.00505066,-0.99713135,0.061035,0.122070,-0.122070
8208290416,0.01145935,0.00505066,-0.99713135,0.061035,0.183105,-0.061035
8215882791,0.01072693,0.00492859,-0.99612427,0.061035,0.183105,-0.061035
8218420958,0.01072693,0.00492859,-0.99612427,-0.061035,0.061035,-0.183105
8226011458,0.01022339,0.00424194,-0.99807739,-0.061035,0.061035,-0.183105
8228505166,0.01022339,0.00424194,-0.99807739,0.000000,0.122070,-0.183105
8236123958,0.01045227,0.00376892,-0.99658203,0.000000,0.122070,-0.183105
8238690791,0.01045227,0.00376892,-0.99658203,0.061035,0.122070,-0.061035
8246317916,0.01217651,0.00338745,-0.99711609,0.061035,0.122070,-0.061035
8248856791,0.01217651,0.00338745,-0.99711609,0.000000,0.183105,-0.183105
8256457125,0.01246643,0.00390625,-0.99688721,0.000000,0.183105,-0.183105
8259022208,0.01246643,0.00390625,-0.99688721,0.061035,0.244141,-0.061035
8266140833,0.01261902,0.00471497,-0.99787903,0.061035,0.244141,-0.061035
8268699250,0.01261902,0.00471497,-0.99787903,-0.061035,0.305176,-0.122070
8276318666,0.01306152,0.00460815,-0.99900818,-0.061035,0.305176,-0.122070
8278858458,0.01306152,0.00460815,-0.99900818,-0.061035,0.061035,-0.122070
8286454375,0.01205444,0.00479126,-0.99743652,-0.061035,0.061035,-0.122070
8288989208,0.01205444,0.00479126,-0.99743652,0.000000,0.244141,-0.183105
8296131625,0.01200867,0.00593567,-0.99642944,0.000000,0.244141,-0.183105
8298697708,0.01200867,0.00593567,-0.99642944,0.000000,-0.061035,-0.122070
8306289791,0.01284790,0.00492859,-0.99610901,0.000000,-0.061035,-0.122070
8308782208,0.01284790,0.00492859,-0.99610901,0.183105,0.305176,-0.061035
8316381958,0.01193237,0.00424194,-0.99716187,0.183105,0.305176,-0.061035
8318925875,0.01193237,0.00424194,-0.99716187,0.000000,0.183105,-0.061035
8326587208,0.01232910,0.00430298,-0.99635315,0.000000,0.183105,-0.061035
8329139000,0.01232910,0.00430298,-0.99635315,-0.061035,0.122070,-0.122070
8336765416,0.01118469,0.00459290,-0.99798584,-0.061035,0.122070,-0.122070
8339317791,0.01118469,0.00459290,-0.99798584,-0.122070,0.122070,-0.122070
8347013791,0.01095581,0.00491333,-0.99716187,-0.122070,0.122070,-0.122070
8349572041,0.01095581,0.00491333,-0.99716187,0.061035,0.183105,-0.061035
8357212708,0.01167297,0.00628662,-0.99581909,0.061035,0.122070,-0.183105
8367348166,0.01164246,0.00682068,-0.99758911,0.061035,0.183105,0.061035
8377486791,0.01089478,0.00636292,-0.99610901,-0.061035,0.061035,0.000000
8387646125,0.01049805,0.00480652,-0.99722290,0.000000,0.122070,-0.183105
8397796750,0.01104736,0.00415039,-0.99610901,-0.061035,0.244141,0.000000
8407936625,0.01136780,0.00297546,-0.99707031,0.000000,0.122070,-0.122070
8418073833,0.01298523,0.00311279,-0.99681091,0.000000,0.122070,0.000000
8428029541,0.01315308,0.00375366,-0.99633789,0.061035,0.061035,-0.122070
8438162291,0.01318359,0.00341797,-0.99693298,0.122070,0.061035,0.000000
8448038250,0.01240540,0.00428772,-0.99653625,0.000000,0.122070,-0.061035
8458173125,0.01329041,0.00473022,-0.99676514,0.000000,0.122070,-0.183105
8468300833,0.01300049,0.00473022,-0.99699402,0.061035,0.061035,-0.122070
8477744208,0.01271057,0.00474548,-0.99737549,0.000000,0.000000,-0.122070
8487869458,0.01216125,0.00669861,-0.99618530,0.183105,0.122070,-0.061035
8498002000,0.01225281,0.00584412,-0.99725342,0.061035,0.244141,-0.183105
8508116541,0.01101685,0.00433350,-0.99671936,0.122070,0.183105,-0.122070
8518111250,0.01165771,0.00494385,-0.99635315,0.000000,0.122070,-0.061035
8528233000,0.01074219,0.00416565,-0.99766541,0.061035,0.305176,0.000000
8538351291,0.01086426,0.00559998,-0.99710083,0.061035,0.183105,-0.061035
8548494583,0.01168823,0.00456238,-0.99739075,0.061035,0.183105,-0.244141
8558332833,0.01197815,0.00515747,-0.99676514,0.122070,0.244141,-0.061035
8568454250,0.01193237,0.00582886,-0.99690247,0.000000,0.122070,-0.122070
8578629041,0.01245117,0.00624084,-0.99624634,0.061035,0.183105,-0.183105
8586235500,0.01258850,0.00698853,-0.99594116,0.061035,0.183105,-0.183105
8588772958,0.01258850,0.00698853,-0.99594116,0.061035,0.183105,-0.122070
8596366000,0.01269531,0.00675964,-0.99645996,0.061035,0.183105,-0.122070
8598903708,0.01269531,0.00675964,-0.99645996,0.000000,0.183105,-0.061035
8606521166,0.01176453,0.00624084,-0.99668884,0.000000,0.183105,-0.061035
8609067625,0.01176453,0.00624084,-0.99668884,0.122070,0.366211,0.061035
8616659875,0.01106262,0.00617981,-0.99861145,0.122070,0.366211,0.061035
8619200500,0.01106262,0.00617981,-0.99861145,0.000000,0.122070,0.000000
8626780958,0.01168823,0.00549316,-0.99739075,0.000000,0.122070,0.000000
8629317333,0.01168823,0.00549316,-0.99739075,0.061035,0.305176,-0.122070
8636902541,0.01150513,0.00421143,-0.99627686,0.061035,0.305176,-0.122070
8639515166,0.01150513,0.00421143,-0.99627686,0.244141,0.183105,-0.122070
8647114250,0.01158142,0.00485229,-0.99398804,0.244141,0.183105,-0.122070
8649650833,0.01158142,0.00485229,-0.99398804,0.183105,0.122070,-0.183105
8657320666,0.01158142,0.00553894,-0.99838257,0.183105,0.122070,-0.183105
8659859541,0.01158142,0.00553894,-0.99838257,0.244141,0.183105,0.061035
8667464291,0.01135254,0.00494385,-0.99775696,0.244141,0.183105,0.061035
8669725625,0.01135254,0.00494385,-0.99775696,0.122070,0.244141,-0.061035
8677316708,0.01228333,0.00524902,-0.99809265,0.122070,0.244141,-0.061035
8679856583,0.01228333,0.00524902,-0.99809265,0.000000,0.366211,-0.061035
8687455458,0.01310730,0.00572205,-0.99864197,0.000000,0.366211,-0.061035
8689994958,0.01310730,0.00572205,-0.99864197,-0.061035,0.122070,-0.061035
8697576125,0.01187134,0.00505066,-0.99751282,-0.061035,0.122070,-0.061035
8700120291,0.01187134,0.00505066,-0.99751282,-0.061035,0.122070,-0.122070
8707745583,0.01258850,0.00373840,-0.99719238,-0.061035,0.122070,-0.122070
8710292041,0.01258850,0.00373840,-0.99719238,0.000000,0.122070,-0.183105
8717681875,0.01274109,0.00241089,-0.99533081,0.000000,0.122070,-0.183105
8720229666,0.01274109,0.00241089,-0.99533081,0.061035,0.183105,-0.061035
8727921416,0.01330566,0.00157166,-0.99617004,0.061035,0.183105,-0.061035
8730464750,0.01330566,0.00157166,-0.99617004,0.183105,0.183105,-0.183105
8738072833,0.01354980,0.00157166,-0.99595642,0.061035,0.183105,-0.244141
8748187041,0.01200867,0.00183105,-0.99517822,0.122070,0.122070,-0.122070
8758316625,0.01234436,0.00265503,-0.99784851,0.122070,0.122070,-0.122070
8768256458,0.01229858,0.00479126,-0.99790955,0.000000,0.244141,-0.061035
8778403791,0.01133728,0.00668335,-0.99877930,-0.061035,0.244141,-0.183105
8788549375,0.01051331,0.00775146,-0.99710083,0.122070,0.122070,-0.122070
8798678208,0.01144409,0.00932312,-0.99725342,0.061035,0.183105,-0.061035
8808799666,0.01142883,0.00956726,-0.99594116,0.122070,0.244141,-0.122070
8818915916,0.01046753,0.00773621,-0.99783325,-0.122070,0.122070,-0.061035
8829038666,0.01220703,0.00648499,-0.99691772,0.061035,0.244141,-0.122070
8839187083,0.01181030,0.00430298,-0.99743652,0.061035,0.183105,0.000000
8849363708,0.01271057,0.00265503,-0.99708557,0.122070,0.061035,-0.122070
8859490416,0.01304626,0.00177002,-0.99732971,-0.183105,0.244141,-0.183105
8869327500,0.01388550,0.00186157,-0.99588013,0.000000,0.244141,-0.122070
8879187625,0.01339722,0.00158691,-0.99604797,0.061035,0.183105,-0.061035
8888909541,0.01257324,0.00234985,-0.99678040,0.061035,0.122070,0.000000
8898564500,0.01234436,0.00296021,-0.99676514,0.244141,0.244141,0.000000
8908727958,0.01213074,0.00352478,-0.99731445,0.061035,0.305176,-0.122070
8918865750,0.01130676,0.00477600,-0.99687195,0.000000,0.244141,0.000000
8929007458,0.01054382,0.00521851,-0.99801636,0.000000,0.122070,-0.061035
8939153666,0.01089478,0.00726318,-0.99835205,0.122070,0.122070,-0.061035
8949290125,0.01179504,0.00761414,-0.99667358,0.061035,0.244141,-0.122070
8959407416,0.01258850,0.00752258,-0.99748230,0.122070,0.122070,-0.061035
8969577375,0.01301575,0.00636292,-0.99757385,0.183105,0.305176,-0.122070
8977184166,0.01206970,0.00457764,-0.99725342,0.183105,0.305176,-0.122070
8979721916,0.01206970,0.00457764,-0.99725342,0.000000,0.183105,-0.122070
8989511000,0.01173401,0.00411987,-0.99702454,0.000000,0.061035,-0.061035
8997127333,0.01184082,0.00363159,-0.99792480,0.000000,0.061035,-0.061035
8999684625,0.01184082,0.00363159,-0.99792480,0.061035,0.122070,-0.122070
9007304500,0.01184082,0.00334167,-0.99766541,0.061035,0.122070,-0.122070
9009843625,0.01184082,0.00334167,-0.99766541,0.122070,0.122070,-0.061035
9017432208,0.01152039,0.00283813,-0.99598694,0.122070,0.122070,-0.061035
9019969416,0.01152039,0.00283813,-0.99598694,-0.061035,0.305176,-0.061035
9027570833,0.01182556,0.00447083,-0.99678040,-0.061035,0.305176,-0.061035
9030118625,0.01182556,0.00447083,-0.99678040,0.000000,0.183105,-0.061035
9037712375,0.01144409,0.00460815,-0.99755859,0.000000,0.183105,-0.061035
9040255208,0.01144409,0.00460815,-0.99755859,0.183105,0.122070,-0.122070
9047837416,0.01191711,0.00465393,-0.99703979,0.183105,0.122070,-0.122070
9050378166,0.01191711,0.00465393,-0.99703979,0.122070,0.183105,-0.183105
9057985625,0.01184082,0.00587463,-0.99597168,0.122070,0.183105,-0.183105
9060065083,0.01184082,0.00587463,-0.99597168,0.061035,0.244141,-0.122070
9067676625,0.01159668,0.00651550,-0.99690247,0.061035,0.244141,-0.122070
9069742208,0.01159668,0.00651550,-0.99690247,0.183105,0.122070,-0.061035
9077360583,0.01144409,0.00657654,-0.99661255,0.183105,0.122070,-0.061035
9079899958,0.01144409,0.00657654,-0.99661255,0.183105,0.183105,0.000000
9087482916,0.01210022,0.00668335,-0.99613953,0.183105,0.183105,0.000000
9090034000,0.01210022,0.00668335,-0.99613953,0.061035,0.244141,-0.061035
9097636500,0.01231384,0.00598145,-0.99745178,0.061035,0.244141,-0.061035
9100170541,0.01231384,0.00598145,-0.99745178,0.122070,0.183105,-0.122070
9107757125,0.01197815,0.00584412,-0.99763489,0.122070,0.183105,-0.122070
9110293083,0.01197815,0.00584412,-0.99763489,-0.122070,0.183105,-0.061035
9117725791,0.01283264,0.00523376,-0.99725342,-0.122070,0.183105,-0.061035
9120279000,0.01283264,0.00523376,-0.99725342,0.122070,0.122070,-0.122070
9127871250,0.01153564,0.00437927,-0.99607849,0.122070,0.122070,-0.122070
9130411708,0.01153564,0.00437927,-0.99607849,0.061035,0.183105,-0.061035
9138005791,0.01100159,0.00424194,-0.99729919,0.061035,0.183105,-0.061035
9140544291,0.01100159,0.00424194,-0.99729919,0.122070,0.183105,-0.122070
9148132750,0.01242065,0.00375366,-0.99781799,0.122070,0.183105,-0.122070
9150683708,0.01242065,0.00375366,-0.99781799,0.122070,0.061035,-0.061035
9158285000,0.01213074,0.00434875,-0.99681091,0.122070,0.061035,-0.061035
9160388041,0.01213074,0.00434875,-0.99681091,0.183105,0.244141,-0.122070
9167997625,0.01147461,0.00346375,-0.99684143,0.183105,0.244141,-0.122070
9170544083,0.01147461,0.00346375,-0.99684143,0.000000,0.122070,0.000000
9178142500,0.01205444,0.00300598,-0.99630737,0.000000,0.122070,0.000000
9180695208,0.01205444,0.00300598,-0.99630737,0.061035,0.122070,-0.183105
9188291291,0.01091003,0.00404358,-0.99670410,0.061035,0.122070,-0.183105
9190826083,0.01091003,0.00404358,-0.99670410,0.061035,0.122070,-0.244141
9198276458,0.01110840,0.00665283,-0.99710083,0.061035,0.122070,-0.244141
9200819458,0.01110840,0.00665283,-0.99710083,0.122070,0.183105,-0.061035
9208117041,0.01159668,0.00682068,-0.99778748,0.122070,0.183105,-0.061035
9210680125,0.01159668,0.00682068,-0.99778748,0.061035,0.000000,-0.122070
9218281875,0.01126099,0.00662231,-0.99726868,0.061035,0.000000,-0.122070
9220819375,0.01126099,0.00662231,-0.99726868,0.122070,0.244141,-0.122070
9228029708,0.01164246,0.00631714,-0.99868774,0.122070,0.244141,-0.122070
9230573541,0.01164246,0.00631714,-0.99868774,0.122070,0.183105,-0.061035
9238167500,0.01110840,0.00559998,-0.99694824,0.122070,0.183105,-0.061035
9240402125,0.01110840,0.00559998,-0.99694824,0.000000,0.122070,-0.122070
9250570291,0.01170349,0.00527954,-0.99656677,0.122070,0.244141,-0.061035
9260304208,0.01301575,0.00588989,-0.99700928,0.061035,0.244141,0.000000
9270430333,0.01290894,0.00569153,-0.99621582,0.061035,0.061035,-0.122070
9280583791,0.01268005,0.00506592,-0.99682617,0.061035,0.244141,-0.183105
9288194041,0.01261902,0.00358582,-0.99667358,0.061035,0.244141,-0.183105
9290758666,0.01261902,0.00358582,-0.99667358,-0.061035,0.183105,-0.061035
9298344083,0.01281738,0.00311279,-0.99674988,-0.061035,0.183105,-0.061035
9300880583,0.01281738,0.00311279,-0.99674988,0.122070,0.122070,-0.183105
9308461750,0.01118469,0.00427246,-0.99693298,0.122070,0.122070,-0.183105
9310997541,0.01118469,0.00427246,-0.99693298,0.061035,0.122070,-0.122070
9318597000,0.01074219,0.00354004,-0.99645996,0.061035,0.122070,-0.122070
9321140291,0.01074219,0.00354004,-0.99645996,0.000000,0.122070,-0.122070
9328738041,0.01097107,0.00546265,-0.99719238,0.000000,0.122070,-0.122070
9331280333,0.01097107,0.00546265,-0.99719238,0.000000,0.122070,-0.061035
9338863583,0.01016235,0.00569153,-0.99713135,0.000000,0.122070,-0.061035
9341412208,0.01016235,0.00569153,-0.99713135,0.122070,0.122070,-0.122070
9349087250,0.01109314,0.00581360,-0.99722290,0.122070,0.122070,-0.122070
9351624083,0.01109314,0.00581360,-0.99722290,0.000000,0.183105,0.000000
9359239166,0.01235962,0.00573730,-0.99671936,0.122070,0.244141,-0.061035
9369370583,0.01348877,0.00654602,-0.99789429,0.061035,0.122070,-0.122070
9379520083,0.01254272,0.00489807,-0.99635315,-0.061035,0.183105,0.000000
9389667791,0.01123047,0.00366211,-0.99790955,0.061035,0.122070,0.000000
9399799666,0.01232910,0.00364685,-0.99626160,0.061035,0.061035,-0.183105
9409927000,0.01394653,0.00317383,-0.99606323,-0.061035,0.122070,0.000000
9420044833,0.01217651,0.00282288,-0.99681091,0.000000,0.000000,-0.183105
9430184458,0.01101685,0.00288391,-0.99732971,0.061035,0.122070,-0.061035
9440004375,0.01136780,0.00392151,-0.99752808,0.061035,0.183105,-0.122070
9450160875,0.01206970,0.00480652,-0.99751282,0.061035,0.122070,-0.061035
9460356041,0.01304626,0.00611877,-0.99665833,0.061035,0.244141,0.000000
9470488541,0.01240540,0.00537109,-0.99720764,0.061035,0.244141,-0.122070
9480614250,0.01121521,0.00692749,-0.99676514,0.122070,0.122070,-0.122070
9490743375,0.01118469,0.00570679,-0.99740601,0.000000,0.183105,-0.061035
9498348333,0.01210022,0.00619507,-0.99508667,0.000000,0.183105,-0.061035
9500425333,0.01210022,0.00619507,-0.99508667,0.061035,0.183105,-0.061035
9510317791,0.01193237,0.00656128,-0.99835205,0.183105,0.183105,-0.061035
9520426958,0.01203918,0.00486755,-0.99476624,0.061035,0.000000,-0.122070
9530554791,0.01159668,0.00349426,-0.99690247,0.000000,0.183105,-0.122070
9540434833,0.01316833,0.00354004,-0.99546814,0.122070,0.183105,-0.183105
9550486916,0.01228333,0.00308228,-0.99743652,0.061035,0.183105,-0.183105
9560242708,0.01223755,0.00303650,-0.99746704,0.000000,0.244141,-0.244141
9570064458,0.01315308,0.00280762,-0.99713135,0.000000,0.244141,-0.244141
9572611083,0.01315308,0.00280762,-0.99713135,0.244141,0.183105,0.000000
9580202000,0.01174927,0.00344849,-0.99696350,0.061035,0.183105,-0.183105
9590337500,0.01196289,0.00347900,-0.99699402,-0.122070,0.305176,-0.183105
9599961875,0.01100159,0.00466919,-0.99778748,-0.122070,0.305176,-0.183105
9602522000,0.01100159,0.00466919,-0.99778748,0.122070,0.244141,0.000000
9610142375,0.01004028,0.00569153,-0.99749756,0.122070,0.122070,-0.122070
9620306916,0.01098633,0.00561523,-0.99748230,0.000000,0.183105,-0.061035
9630436125,0.01237488,0.00622559,-0.99716187,-0.061035,0.183105,-0.122070
9640542666,0.01255798,0.00556946,-0.99674988,0.000000,0.183105,-0.183105
9650653083,0.01300049,0.00495911,-0.99632263,0.122070,0.122070,0.000000
9660793750,0.01248169,0.00483704,-0.99630737,0.183105,0.183105,0.061035
9670464708,0.01171875,0.00517273,-0.99630737,-0.061035,0.244141,-0.183105
9680268916,0.01251221,0.00450134,-0.99557495,0.061035,0.000000,-0.244141
9690398125,0.01231384,0.00434875,-0.99769592,0.000000,0.183105,-0.061035
9700524583,0.01261902,0.00343323,-0.99763489,0.122070,0.122070,0.000000
9710639333,0.01048279,0.00369263,-0.99836731,0.122070,0.183105,-0.122070
9720782958,0.01167297,0.00352478,-0.99736023,1.525879,0.061035,-0.244141
9730912541,0.01287842,0.00468445,-0.98643494,-0.549316,-0.061035,-0.061035
9741109666,0.01248169,0.00352478,-1.00234985,0.549316,0.183105,-0.061035
9751374625,0.01257324,0.00387573,-1.00492859,-0.183105,0.122070,-0.183105
9761561125,0.01280212,0.00537109,-0.99177551,0.061035,0.244141,-0.122070
9769147166,0.01113892,0.00732422,-1.00263977,0.061035,0.244141,-0.122070
9771690791,0.01113892,0.00732422,-1.00263977,-0.061035,0.244141,-0.061035
9779272541,0.01028442,0.00872803,-0.99703979,-0.061035,0.244141,-0.061035
9781810791,0.01028442,0.00872803,-0.99703979,-0.061035,0.183105,-0.061035
9789395875,0.00926208,0.01010132,-0.99662781,-0.061035,0.183105,-0.061035
9791933541,0.00926208,0.01010132,-0.99662781,0.671387,0.122070,-0.061035
9799537583,0.00923157,0.00959778,-0.99635315,0.671387,0.122070,-0.061035
9801627791,0.00923157,0.00959778,-0.99635315,-0.122070,0.244141,-0.061035
9809105791,0.01173401,0.00686646,-0.99884033,-0.122070,0.244141,-0.061035
9811653041,0.01173401,0.00686646,-0.99884033,-0.122070,0.305176,-0.061035
9819243333,0.01339722,0.00473022,-0.99180603,-0.122070,0.305176,-0.061035
9821790333,0.01339722,0.00473022,-0.99180603,0.122070,0.183105,-0.122070
9829395750,0.01426697,0.00268555,-0.99946594,0.122070,0.183105,-0.122070
9831738750,0.01426697,0.00268555,-0.99946594,0.122070,0.183105,-0.183105
9839469250,0.01283264,0.00090027,-0.99475098,0.122070,0.183105,-0.183105
9842074541,0.01283264,0.00090027,-0.99475098,0.061035,0.183105,-0.122070
9849717250,0.01211548,0.00117493,-0.99830627,0.061035,0.183105,-0.122070
9852286166,0.01211548,0.00117493,-0.99830627,-0.061035,0.122070,-0.122070
9859842250,0.01222229,0.00193787,-0.99588013,-0.061035,0.122070,-0.122070
9862389541,0.01222229,0.00193787,-0.99588013,0.061035,0.366211,-0.061035
9869907541,0.01199341,0.00210571,-0.99728394,0.061035,0.366211,-0.061035
9872444375,0.01199341,0.00210571,-0.99728394,0.000000,0.244141,-0.122070
9879609750,0.01200867,0.00267029,-0.99519348,0.000000,0.244141,-0.122070
9882182875,0.01200867,0.00267029,-0.99519348,0.122070,0.122070,0.000000
9889810041,0.01295471,0.00395203,-0.99638367,0.122070,0.122070,0.000000
9892364625,0.01295471,0.00395203,-0.99638367,0.122070,0.061035,-0.122070
9899954541,0.01255798,0.00567627,-0.99635315,0.122070,0.061035,-0.122070
9902505541,0.01255798,0.00567627,-0.99635315,0.061035,0.244141,-0.122070
9910096916,0.01130676,0.00672913,-0.99447632,0.061035,0.244141,-0.122070
9912635583,0.01130676,0.00672913,-0.99447632,0.000000,0.061035,0.000000
9920216833,0.01148987,0.00831604,-1.00430298,0.000000,0.061035,0.000000
9922766083,0.01148987,0.00831604,-1.00430298,0.000000,0.183105,0.122070
9930369958,0.01240540,0.00888062,-0.99382019,0.000000,0.183105,0.122070
9932910041,0.01240540,0.00888062,-0.99382019,0.061035,0.244141,-0.122070
9940555250,0.01188660,0.00776672,-0.99774170,0.122070,0.183105,-0.061035
9950725416,0.01255798,0.00677490,-0.99418640,0.244141,0.122070,-0.061035
9960844041,0.01332092,0.00494385,-0.99703979,0.183105,0.061035,-0.122070
9970973916,0.01385498,0.00389099,-0.99618530,0.183105,0.061035,-0.122070
9973526375,0.01385498,0.00389099,-0.99618530,0.061035,0.305176,0.061035
9981183041,0.01203918,0.00306702,-0.99905396,0.183105,0.183105,-0.122070
9991097041,0.01185608,0.00100708,-0.99060059,0.061035,0.000000,-0.061035
10001256791,0.01092529,0.00073242,-1.00621033,-0.061035,0.183105,-0.061035
10011454416,0.01095581,0.00091553,-0.99252319,0.000000,0.183105,-0.122070
10021592166,0.01084900,0.00170898,-0.99981689,-0.061035,0.183105,-0.061035
10031582916,0.01081848,0.00337219,-0.99517822,0.061035,0.183105,-0.122070
10041702458,0.01219177,0.00402832,-0.99833679,0.000000,0.244141,-0.183105
10051853041,0.01255798,0.00477600,-0.99583435,0.122070,0.061035,-0.122070
10062002000,0.01306152,0.00698853,-0.99711609,-0.244141,0.305176,-0.122070
10069631916,0.01205444,0.00759888,-0.99703979,-0.244141,0.305176,-0.122070
10072181750,0.01205444,0.00759888,-0.99703979,0.427246,0.305176,-0.061035
10082305208,0.01036072,0.00836182,-0.99784851,0.000000,0.122070,-0.061035
10092422625,0.01055908,0.00772095,-0.99386597,0.122070,0.427246,0.000000
10102530833,0.01104736,0.00555420,-0.99850464,0.122070,0.244141,-0.122070
10110123916,0.01284790,0.00370789,-0.99633789,0.122070,0.244141,-0.122070
10112660083,0.01284790,0.00370789,-0.99633789,0.061035,0.183105,-0.061035
10120276375,0.01411438,0.00157166,-0.99618530,0.061035,0.183105,-0.061035
10122817958,0.01411438,0.00157166,-0.99618530,0.122070,0.061035,-0.244141
10130430166,0.01412964,0.00022888,-0.99691772,0.122070,0.061035,-0.244141
10132970083,0.01412964,0.00022888,-0.99691772,0.061035,0.122070,-0.061035
10140577916,0.01330566,-0.00015259,-0.99707031,0.061035,0.122070,-0.061035
10143124291,0.01330566,-0.00015259,-0.99707031,0.305176,0.183105,-0.122070
10150788041,0.01248169,0.00070190,-0.99728394,0.305176,0.183105,-0.122070
10153337250,0.01248169,0.00070190,-0.99728394,0.000000,0.244141,-0.122070
10160928791,0.01152039,0.00213623,-0.99783325,0.000000,0.244141,-0.122070
10163469833,0.01152039,0.00213623,-0.99783325,0.000000,0.000000,-0.183105
10171124583,0.01184082,0.00372314,-0.99775696,0.000000,0.122070,-0.183105
10181277875,0.01002502,0.00564575,-0.99662781,0.122070,0.122070,-0.183105
10191397208,0.00958252,0.00910950,-0.99668884,0.061035,0.122070,-0.061035
10201538416,0.00981140,0.00953674,-0.99673462,0.305176,-0.122070,-0.122070
10211699041,0.01062012,0.01080322,-0.99453735,0.427246,0.305176,-0.061035
10221847583,0.01193237,0.01086426,-0.98669434,-0.061035,0.000000,0.061035
10231989083,0.01268005,0.00976562,-1.01509094,0.061035,0.305176,0.000000
10242130875,0.01376343,0.00895691,-0.98843384,-0.061035,0.183105,-0.061035
10252269083,0.01329041,0.00582886,-0.99638367,-0.122070,0.183105,0.000000
10262442875,0.01173401,0.00163269,-1.00326538,0.061035,0.122070,-0.061035
10272277541,0.01258850,0.00067139,-0.99441528,-0.061035,0.244141,-0.061035
10282413083,0.01187134,-0.00019836,-0.99713135,-0.061035,0.305176,-0.061035
10292442875,0.01086426,-0.00106812,-0.99563599,0.244141,0.488281,-0.122070
10302566416,0.01110840,-0.00111389,-0.99462891,0.000000,0.000000,-0.183105
10310165083,0.01159668,0.00096130,-1.00170898,0.000000,0.000000,-0.183105
10312509208,0.01159668,0.00096130,-1.00170898,0.000000,0.122070,-0.122070
10322647958,0.01264954,0.00315857,-0.99186707,0.061035,0.183105,-0.061035
10330252041,0.01300049,0.00440979,-0.99830627,0.061035,0.183105,-0.061035
10332788791,0.01300049,0.00440979,-0.99830627,0.061035,0.122070,-0.122070
10340380958,0.01242065,0.00698853,-0.99644470,0.061035,0.122070,-0.122070
10342915000,0.01242065,0.00698853,-0.99644470,0.000000,0.183105,-0.183105
10350510500,0.01307678,0.00906372,-0.99929810,0.000000,0.183105,-0.183105
10353050375,0.01307678,0.00906372,-0.99929810,0.000000,0.122070,-0.122070
10360639750,0.01240540,0.00869751,-0.99635315,0.000000,0.122070,-0.122070
10363176833,0.01240540,0.00869751,-0.99635315,0.061035,0.122070,0.000000
10370436708,0.01121521,0.00802612,-0.99775696,0.061035,0.122070,0.000000
10372996583,0.01121521,0.00802612,-0.99775696,-0.061035,0.122070,0.000000
10380646166,0.01202393,0.00730896,-0.99606323,-0.061035,0.122070,0.000000
10383193125,0.01202393,0.00730896,-0.99606323,0.061035,0.183105,0.000000
10390786500,0.01097107,0.00573730,-0.99716187,0.061035,0.183105,0.000000
10393325125,0.01097107,0.00573730,-0.99716187,-0.122070,0.061035,-0.122070
10400951291,0.01147461,0.00378418,-0.99635315,-0.122070,0.061035,-0.122070
10403500208,0.01147461,0.00378418,-0.99635315,0.183105,0.122070,-0.122070
10410921833,0.01165771,0.00306702,-0.99650574,0.183105,0.122070,-0.122070
10413456208,0.01165771,0.00306702,-0.99650574,0.122070,0.122070,-0.061035
10421060000,0.01226807,0.00277710,-0.99766541,0.122070,0.122070,-0.061035
10423604208,0.01226807,0.00277710,-0.99766541,0.061035,0.122070,-0.122070
10431221458,0.01271057,0.00216675,-0.99505615,0.061035,0.122070,-0.122070
10433780250,0.01271057,0.00216675,-0.99505615,0.000000,0.061035,-0.122070
10440974541,0.01150513,0.00302124,-0.99588013,0.000000,0.061035,-0.122070
10443531166,0.01150513,0.00302124,-0.99588013,0.061035,0.366211,-0.122070
10452901500,0.01268005,0.00358582,-0.99714661,0.061035,0.183105,-0.061035
10462767791,0.01280212,0.00448608,-0.99732971,0.061035,0.122070,-0.122070
10472650875,0.01174927,0.00508118,-0.99603271,0.000000,0.122070,-0.122070
10482703000,0.01089478,0.00592041,-0.99575806,0.000000,0.183105,-0.061035
10492802791,0.01179504,0.00762939,-0.99757385,0.061035,0.122070,-0.183105
10502392166,0.01269531,0.00692749,-0.99588013,0.061035,0.183105,-0.122070
10512504750,0.01322937,0.00617981,-0.99670410,0.000000,0.122070,-0.061035
10522658833,0.01342773,0.00459290,-0.99600220,0.183105,0.061035,-0.183105
10532794625,0.01324463,0.00483704,-0.99630737,0.061035,0.061035,-0.061035
10542929750,0.01306152,0.00392151,-0.98979187,-0.061035,0.244141,-0.122070
10553067916,0.01095581,0.00344849,-1.00872803,0.244141,0.122070,-0.061035
10562795375,0.01107788,0.00350952,-0.98846436,0.061035,0.000000,0.000000
10572967583,0.01234436,0.00253296,-1.00028992,0.000000,0.000000,-0.244141
10583110791,0.01031494,0.00271606,-0.99380493,0.183105,0.183105,-0.122070
10593273375,0.01071167,0.00386047,-0.99897766,-0.061035,0.122070,-0.122070
10603317125,0.01145935,0.00523376,-0.99531555,-0.061035,0.122070,0.000000
10613455541,0.01029968,0.00581360,-0.99855042,-0.061035,0.244141,0.000000
10623613041,0.01173401,0.00772095,-0.99545288,0.000000,0.183105,0.000000
10631208125,0.01258850,0.00834656,-0.99682617,0.000000,0.183105,0.000000
10633751291,0.01258850,0.00834656,-0.99682617,0.061035,0.305176,-0.061035
10641358500,0.01310730,0.00805664,-0.99511719,0.061035,0.305176,-0.061035
10643900958,0.01310730,0.00805664,-0.99511719,0.244141,0.427246,-0.061035
10651484041,0.01248169,0.00718689,-0.99511719,0.244141,0.427246,-0.061035
10654023416,0.01248169,0.00718689,-0.99511719,0.061035,0.793457,-0.183105
10661614583,0.01286316,0.00468445,-0.99343872,0.061035,0.793457,-0.183105
10664153208,0.01286316,0.00468445,-0.99343872,0.000000,0.427246,-0.183105
10671767166,0.01391602,0.00329590,-1.00440979,0.000000,0.427246,-0.183105
10674315125,0.01391602,0.00329590,-1.00440979,-0.122070,-0.183105,-0.183105
10681984750,0.01200867,0.00234985,-0.99360657,-0.122070,-0.183105,-0.183105
10684527541,0.01200867,0.00234985,-0.99360657,0.305176,0.244141,-0.122070
10692123208,0.01194763,0.00251770,-0.99693298,0.305176,0.244141,-0.122070
10694737416,0.01194763,0.00251770,-0.99693298,-0.061035,0.000000,-0.244141
10702371208,0.01193237,0.00265503,-1.00064087,0.122070,0.122070,-0.122070
10712046583,0.01177979,0.00393677,-0.99700928,0.122070,0.122070,-0.122070
10714594250,0.01177979,0.00393677,-0.99700928,-0.122070,0.061035,-0.183105
10722158500,0.01177979,0.00511169,-0.99765015,-0.122070,0.061035,-0.183105
10724694125,0.01177979,0.00511169,-0.99765015,-0.061035,0.061035,-0.061035
10732242083,0.01269531,0.00617981,-0.99566650,-0.061035,0.061035,-0.061035
10734766250,0.01269531,0.00617981,-0.99566650,-0.183105,-0.122070,0.000000
10742179250,0.01158142,0.00643921,-0.99433899,-0.183105,-0.122070,0.000000
10744710291,0.01158142,0.00643921,-0.99433899,0.122070,0.000000,-0.122070
10752273208,0.01077271,0.00703430,-1.00445557,0.122070,0.000000,-0.122070
10754814791,0.01077271,0.00703430,-1.00445557,-0.122070,0.122070,-0.122070
10762401375,0.01055908,0.00675964,-0.98902893,-0.122070,0.122070,-0.122070
10764900333,0.01055908,0.00675964,-0.98902893,0.244141,0.183105,-0.061035
10772313166,0.01097107,0.00529480,-0.99876404,0.244141,0.183105,-0.061035
10774683833,0.01097107,0.00529480,-0.99876404,0.061035,0.183105,-0.061035
10782253416,0.01210022,0.00559998,-0.99575806,0.061035,0.183105,-0.061035
10784789625,0.01210022,0.00559998,-0.99575806,0.061035,0.061035,0.061035
10792392708,0.01240540,0.00482178,-0.99690247,0.061035,0.061035,0.061035
10794956083,0.01240540,0.00482178,-0.99690247,0.244141,0.061035,-0.122070
10802594375,0.01257324,0.00416565,-0.99632263,0.122070,0.122070,-0.122070
10812747333,0.01362610,0.00325012,-0.99641418,0.122070,0.183105,-0.183105
10822875333,0.01283264,0.00282288,-0.99513245,0.061035,0.305176,-0.122070
10832953500,0.01121521,0.00268555,-0.99468994,0.061035,0.305176,-0.122070
10835512416,0.01121521,0.00268555,-0.99468994,0.061035,0.305176,-0.061035
10843182333,0.01022339,0.00291443,-0.99604797,0.183105,0.305176,-0.244141
10853313125,0.01100159,0.00395203,-0.99719238,0.000000,0.000000,-0.183105
10863459375,0.01216125,0.00465393,-0.99748230,0.305176,0.549316,0.000000
10873578541,0.01245117,0.00471497,-0.99868774,-0.061035,0.122070,-0.122070
10883452750,0.01266479,0.00418091,-0.99085999,0.183105,0.061035,-0.183105
10893635708,0.01280212,0.00605774,-1.00735474,0.000000,-0.061035,-0.061035
10903782375,0.01304626,0.00749207,-0.99357605,0.061035,0.000000,-0.122070
10913879500,0.01271057,0.00839233,-0.99830627,-0.061035,0.000000,-0.061035
10924040208,0.01190186,0.00808716,-0.99772644,0.122070,0.122070,-0.122070
10931599375,0.01188660,0.00781250,-0.99687195,0.122070,0.122070,-0.122070
10934144416,0.01188660,0.00781250,-0.99687195,0.183105,0.915527,0.000000
10943956875,0.01142883,0.00640869,-0.99476624,-0.122070,0.000000,0.000000
10954095083,0.01109314,0.00346375,-1.00245667,0.000000,0.183105,0.061035
10964236291,0.01205444,0.00302124,-0.99427795,0.000000,0.183105,-0.122070
10974346833,0.01210022,0.00251770,-0.99566650,0.122070,0.061035,-0.183105
10984485375,0.01272583,0.00123596,-0.99404907,0.122070,0.061035,0.000000
10994617083,0.01306152,0.00180054,-0.99874878,0.244141,0.244141,-0.122070
11004335875,0.01237488,0.00221252,-0.99588013,-0.061035,0.183105,-0.061035
11014467208,0.01136780,0.00321960,-0.99771118,0.000000,0.122070,-0.061035
11024606041,0.01106262,0.00430298,-0.99560547,0.061035,0.061035,-0.122070
11034678958,0.01177979,0.00538635,-0.99801636,-0.061035,0.183105,-0.122070
11042286583,0.01242065,0.00512695,-0.99714661,-0.061035,0.183105,-0.122070
11044829375,0.01242065,0.00512695,-0.99714661,0.061035,0.061035,-0.122070
11054962500,0.01254272,0.00581360,-0.99598694,0.122070,0.183105,-0.122070
11062556708,0.01286316,0.00619507,-0.99584961,0.122070,0.183105,-0.122070
11065097500,0.01286316,0.00619507,-0.99584961,0.000000,0.061035,-0.061035
11072684583,0.01324463,0.00717163,-0.99629211,0.000000,0.061035,-0.061035
11075221000,0.01324463,0.00717163,-0.99629211,0.061035,0.183105,-0.122070
11082803833,0.01397705,0.00569153,-0.99794006,0.061035,0.183105,-0.122070
11085338958,0.01397705,0.00569153,-0.99794006,0.122070,0.305176,-0.122070
11092936708,0.01347351,0.00454712,-0.99653625,0.122070,0.305176,-0.122070
11095197000,0.01347351,0.00454712,-0.99653625,0.305176,0.122070,-0.122070
