timestamp_ns,accel_x,accel_y,accel_z,gyro_x,gyro_y,gyro_z
111600916,0.01608276,0.00280762,-1.00180054,0.061035,0.000000,-0.061035
121233000,0.01605225,0.00221252,-1.00036621,-0.122070,0.061035,0.000000
147453875,0.01545715,0.00221252,-1.00080872,-0.061035,0.061035,0.000000
147459083,0.01467896,0.00265503,-1.00048828,-0.122070,0.061035,0.000000
149977250,0.01419067,0.00192261,-1.00088501,-0.122070,0.061035,0.000000
152652916,0.01419067,0.00192261,-1.00088501,-0.244141,0.122070,-0.061035
160754791,0.01332092,-0.00044250,-1.00032043,0.000000,0.122070,-0.061035
169603000,0.01445007,-0.00071716,-1.00251770,0.000000,0.122070,-0.061035
172163125,0.01445007,-0.00071716,-1.00251770,-0.061035,0.061035,0.000000
182536291,0.01638794,-0.00082397,-1.00021362,-0.122070,0.061035,-0.183105
192007791,0.01651001,-0.00347900,-0.99922180,-0.122070,0.122070,-0.122070
199547333,0.01623535,-0.00399780,-1.00065613,-0.122070,0.122070,-0.122070
202066041,0.01623535,-0.00399780,-1.00065613,-0.061035,0.061035,0.000000
209590875,0.01502991,-0.00201416,-1.00070190,-0.061035,0.061035,0.000000
212101125,0.01502991,-0.00201416,-1.00070190,-0.183105,0.061035,-0.061035
219641250,0.01460266,-0.00125122,-1.00099182,-0.183105,0.061035,-0.061035
222159958,0.01460266,-0.00125122,-1.00099182,-0.122070,0.061035,-0.061035
229725458,0.01431274,0.00000000,-1.00073242,-0.122070,0.061035,-0.061035
232246958,0.01431274,0.00000000,-1.00073242,0.000000,0.122070,-0.061035
239785125,0.01315308,0.00143433,-1.00019836,0.000000,0.122070,-0.061035
242305958,0.01315308,0.00143433,-1.00019836,-0.122070,0.061035,-0.122070
249874833,0.01373291,0.00305176,-0.99957275,-0.122070,0.061035,-0.122070
252386208,0.01373291,0.00305176,-0.99957275,0.183105,0.122070,0.000000
259921083,0.01484680,0.00361633,-1.00048828,0.183105,0.122070,0.000000
262445333,0.01484680,0.00361633,-1.00048828,-0.122070,0.061035,-0.122070
269978875,0.01553345,0.00303650,-1.00080872,-0.122070,0.061035,-0.122070
272491083,0.01553345,0.00303650,-1.00080872,0.000000,0.122070,0.000000
280022291,0.01562500,0.00180054,-1.00047302,0.000000,0.122070,0.000000
282533708,0.01562500,0.00180054,-1.00047302,0.061035,0.122070,-0.061035
290056875,0.01576233,0.00128174,-1.00018311,0.061035,0.122070,-0.061035
292569041,0.01576233,0.00128174,-1.00018311,-0.061035,0.244141,-0.061035
300097250,0.01541138,0.00009155,-1.00003052,-0.061035,0.244141,-0.061035
302609375,0.01541138,0.00009155,-1.00003052,0.000000,0.183105,0.000000
310140833,0.01673889,-0.00149536,-1.00024414,0.000000,0.183105,0.000000
312652250,0.01673889,-0.00149536,-1.00024414,0.061035,0.122070,0.000000
320181083,0.01573181,-0.00028992,-1.00051880,0.061035,0.122070,0.000000
322690125,0.01573181,-0.00028992,-1.00051880,0.061035,0.122070,-0.183105
330218000,0.01428223,-0.00120544,-1.00044250,0.061035,0.122070,-0.183105
332736750,0.01428223,-0.00120544,-1.00044250,0.000000,0.000000,-0.183105
340274583,0.01438904,-0.00103760,-0.99992371,0.000000,0.000000,-0.183105
342785708,0.01438904,-0.00103760,-0.99992371,0.061035,0.122070,-0.122070
350314333,0.01422119,-0.00106812,-0.99858093,0.061035,0.122070,-0.122070
352825916,0.01422119,-0.00106812,-0.99858093,0.000000,0.061035,-0.183105
360363541,0.01580811,-0.00033569,-1.00126648,0.000000,0.061035,-0.183105
362874208,0.01580811,-0.00033569,-1.00126648,-0.122070,0.061035,-0.183105
370404583,0.01550293,0.00119019,-1.00056458,-0.122070,0.061035,-0.183105
372915375,0.01550293,0.00119019,-1.00056458,0.000000,0.061035,0.061035
380452333,0.01518250,0.00262451,-1.00222778,0.000000,0.061035,0.061035
382966750,0.01518250,0.00262451,-1.00222778,0.000000,0.061035,-0.122070
390491833,0.01599121,0.00256348,-1.00105286,0.000000,0.061035,-0.122070
393011458,0.01599121,0.00256348,-1.00105286,-0.122070,0.061035,-0.183105
400538791,0.01567078,0.00204468,-1.00059509,-0.122070,0.061035,-0.183105
403053625,0.01567078,0.00204468,-1.00059509,0.061035,0.244141,-0.122070
410581750,0.01599121,0.00204468,-1.00056458,0.061035,0.244141,-0.122070
413095583,0.01599121,0.00204468,-1.00056458,0.122070,0.061035,-0.061035
420632416,0.01644897,0.00160217,-0.99996948,0.122070,0.061035,-0.061035
423143583,0.01644897,0.00160217,-0.99996948,0.122070,0.061035,0.061035
430663125,0.01579285,0.00131226,-0.99978638,0.122070,0.061035,0.061035
433216250,0.01579285,0.00131226,-0.99978638,0.122070,0.000000,-0.122070
440872166,0.01568604,0.00000000,-1.00038147,0.122070,0.000000,-0.122070
443420250,0.01568604,0.00000000,-1.00038147,0.061035,0.183105,0.000000
451077416,0.01512146,-0.00059509,-0.99934387,0.183105,0.061035,-0.061035
461139250,0.01541138,-0.00102234,-0.99842834,0.000000,0.000000,-0.183105
471228916,0.01597595,-0.00143433,-1.00012207,0.000000,0.000000,-0.183105
473766625,0.01597595,-0.00143433,-1.00012207,0.122070,0.000000,-0.061035
481363333,0.01486206,-0.00018311,-1.00167847,0.122070,0.000000,-0.061035
483907875,0.01486206,-0.00018311,-1.00167847,0.061035,0.000000,-0.122070
491513291,0.01457214,0.00131226,-1.00006104,0.061035,0.000000,-0.122070
494072375,0.01457214,0.00131226,-1.00006104,0.183105,-0.061035,-0.122070
501692333,0.01437378,0.00068665,-1.00016785,0.183105,0.000000,-0.244141
511882625,0.01533508,0.00048828,-0.99989319,0.122070,0.061035,-0.061035
522039291,0.01565552,0.00144958,-1.00099182,0.183105,0.061035,-0.183105
532019333,0.01458740,0.00061035,-1.00074768,0.061035,0.061035,-0.122070
542143958,0.01443481,0.00088501,-1.00103760,0.061035,0.061035,0.000000
551720791,0.01666260,0.00247192,-1.00022888,0.122070,0.000000,-0.122070
561657500,0.01602173,0.00100708,-1.00097656,0.183105,-0.061035,-0.122070
571913791,0.01567078,-0.00015259,-0.99893188,0.122070,0.000000,-0.061035
582001208,0.01661682,0.00068665,-1.00012207,0.183105,0.061035,0.000000
592235000,0.01620483,0.00061035,-0.99984741,0.122070,0.061035,-0.122070
602263916,0.01496887,-0.00132751,-0.99998474,0.061035,-0.061035,-0.122070
612418375,0.01486206,-0.00093079,-1.00067139,0.183105,0.061035,-0.122070
621361041,0.01524353,-0.00080872,-1.00015259,0.183105,0.061035,-0.122070
623957666,0.01524353,-0.00080872,-1.00015259,0.244141,-0.061035,-0.122070
631650833,0.01510620,-0.00077820,-0.99948120,0.183105,-0.061035,-0.122070
651422416,0.01422119,0.00015259,-0.99975586,0.122070,0.000000,-0.122070
654023541,0.01518250,0.00105286,-0.99890137,0.244141,0.000000,-0.061035
661606750,0.01652527,0.00155640,-0.99949646,0.183105,0.244141,0.000000
671690125,0.01551819,0.00190735,-1.00000000,0.183105,0.244141,0.000000
674256916,0.01551819,0.00190735,-1.00000000,0.305176,0.000000,-0.122070
681908000,0.01577759,0.00299072,-1.00114441,0.305176,0.183105,-0.061035
692120250,0.01528931,0.00347900,-1.00013733,0.305176,0.000000,0.061035
702365875,0.01463318,0.00366211,-1.00079346,0.244141,0.000000,0.000000
713027000,0.01387024,0.00138855,-1.00154114,0.183105,0.061035,0.000000
720952541,0.01640320,0.00070190,-1.00173950,0.183105,0.061035,0.000000
723572166,0.01640320,0.00070190,-1.00173950,0.122070,0.061035,-0.061035
731243125,0.01678467,-0.00129700,-1.00045776,0.122070,0.061035,-0.061035
733805416,0.01678467,-0.00129700,-1.00045776,0.183105,0.000000,-0.061035
741416458,0.01553345,-0.00184631,-1.00086975,0.183105,0.000000,-0.061035
743986583,0.01553345,-0.00184631,-1.00086975,0.244141,0.000000,-0.061035
751597750,0.01594543,-0.00317383,-1.00062561,0.244141,0.000000,-0.061035
754156791,0.01594543,-0.00317383,-1.00062561,0.122070,0.000000,0.061035
761366083,0.01646423,-0.00399780,-0.99954224,0.122070,0.000000,0.061035
763913458,0.01646423,-0.00399780,-0.99954224,0.183105,0.000000,-0.061035
771249916,0.01577759,-0.00274658,-0.99981689,0.183105,0.000000,-0.061035
773796416,0.01577759,-0.00274658,-0.99981689,0.183105,0.061035,-0.122070
781274833,0.01496887,-0.00210571,-0.99987793,0.183105,0.061035,-0.122070
783828333,0.01496887,-0.00210571,-0.99987793,0.061035,0.122070,-0.122070
793582750,0.01469421,-0.00170898,-1.00076294,0.122070,-0.061035,0.000000
800881333,0.01457214,-0.00099182,-1.00048828,0.122070,-0.061035,0.000000
803415875,0.01457214,-0.00099182,-1.00048828,0.183105,0.000000,-0.122070
813280625,0.01576233,0.00109863,-1.00012207,0.183105,0.000000,-0.122070
823238500,0.01466370,0.00106812,-1.00170898,0.305176,0.122070,-0.183105
833348375,0.01399231,0.00054932,-1.00067139,0.122070,0.061035,-0.061035
843402375,0.01516724,0.00114441,-1.00122070,0.122070,-0.122070,-0.183105
853135083,0.01722717,0.00123596,-1.00047302,0.061035,0.122070,-0.122070
863066250,0.01815796,0.00032043,-1.00057983,0.122070,0.061035,-0.061035
873143291,0.01698303,0.00035095,-1.00088501,0.122070,0.000000,-0.122070
883208458,0.01480103,0.00012207,-1.00024414,0.122070,-0.061035,0.000000
893005125,0.01509094,-0.00178528,-1.00097656,0.061035,0.061035,-0.061035
903091166,0.01353455,-0.00109863,-1.00070190,0.183105,-0.122070,-0.061035
913169708,0.01426697,-0.00175476,-0.99975586,0.061035,0.000000,-0.061035
923262625,0.01342773,-0.00198364,-1.00184631,0.122070,0.061035,0.000000
933369458,0.01394653,0.00067139,-1.00033569,0.000000,0.122070,0.000000
943491666,0.01455688,0.00102234,-0.99954224,0.000000,0.122070,0.000000
953635750,0.01449585,0.00123596,-1.00050354,0.061035,-0.061035,-0.183105
963818416,0.01734924,0.00160217,-1.00042725,0.122070,0.061035,0.061035
973700583,0.01754761,0.00254822,-1.00137329,0.244141,0.183105,-0.061035
983834958,0.01712036,0.00154114,-1.00056458,0.122070,0.122070,0.000000
993974000,0.01625061,-0.00016785,-1.00077820,0.061035,0.061035,-0.061035
1001586041,0.01510620,-0.00053406,-0.99996948,0.061035,0.061035,-0.061035
1003657750,0.01510620,-0.00053406,-0.99996948,0.183105,0.061035,-0.061035
1013332666,0.01469421,-0.00103760,-1.00032043,0.000000,0.183105,-0.061035
1023202041,0.01513672,-0.00245667,-1.00105286,0.061035,0.000000,-0.122070
1033375375,0.01483154,-0.00500488,-1.00103760,0.061035,0.000000,-0.122070
1043553333,0.01414490,-0.00492859,-1.00041199,0.061035,0.122070,-0.122070
1053729166,0.01565552,-0.00302124,-1.00003052,0.122070,0.122070,0.000000
1063875291,0.01481628,-0.00077820,-1.00064087,0.122070,0.061035,-0.122070
1074079833,0.01495361,0.00106812,-1.00111389,0.122070,0.061035,0.061035
1081696750,0.01486206,0.00163269,-0.99899292,0.122070,0.061035,0.061035
1083985541,0.01486206,0.00163269,-0.99899292,0.061035,-0.061035,-0.061035
1094125583,0.01536560,0.00256348,-1.00000000,0.061035,0.000000,-0.122070
1103859458,0.01492310,0.00341797,-1.00035095,0.183105,0.061035,-0.061035
1113984541,0.01533508,0.00299072,-1.00119019,0.061035,0.000000,-0.061035
1124118458,0.01533508,0.00143433,-1.00004578,0.061035,0.061035,0.000000
1134288750,0.01525879,0.00170898,-1.00105286,0.122070,-0.122070,-0.061035
1143927625,0.01568604,-0.00099182,-1.00032043,0.122070,0.183105,-0.061035
1153809833,0.01487732,-0.00213623,-1.00152588,0.061035,0.000000,-0.061035
1163960708,0.01614380,-0.00192261,-1.00010681,0.122070,0.061035,0.000000
1174088916,0.01522827,-0.00215149,-1.00045776,-0.061035,0.183105,-0.122070
1184214000,0.01557922,-0.00320435,-0.99925232,-0.061035,0.000000,-0.244141
1194171541,0.01562500,-0.00216675,-1.00004578,0.122070,0.061035,-0.061035
1204308750,0.01553345,-0.00003052,-1.00056458,0.000000,0.000000,-0.061035
1214227708,0.01466370,0.00061035,-1.00187683,0.183105,0.000000,-0.061035
1223665125,0.01391602,0.00061035,-1.00117493,0.122070,0.122070,0.000000
1232850708,0.01461792,0.00100708,-1.00144958,0.122070,0.122070,0.000000
1235397166,0.01461792,0.00100708,-1.00144958,0.000000,-0.061035,-0.244141
1242995500,0.01542664,0.00097656,-1.00048828,0.000000,-0.061035,-0.244141
1245260458,0.01542664,0.00097656,-1.00048828,0.122070,-0.122070,-0.061035
1252615000,0.01524353,0.00050354,-0.99934387,0.122070,-0.122070,-0.061035
1255171458,0.01524353,0.00050354,-0.99934387,0.122070,0.000000,0.000000
1262757708,0.01502991,-0.00048828,-0.99963379,0.122070,0.000000,0.000000
1265295333,0.01502991,-0.00048828,-0.99963379,0.061035,0.061035,-0.122070
1272881041,0.01405334,0.00039673,-1.00047302,0.061035,0.061035,-0.122070
1275428625,0.01405334,0.00039673,-1.00047302,0.122070,0.000000,0.000000
1282813791,0.01554871,0.00003052,-0.99986267,0.122070,0.000000,0.000000
1285375041,0.01554871,0.00003052,-0.99986267,0.000000,-0.061035,-0.122070
1292720041,0.01611328,-0.00209045,-0.99963379,0.000000,-0.061035,-0.122070
1295323083,0.01611328,-0.00209045,-0.99963379,0.061035,0.122070,-0.061035
1302932041,0.01615906,-0.00173950,-1.00003052,0.061035,0.122070,-0.061035
1305424958,0.01615906,-0.00173950,-1.00003052,0.061035,0.000000,0.000000
1312999666,0.01513672,-0.00079346,-1.00047302,0.061035,0.000000,0.000000
1315528458,0.01513672,-0.00079346,-1.00047302,0.061035,0.000000,-0.122070
1323110500,0.01475525,-0.00080872,-0.99906921,0.061035,0.000000,-0.122070
1325648333,0.01475525,-0.00080872,-0.99906921,0.061035,0.000000,0.000000
1333089458,0.01506042,0.00012207,-1.00080872,0.061035,0.000000,0.000000
1335641083,0.01506042,0.00012207,-1.00080872,0.000000,0.000000,-0.122070
1342962083,0.01615906,-0.00015259,-1.00100708,0.000000,0.000000,-0.122070
1345503875,0.01615906,-0.00015259,-1.00100708,0.000000,-0.061035,-0.061035
1352840000,0.01588440,0.00071716,-1.00045776,0.000000,-0.061035,-0.061035
1355388125,0.01588440,0.00071716,-1.00045776,0.122070,0.061035,-0.061035
1362980458,0.01477051,0.00044250,-1.00015259,0.122070,0.061035,-0.061035
1365526000,0.01477051,0.00044250,-1.00015259,0.000000,-0.183105,-0.122070
1373114541,0.01481628,0.00000000,-1.00025940,0.000000,-0.183105,-0.122070
1375663541,0.01481628,0.00000000,-1.00025940,0.122070,0.122070,-0.061035
1383275708,0.01473999,0.00032043,-1.00006104,0.122070,0.122070,-0.061035
1385814458,0.01473999,0.00032043,-1.00006104,0.061035,-0.061035,-0.061035
1393404791,0.01509094,-0.00032043,-1.00074768,0.061035,-0.061035,-0.061035
1395956000,0.01509094,-0.00032043,-1.00074768,0.122070,0.000000,-0.061035
1403550000,0.01614380,-0.00068665,-1.00051880,0.122070,0.000000,-0.061035
1406093833,0.01614380,-0.00068665,-1.00051880,-0.061035,0.183105,-0.122070
1413678041,0.01542664,0.00006104,-1.00038147,-0.061035,0.183105,-0.122070
1416008541,0.01542664,0.00006104,-1.00038147,0.122070,0.122070,0.000000
1423616041,0.01625061,0.00041199,-0.99981689,0.122070,0.122070,0.000000
1425882500,0.01625061,0.00041199,-0.99981689,0.061035,-0.061035,-0.122070
1433468750,0.01623535,0.00033569,-1.00138855,0.061035,-0.061035,-0.122070
1435767083,0.01623535,0.00033569,-1.00138855,-0.061035,0.000000,0.000000
1443358333,0.01519775,-0.00111389,-1.00027466,-0.061035,0.000000,0.000000
1445901791,0.01519775,-0.00111389,-1.00027466,0.000000,0.244141,0.000000
1453051833,0.01635742,-0.00198364,-0.99996948,0.000000,0.244141,0.000000
1455604416,0.01635742,-0.00198364,-0.99996948,0.183105,0.061035,0.000000
1463202583,0.01638794,-0.00195312,-0.99987793,0.183105,0.061035,0.000000
1465434708,0.01638794,-0.00195312,-0.99987793,0.183105,0.000000,-0.122070
1473055750,0.01493835,-0.00112915,-1.00030518,0.183105,0.000000,-0.122070
1475292208,0.01493835,-0.00112915,-1.00030518,0.000000,-0.061035,-0.183105
1482868625,0.01324463,-0.00213623,-1.00032043,0.000000,-0.061035,-0.183105
1485407500,0.01324463,-0.00213623,-1.00032043,0.061035,0.122070,-0.061035
1493000375,0.01437378,-0.00173950,-1.00039673,0.061035,0.122070,-0.061035
1495631291,0.01437378,-0.00173950,-1.00039673,-0.061035,-0.061035,0.000000
1503229750,0.01445007,-0.00099182,-1.00048828,-0.061035,-0.061035,0.000000
1505775333,0.01445007,-0.00099182,-1.00048828,0.061035,0.061035,0.061035
1513361375,0.01486206,0.00036621,-0.99954224,0.061035,0.061035,0.061035
1515897791,0.01486206,0.00036621,-0.99954224,-0.061035,0.061035,-0.061035
1523502708,0.01559448,0.00131226,-1.00038147,-0.061035,0.061035,-0.061035
1526084000,0.01559448,0.00131226,-1.00038147,0.061035,0.183105,-0.061035
1533729791,0.01600647,0.00207520,-1.00132751,0.061035,0.183105,-0.061035
1536271083,0.01600647,0.00207520,-1.00132751,0.061035,0.061035,0.000000
1543460375,0.01551819,0.00169373,-1.00045776,0.061035,0.061035,0.000000
1546004875,0.01551819,0.00169373,-1.00045776,0.061035,0.122070,0.000000
1553561916,0.01571655,0.00123596,-1.00000000,0.061035,0.122070,0.000000
1556133333,0.01571655,0.00123596,-1.00000000,0.061035,0.061035,0.061035
1563735916,0.01599121,0.00177002,-0.99955750,0.061035,0.061035,0.061035
1566355500,0.01599121,0.00177002,-0.99955750,0.122070,0.000000,-0.061035
1574078333,0.01542664,0.00061035,-1.00086975,0.122070,0.000000,-0.061035
1576674791,0.01542664,0.00061035,-1.00086975,0.061035,0.061035,0.000000
1584348500,0.01570129,-0.00106812,-1.00062561,0.061035,0.061035,0.000000
1586942708,0.01570129,-0.00106812,-1.00062561,0.061035,0.122070,-0.061035
1594626416,0.01560974,-0.00146484,-1.00079346,0.061035,0.122070,-0.061035
1597199250,0.01560974,-0.00146484,-1.00079346,-0.061035,-0.122070,-0.183105
1604861958,0.01458740,-0.00277710,-1.00019836,0.061035,0.000000,0.000000
1615035666,0.01464844,-0.00242615,-1.00065613,-0.061035,0.183105,-0.122070
1624936375,0.01470947,-0.00247192,-1.00082397,0.061035,0.061035,0.000000
1635604833,0.01652527,-0.00044250,-1.00012207,0.122070,0.000000,0.000000
1645857083,0.01596069,-0.00042725,-1.00144958,0.000000,0.122070,-0.061035
1655419958,0.01679993,0.00004578,-1.00074768,-0.061035,0.122070,-0.122070
1665594750,0.01632690,0.00108337,-1.00019836,0.122070,0.000000,0.000000
1675754833,0.01443481,0.00071716,-0.99966431,0.061035,-0.061035,-0.061035
1685931708,0.01531982,0.00059509,-1.00048828,0.122070,0.000000,-0.061035
1696126250,0.01431274,0.00027466,-1.00006104,0.061035,0.061035,0.061035
1703747541,0.01478577,-0.00128174,-1.00057983,0.061035,0.061035,0.061035
1706298500,0.01478577,-0.00128174,-1.00057983,0.061035,-0.061035,-0.122070
1713943833,0.01597595,-0.00129700,-1.00086975,0.061035,-0.061035,-0.122070
1716495458,0.01597595,-0.00129700,-1.00086975,0.122070,0.122070,0.061035
1726076291,0.01608276,-0.00035095,-1.00102234,0.000000,-0.122070,-0.244141
1734016125,0.01554871,-0.00067139,-1.00082397,0.000000,-0.122070,-0.244141
1736594125,0.01554871,-0.00067139,-1.00082397,0.000000,0.122070,0.122070
1744237541,0.01513672,-0.00105286,-1.00061035,0.000000,0.122070,0.122070
1746823250,0.01513672,-0.00105286,-1.00061035,0.000000,0.122070,-0.183105
1754436458,0.01553345,-0.00047302,-1.00148010,0.000000,0.122070,-0.183105
1756983541,0.01553345,-0.00047302,-1.00148010,0.061035,-0.061035,-0.061035
1764664250,0.01577759,-0.00013733,-1.00030518,0.061035,-0.061035,-0.061035
1766809291,0.01577759,-0.00013733,-1.00030518,0.183105,0.061035,0.000000
1774504333,0.01628113,-0.00038147,-1.00024414,0.183105,0.061035,0.000000
1777099458,0.01628113,-0.00038147,-1.00024414,0.183105,0.061035,-0.183105
1784560375,0.01541138,-0.00009155,-1.00125122,0.183105,0.061035,-0.183105
1787113166,0.01541138,-0.00009155,-1.00125122,0.122070,0.061035,0.000000
1794780750,0.01577759,-0.00056458,-1.00103760,0.122070,0.061035,0.000000
1797359041,0.01577759,-0.00056458,-1.00103760,0.061035,0.000000,0.000000
1805008083,0.01446533,0.00096130,-1.00059509,0.061035,0.061035,0.000000
1815141166,0.01449585,0.00000000,-1.00041199,0.000000,0.000000,0.000000
1825263291,0.01521301,-0.00088501,-1.00149536,0.061035,0.061035,0.000000
1835397500,0.01391602,-0.00099182,-0.99929810,0.000000,0.061035,-0.122070
1845108250,0.01524353,-0.00086975,-1.00053406,-0.061035,-0.061035,0.000000
1855247875,0.01524353,-0.00036621,-1.00010681,0.122070,0.122070,-0.122070
1865146250,0.01509094,-0.00039673,-0.99938965,0.122070,0.122070,-0.122070
1867515750,0.01509094,-0.00039673,-0.99938965,0.000000,0.122070,0.000000
1875136625,0.01567078,-0.00027466,-0.99996948,0.000000,0.122070,0.000000
1877383000,0.01567078,-0.00027466,-0.99996948,0.122070,0.061035,-0.061035
1884988000,0.01509094,-0.00106812,-1.00054932,0.122070,0.061035,-0.061035
1887274791,0.01509094,-0.00106812,-1.00054932,0.000000,0.000000,-0.122070
1894871083,0.01451111,-0.00173950,-1.00022888,0.000000,0.000000,-0.122070
1897134541,0.01451111,-0.00173950,-1.00022888,0.183105,0.000000,-0.122070
1904259708,0.01467896,-0.00070190,-1.00030518,0.183105,0.000000,-0.122070
1906826416,0.01467896,-0.00070190,-1.00030518,0.000000,0.122070,-0.061035
1916197541,0.01535034,-0.00032043,-1.00065613,0.061035,0.061035,0.000000
1926349333,0.01496887,-0.00039673,-1.00006104,0.061035,-0.061035,-0.061035
1936533458,0.01528931,-0.00004578,-0.99989319,0.122070,0.061035,-0.061035
1944146875,0.01484680,-0.00053406,-1.00077820,0.122070,0.061035,-0.061035
1946705041,0.01484680,-0.00053406,-1.00077820,0.000000,0.061035,-0.122070
1956898416,0.01576233,0.00025940,-1.00160217,0.061035,0.061035,0.000000
1967021708,0.01580811,0.00004578,-1.00077820,-0.061035,0.183105,-0.061035
1974615916,0.01586914,-0.00036621,-0.99963379,-0.061035,0.183105,-0.061035
1977155791,0.01586914,-0.00036621,-0.99963379,0.000000,0.061035,-0.122070
1984739416,0.01527405,0.00019836,-1.00082397,0.000000,0.061035,-0.122070
1987282291,0.01527405,0.00019836,-1.00082397,0.000000,0.061035,-0.061035
1994871250,0.01510620,-0.00065613,-1.00090027,0.000000,0.061035,-0.061035
1997421958,0.01510620,-0.00065613,-1.00090027,0.000000,0.122070,-0.061035
2005015916,0.01568604,-0.00033569,-1.00027466,0.000000,0.122070,-0.061035
2007561958,0.01568604,-0.00033569,-1.00027466,0.122070,0.122070,-0.122070
2015145500,0.01550293,0.00007629,-1.00006104,0.122070,0.122070,-0.122070
2017688500,0.01550293,0.00007629,-1.00006104,-0.061035,0.122070,0.000000
2025281666,0.01510620,0.00012207,-0.99893188,-0.061035,0.122070,0.000000
2027829291,0.01510620,0.00012207,-0.99893188,0.000000,0.061035,-0.122070
2035248291,0.01416016,-0.00122070,-1.00032043,0.000000,0.061035,-0.122070
2037799708,0.01416016,-0.00122070,-1.00032043,0.000000,0.061035,-0.122070
2045275708,0.01409912,-0.00115967,-1.00126648,0.000000,0.061035,-0.122070
2047826083,0.01409912,-0.00115967,-1.00126648,-0.061035,0.000000,0.061035
2055423875,0.01477051,-0.00117493,-1.00039673,-0.061035,0.000000,0.061035
2057963791,0.01477051,-0.00117493,-1.00039673,0.000000,0.122070,-0.061035
2065711333,0.01515198,-0.00131226,-1.00071716,0.000000,0.122070,-0.061035
2068258625,0.01515198,-0.00131226,-1.00071716,0.000000,0.000000,-0.122070
2075850083,0.01515198,-0.00141907,-1.00054932,0.061035,0.122070,-0.122070
2085989416,0.01448059,-0.00109863,-1.00076294,0.000000,0.000000,-0.061035
2096142250,0.01528931,-0.00045776,-1.00082397,0.061035,0.061035,-0.061035
2106306083,0.01647949,-0.00082397,-1.00038147,0.183105,0.061035,0.000000
2116424791,0.01589966,0.00013733,-1.00010681,0.000000,0.122070,-0.183105
2126559583,0.01533508,0.00085449,-1.00030518,0.061035,-0.061035,-0.122070
2136681708,0.01585388,-0.00088501,-0.99998474,0.122070,0.061035,-0.061035
2146816083,0.01609802,0.00007629,-1.00051880,0.122070,0.061035,-0.061035
2156948125,0.01565552,0.00067139,-1.00012207,0.000000,0.244141,-0.061035
2167081375,0.01502991,-0.00004578,-1.00114441,0.061035,0.122070,0.000000
2177260750,0.01432800,-0.00003052,-1.00135803,0.061035,0.183105,-0.061035
2187009416,0.01573181,-0.00071716,-0.99969482,0.122070,0.061035,0.061035
2197149875,0.01603699,-0.00068665,-1.00105286,0.000000,0.122070,0.000000
2207289000,0.01550293,-0.00041199,-1.00021362,0.000000,0.122070,-0.122070
2217456875,0.01654053,-0.00077820,-1.00036621,0.122070,0.061035,-0.122070
2226653791,0.01501465,-0.00050354,-0.99891663,0.122070,0.000000,0.000000
2236423750,0.01548767,-0.00025940,-1.00085449,0.122070,0.000000,0.000000
2238965291,0.01548767,-0.00025940,-1.00085449,-0.061035,0.061035,0.000000
2246561125,0.01498413,-0.00048828,-1.00106812,0.244141,0.183105,-0.122070
2256691583,0.01586914,0.00001526,-1.00091553,0.000000,0.122070,0.000000
2266649625,0.01615906,0.00056458,-0.99964905,0.061035,0.000000,-0.061035
2276561041,0.01480103,0.00019836,-0.99969482,0.061035,0.000000,-0.061035
2279122791,0.01480103,0.00019836,-0.99969482,0.122070,0.183105,0.000000
2286713958,0.01545715,-0.00015259,-0.99946594,0.000000,0.122070,-0.122070
2296834041,0.01524353,-0.00016785,-1.00128174,0.061035,0.122070,-0.122070
2306993583,0.01521301,-0.00088501,-1.00144958,0.061035,0.061035,0.061035
2317126916,0.01376343,-0.00051880,-0.99980164,-0.061035,-0.061035,-0.183105
2327057541,0.01423645,-0.00042725,-1.00090027,0.000000,0.000000,0.000000
2337197416,0.01402283,0.00039673,-1.00088501,0.061035,0.061035,0.000000
2347329666,0.01432800,0.00117493,-1.00012207,0.061035,0.061035,-0.122070
2357487458,0.01550293,-0.00004578,-1.00143433,0.122070,0.000000,-0.122070
2367712416,0.01596069,-0.00082397,-0.99934387,0.061035,0.000000,-0.061035
2377506375,0.01565552,-0.00048828,-1.00019836,0.183105,-0.122070,-0.061035
2387455208,0.01501465,-0.00038147,-1.00035095,0.000000,0.061035,-0.122070
2397371875,0.01568604,0.00073242,-0.99989319,0.000000,0.061035,-0.061035
2407583625,0.01377869,0.00041199,-1.00143433,0.000000,-0.122070,-0.061035
2417742250,0.01480103,-0.00117493,-1.00062561,0.061035,0.061035,0.122070
2427888875,0.01379395,-0.00158691,-0.99983215,0.061035,0.122070,-0.061035
2438073708,0.01368713,-0.00045776,-1.00048828,0.061035,0.000000,0.122070
2447865750,0.01617432,0.00059509,-1.00128174,0.061035,0.000000,0.000000
2458007375,0.01580811,0.00070190,-0.99993896,0.061035,0.061035,0.000000
2465612750,0.01467896,0.00019836,-1.00051880,0.061035,0.061035,0.000000
2468182833,0.01467896,0.00019836,-1.00051880,-0.061035,0.000000,0.061035
2478169833,0.01564026,-0.00001526,-1.00027466,0.183105,-0.122070,-0.122070
2485767250,0.01583862,-0.00123596,-0.99960327,0.183105,-0.122070,-0.122070
2488309791,0.01583862,-0.00123596,-0.99960327,0.122070,0.061035,-0.061035
2495919958,0.01556396,-0.00111389,-1.00102234,0.122070,0.061035,-0.061035
2498460208,0.01556396,-0.00111389,-1.00102234,0.061035,0.122070,-0.183105
2506079833,0.01452637,-0.00143433,-1.00004578,0.061035,0.122070,-0.183105
2508626250,0.01452637,-0.00143433,-1.00004578,0.122070,0.061035,0.061035
2516218625,0.01487732,-0.00041199,-1.00071716,0.122070,0.061035,0.061035
2518757666,0.01487732,-0.00041199,-1.00071716,0.061035,0.122070,-0.061035
2526355541,0.01655579,-0.00025940,-0.99984741,0.061035,0.122070,-0.061035
2528911416,0.01655579,-0.00025940,-0.99984741,0.183105,0.000000,-0.061035
2536285041,0.01643372,-0.00028992,-1.00109863,0.183105,0.000000,-0.061035
2538864958,0.01643372,-0.00028992,-1.00109863,0.000000,0.122070,0.000000
2546510000,0.01579285,-0.00054932,-1.00077820,0.000000,0.122070,0.000000
2549075500,0.01579285,-0.00054932,-1.00077820,0.061035,-0.122070,-0.122070
2556732125,0.01487732,-0.00028992,-1.00065613,0.061035,-0.122070,-0.122070
2559314333,0.01487732,-0.00028992,-1.00065613,0.183105,-0.061035,0.000000
2566928000,0.01502991,-0.00013733,-0.99893188,0.183105,-0.061035,0.000000
2569472916,0.01502991,-0.00013733,-0.99893188,0.061035,0.061035,-0.061035
2577072666,0.01551819,-0.00019836,-1.00016785,0.061035,0.061035,-0.061035
2579629458,0.01551819,-0.00019836,-1.00016785,0.122070,0.122070,0.000000
2587258208,0.01498413,-0.00032043,-1.00077820,0.122070,0.122070,0.000000
2589799041,0.01498413,-0.00032043,-1.00077820,0.183105,0.000000,-0.061035
2597422250,0.01496887,-0.00018311,-0.99975586,0.183105,0.000000,-0.061035
2599986875,0.01496887,-0.00018311,-0.99975586,0.061035,0.000000,-0.061035
2607597208,0.01550293,-0.00035095,-1.00032043,0.000000,0.122070,-0.061035
2617745333,0.01637268,-0.00024414,-1.00015259,0.061035,0.122070,-0.122070
2627869750,0.01599121,-0.00012207,-1.00030518,0.061035,0.000000,-0.122070
2638004250,0.01483154,-0.00068665,-1.00024414,0.122070,0.000000,-0.061035
2648136958,0.01464844,-0.00064087,-0.99987793,0.061035,0.061035,-0.061035
2658277333,0.01484680,-0.00032043,-1.00120544,0.000000,0.061035,-0.061035
2668390958,0.01486206,0.00027466,-0.99948120,-0.122070,0.122070,-0.061035
2678506708,0.01452637,-0.00103760,-1.00048828,0.122070,0.000000,0.000000
2688640041,0.01408386,-0.00114441,-1.00038147,0.122070,0.061035,0.061035
2698801791,0.01553345,-0.00091553,-1.00151062,0.000000,-0.061035,0.000000
2708955125,0.01564026,-0.00090027,-0.99961853,0.183105,-0.061035,0.000000
2719104791,0.01562500,-0.00085449,-0.99911499,0.183105,-0.122070,-0.061035
2726726583,0.01620483,-0.00070190,-1.00048828,0.183105,-0.122070,-0.061035
2729269625,0.01620483,-0.00070190,-1.00048828,0.122070,-0.061035,-0.061035
2736858583,0.01614380,0.00018311,-1.00067139,0.122070,-0.061035,-0.061035
2739405125,0.01614380,0.00018311,-1.00067139,0.244141,0.000000,-0.061035
2747000500,0.01547241,0.00019836,-1.00061035,0.244141,0.000000,-0.061035
2749540750,0.01547241,0.00019836,-1.00061035,0.183105,0.122070,0.000000
2757109291,0.01556396,-0.00010681,-1.00006104,0.183105,0.122070,0.000000
2759658958,0.01556396,-0.00010681,-1.00006104,0.122070,0.000000,0.000000
2767266416,0.01467896,0.00041199,-1.00115967,0.122070,0.000000,0.000000
2769815625,0.01467896,0.00041199,-1.00115967,0.122070,0.061035,-0.061035
2777331958,0.01528931,-0.00003052,-1.00061035,0.122070,0.061035,-0.061035
2779868083,0.01528931,-0.00003052,-1.00061035,0.061035,0.000000,0.000000
2787218875,0.01467896,-0.00057983,-1.00100708,0.061035,0.000000,0.000000
2789757291,0.01467896,-0.00057983,-1.00100708,0.061035,0.061035,-0.061035
2796984041,0.01544189,0.00097656,-1.00135803,0.061035,0.061035,-0.061035
2799541166,0.01544189,0.00097656,-1.00135803,0.122070,-0.061035,-0.122070
2807152458,0.01525879,0.00036621,-1.00054932,0.122070,-0.061035,-0.122070
2809697958,0.01525879,0.00036621,-1.00054932,0.061035,-0.061035,-0.122070
2817266958,0.01531982,-0.00021362,-1.00068665,0.061035,-0.061035,-0.122070
2819815000,0.01531982,-0.00021362,-1.00068665,0.061035,0.000000,-0.122070
2827414375,0.01632690,0.00003052,-1.00093079,0.061035,0.000000,-0.122070
2829962250,0.01632690,0.00003052,-1.00093079,0.061035,0.061035,-0.061035
2837546708,0.01519775,0.00007629,-1.00076294,0.061035,0.061035,-0.061035
2840073083,0.01519775,0.00007629,-1.00076294,0.122070,0.000000,-0.122070
2847615916,0.01493835,-0.00041199,-1.00030518,0.122070,0.000000,-0.122070
2850133958,0.01493835,-0.00041199,-1.00030518,0.000000,0.061035,-0.061035
2857188875,0.01541138,-0.00051880,-1.00163269,0.000000,0.061035,-0.061035
2859714083,0.01541138,-0.00051880,-1.00163269,-0.061035,-0.061035,-0.061035
2867259250,0.01498413,-0.00042725,-1.00061035,-0.061035,-0.061035,-0.061035
2869781458,0.01498413,-0.00042725,-1.00061035,-0.061035,0.061035,-0.122070
2876945916,0.01489258,-0.00079346,-1.00027466,-0.061035,0.061035,-0.122070
2879478125,0.01489258,-0.00079346,-1.00027466,0.122070,0.122070,-0.122070
2887047458,0.01348877,-0.00094604,-1.00103760,0.122070,0.122070,-0.122070
2889579791,0.01348877,-0.00094604,-1.00103760,0.000000,0.061035,0.000000
2897127041,0.01525879,-0.00074768,-1.00076294,0.000000,0.061035,0.000000
2899649875,0.01525879,-0.00074768,-1.00076294,0.000000,0.061035,-0.061035
2907004375,0.01593018,-0.00064087,-1.00044250,0.000000,0.061035,-0.061035
2909533750,0.01593018,-0.00064087,-1.00044250,0.000000,0.061035,-0.122070
2917104166,0.01524353,-0.00126648,-0.99996948,0.000000,0.061035,-0.122070
2919633041,0.01524353,-0.00126648,-0.99996948,0.061035,0.000000,-0.061035
2927186791,0.01559448,-0.00065613,-1.00166321,0.061035,0.000000,-0.061035
2929732458,0.01559448,-0.00065613,-1.00166321,0.000000,0.000000,0.000000
2937288875,0.01535034,-0.00025940,-1.00047302,0.000000,0.000000,0.000000
2939821875,0.01535034,-0.00025940,-1.00047302,0.061035,-0.122070,-0.183105
2947386666,0.01541138,0.00039673,-1.00051880,0.061035,-0.122070,-0.183105
2949423291,0.01541138,0.00039673,-1.00051880,0.122070,0.000000,-0.122070
2957060916,0.01612854,-0.00004578,-0.99937439,0.122070,0.000000,-0.122070
2959591125,0.01612854,-0.00004578,-0.99937439,0.061035,0.061035,-0.061035
2967152833,0.01548767,-0.00033569,-1.00056458,0.061035,0.061035,-0.061035
2969688625,0.01548767,-0.00033569,-1.00056458,0.122070,0.122070,-0.122070
2977280333,0.01547241,-0.00019836,-1.00094604,0.122070,0.122070,-0.122070
2979836958,0.01547241,-0.00019836,-1.00094604,0.122070,0.183105,-0.061035
2987425583,0.01478577,-0.00170898,-1.00122070,0.122070,0.183105,-0.061035
2989965958,0.01478577,-0.00170898,-1.00122070,0.000000,0.000000,-0.061035
2999684708,0.01483154,-0.00173950,-0.99981689,0.122070,0.122070,-0.061035
3009867708,0.01461792,-0.00027466,-1.00137329,0.000000,0.000000,0.000000
3020082833,0.01567078,-0.00076294,-1.00138855,-0.061035,0.122070,-0.122070
3027692791,0.01625061,-0.00022888,-1.00057983,-0.061035,0.122070,-0.122070
3030249916,0.01625061,-0.00022888,-1.00057983,0.061035,-0.061035,-0.122070
3039910000,0.01606750,0.00000000,-1.00022888,0.000000,-0.122070,-0.183105
3049790708,0.01551819,-0.00157166,-1.00009155,-0.061035,0.000000,-0.183105
3059477875,0.01528931,-0.00009155,-0.99990845,0.183105,0.061035,0.000000
3069614625,0.01501465,0.00048828,-1.00059509,0.061035,0.061035,0.000000
3079455708,0.01467896,0.00003052,-1.00050354,0.183105,0.000000,-0.061035
3089599041,0.01564026,-0.00036621,-1.00320435,0.061035,0.061035,0.000000
3099739166,0.01535034,-0.00022888,-1.00117493,0.000000,0.000000,0.061035
3109871458,0.01457214,-0.00028992,-1.00018311,0.061035,0.000000,-0.122070
3120058875,0.01547241,-0.00074768,-1.00074768,0.000000,0.061035,0.000000
3127669833,0.01593018,0.00108337,-1.00103760,0.000000,0.061035,0.000000
3130217208,0.01593018,0.00108337,-1.00103760,0.061035,0.122070,-0.122070
3137807333,0.01490784,-0.00056458,-1.00068665,0.061035,0.122070,-0.122070
3140155833,0.01490784,-0.00056458,-1.00068665,0.061035,0.122070,-0.061035
3147744291,0.01383972,-0.00120544,-1.00028992,0.061035,0.122070,-0.061035
3150283666,0.01383972,-0.00120544,-1.00028992,-0.061035,0.000000,0.000000
3157877916,0.01515198,-0.00050354,-1.00061035,-0.061035,0.000000,0.000000
3159925125,0.01515198,-0.00050354,-1.00061035,0.000000,0.061035,-0.061035
3170043041,0.01455688,0.00064087,-0.99958801,-0.122070,0.061035,-0.061035
3177651708,0.01498413,0.00030518,-1.00059509,-0.122070,0.061035,-0.061035
3180189166,0.01498413,0.00030518,-1.00059509,0.061035,0.000000,-0.061035
3187791208,0.01589966,-0.00064087,-0.99990845,0.061035,0.000000,-0.061035
3190327875,0.01589966,-0.00064087,-0.99990845,0.122070,0.122070,-0.061035
3197915458,0.01536560,-0.00003052,-1.00122070,0.122070,0.122070,-0.061035
3200463500,0.01536560,-0.00003052,-1.00122070,0.122070,0.000000,-0.183105
3210498375,0.01638794,0.00000000,-1.00125122,0.061035,0.061035,-0.061035
3218114166,0.01644897,0.00004578,-0.99932861,0.061035,0.061035,-0.061035
3220658833,0.01644897,0.00004578,-0.99932861,0.122070,0.244141,0.000000
3228264625,0.01580811,-0.00025940,-1.00141907,0.122070,0.244141,0.000000
3230809666,0.01580811,-0.00025940,-1.00141907,0.122070,0.000000,-0.305176
3238399250,0.01483154,-0.00030518,-1.00013733,0.122070,0.000000,-0.305176
3240953916,0.01483154,-0.00030518,-1.00013733,0.122070,-0.061035,-0.061035
3248558916,0.01625061,-0.00056458,-1.00013733,0.122070,-0.061035,-0.061035
3251088000,0.01625061,-0.00056458,-1.00013733,0.061035,0.183105,-0.122070
3258408291,0.01629639,-0.00067139,-0.99972534,0.061035,0.183105,-0.122070
3260937083,0.01629639,-0.00067139,-0.99972534,0.000000,0.061035,0.000000
3268563041,0.01513672,0.00032043,-1.00144958,0.000000,0.061035,0.000000
3271106708,0.01513672,0.00032043,-1.00144958,0.244141,0.244141,-0.183105
3278690625,0.01466370,-0.00061035,-1.00154114,0.244141,0.244141,-0.183105
3281232375,0.01466370,-0.00061035,-1.00154114,-0.061035,-0.061035,0.000000
3288832958,0.01438904,-0.00064087,-1.00128174,-0.061035,-0.061035,0.000000
3291375791,0.01438904,-0.00064087,-1.00128174,0.061035,0.061035,-0.122070
3298968125,0.01615906,-0.00032043,-1.00054932,0.061035,0.061035,-0.122070
3301504041,0.01615906,-0.00032043,-1.00054932,0.122070,0.061035,-0.183105
3309095958,0.01524353,-0.00006104,-1.00024414,0.122070,0.061035,-0.183105
3311644416,0.01524353,-0.00006104,-1.00024414,0.000000,0.122070,-0.183105
3319247500,0.01438904,-0.00073242,-1.00053406,0.000000,0.122070,-0.183105
3321793083,0.01438904,-0.00073242,-1.00053406,0.183105,-0.122070,-0.122070
3329396041,0.01515198,-0.00090027,-0.99928284,0.183105,-0.122070,-0.122070
3331935208,0.01515198,-0.00090027,-0.99928284,0.000000,0.061035,0.000000
3339527916,0.01678467,-0.00079346,-1.00030518,0.000000,0.061035,0.000000
3342087541,0.01678467,-0.00079346,-1.00030518,-0.122070,-0.061035,0.000000
3349681375,0.01582336,-0.00076294,-0.99996948,-0.061035,0.000000,-0.061035
3359669791,0.01432800,-0.00056458,-0.99981689,0.122070,0.000000,-0.061035
3369789041,0.01452637,-0.00022888,-1.00021362,0.122070,0.000000,-0.122070
3379918166,0.01646423,0.00083923,-1.00154114,0.061035,0.122070,-0.061035
3390036625,0.01623535,0.00012207,-1.00135803,0.122070,0.000000,-0.061035
3399683708,0.01603699,0.00068665,-1.00120544,0.061035,0.122070,-0.061035
3409833958,0.01589966,-0.00051880,-1.00097656,0.122070,0.000000,-0.061035
3419976125,0.01577759,-0.00080872,-0.99926758,0.000000,0.000000,0.000000
3429889750,0.01502991,-0.00021362,-1.00061035,0.122070,0.061035,-0.122070
3439779541,0.01535034,0.00000000,-1.00064087,0.122070,-0.061035,-0.122070
3449667958,0.01586914,-0.00100708,-0.99932861,0.061035,0.000000,-0.061035
3459451416,0.01519775,-0.00201416,-0.99978638,0.061035,0.000000,-0.061035
3461753708,0.01519775,-0.00201416,-0.99978638,0.183105,0.000000,-0.061035
3469254708,0.01536560,-0.00151062,-1.00028992,0.183105,0.000000,-0.061035
3471794666,0.01536560,-0.00151062,-1.00028992,0.061035,0.122070,-0.183105
3479379416,0.01611328,-0.00128174,-1.00123596,0.061035,0.122070,-0.183105
3481917791,0.01611328,-0.00128174,-1.00123596,0.061035,0.000000,-0.122070
3489521458,0.01536560,-0.00091553,-1.00048828,0.061035,0.000000,-0.122070
3492061500,0.01536560,-0.00091553,-1.00048828,0.061035,0.122070,0.000000
3499648875,0.01557922,0.00000000,-1.00085449,0.061035,0.122070,0.000000
3502207916,0.01557922,0.00000000,-1.00085449,-0.061035,0.000000,-0.122070
3509529875,0.01628113,0.00009155,-0.99987793,-0.061035,0.000000,-0.122070
3512134708,0.01628113,0.00009155,-0.99987793,0.122070,0.061035,-0.183105
3519747666,0.01580811,-0.00108337,-0.99981689,0.122070,0.061035,-0.183105
3522297166,0.01580811,-0.00108337,-0.99981689,0.061035,-0.061035,-0.061035
3529509166,0.01593018,0.00053406,-1.00096130,0.061035,-0.061035,-0.061035
3532054333,0.01593018,0.00053406,-1.00096130,0.061035,-0.061035,-0.061035
3539397916,0.01551819,0.00007629,-1.00051880,0.061035,-0.061035,-0.061035
3541936375,0.01551819,0.00007629,-1.00051880,0.061035,0.122070,-0.061035
3549260875,0.01463318,-0.00103760,-0.99974060,0.061035,0.122070,-0.061035
3551799791,0.01463318,-0.00103760,-0.99974060,0.061035,0.000000,-0.061035
3559399875,0.01516724,-0.00082397,-1.00041199,0.061035,0.000000,-0.061035
3561938583,0.01516724,-0.00082397,-1.00041199,0.122070,-0.122070,-0.061035
3569520041,0.01580811,-0.00135803,-1.00025940,0.122070,-0.122070,-0.061035
3572059708,0.01580811,-0.00135803,-1.00025940,0.061035,0.122070,-0.183105
3579641666,0.01588440,-0.00073242,-1.00010681,0.061035,0.122070,-0.183105
3582188916,0.01588440,-0.00073242,-1.00010681,0.122070,-0.061035,-0.122070
3589126000,0.01506042,-0.00009155,-1.00103760,0.122070,-0.061035,-0.122070
3591663958,0.01506042,-0.00009155,-1.00103760,0.183105,0.061035,-0.122070
3599248291,0.01641846,-0.00048828,-1.00210571,0.183105,0.061035,-0.122070
3601784750,0.01641846,-0.00048828,-1.00210571,0.183105,0.183105,0.000000
3609366375,0.01452637,-0.00112915,-1.00125122,0.183105,0.183105,0.000000
3611835916,0.01452637,-0.00112915,-1.00125122,0.061035,0.061035,-0.122070
3619428458,0.01489258,-0.00126648,-1.00090027,0.061035,0.061035,-0.122070
3621970000,0.01489258,-0.00126648,-1.00090027,0.122070,0.061035,-0.061035
3629554125,0.01493835,-0.00096130,-1.00120544,0.122070,0.061035,-0.061035
3631756208,0.01493835,-0.00096130,-1.00120544,0.000000,0.061035,-0.122070
3639361291,0.01449585,-0.00108337,-1.00119019,0.000000,0.061035,-0.122070
3641898750,0.01449585,-0.00108337,-1.00119019,0.061035,0.000000,-0.122070
3649490125,0.01605225,-0.00051880,-1.00007629,0.061035,0.000000,-0.122070
3652030708,0.01605225,-0.00051880,-1.00007629,-0.061035,0.122070,-0.061035
3659617625,0.01626587,-0.00022888,-0.99995422,-0.061035,0.122070,-0.061035
3662161916,0.01626587,-0.00022888,-0.99995422,0.000000,-0.061035,-0.122070
3669759166,0.01528931,-0.00073242,-0.99943542,0.000000,-0.061035,-0.122070
3671926458,0.01528931,-0.00073242,-0.99943542,0.061035,0.061035,-0.061035
3679187083,0.01620483,-0.00010681,-1.00038147,0.061035,0.061035,-0.061035
3681722125,0.01620483,-0.00010681,-1.00038147,0.000000,0.061035,0.000000
3689304458,0.01657104,-0.00047302,-0.99914551,0.000000,0.061035,0.000000
3691841083,0.01657104,-0.00047302,-0.99914551,0.061035,0.122070,-0.122070
3701967083,0.01574707,-0.00047302,-1.00068665,0.061035,0.000000,-0.122070
3711960166,0.01556396,0.00021362,-1.00120544,0.061035,0.061035,-0.122070
3719580833,0.01622009,-0.00056458,-1.00039673,0.061035,0.061035,-0.122070
3722124333,0.01622009,-0.00056458,-1.00039673,0.061035,0.000000,-0.183105
3729712708,0.01499939,-0.00070190,-1.00057983,0.061035,0.000000,-0.183105
3732260208,0.01499939,-0.00070190,-1.00057983,0.122070,0.061035,0.000000
3739844750,0.01452637,-0.00062561,-0.99993896,0.122070,0.061035,0.000000
3742387583,0.01452637,-0.00062561,-0.99993896,0.061035,-0.061035,-0.183105
3749984291,0.01467896,-0.00146484,-0.99996948,0.061035,-0.061035,-0.183105
3752317875,0.01467896,-0.00146484,-0.99996948,0.000000,-0.061035,-0.061035
3759899666,0.01464844,-0.00003052,-1.00181580,0.000000,-0.061035,-0.061035
3762448458,0.01464844,-0.00003052,-1.00181580,-0.122070,-0.122070,0.000000
3770051541,0.01539612,0.00071716,-1.00033569,-0.122070,-0.122070,0.000000
3772589083,0.01539612,0.00071716,-1.00033569,0.000000,0.000000,-0.061035
3780180416,0.01499939,-0.00032043,-1.00091553,0.000000,0.000000,-0.061035
3782729041,0.01499939,-0.00032043,-1.00091553,0.061035,0.183105,-0.122070
3790331750,0.01551819,-0.00091553,-1.00138855,0.061035,0.183105,-0.122070
3792869000,0.01551819,-0.00091553,-1.00138855,0.061035,0.000000,-0.183105
3800217958,0.01559448,0.00004578,-1.00122070,0.061035,0.000000,-0.183105
3802761416,0.01559448,0.00004578,-1.00122070,0.122070,0.000000,-0.183105
3810368750,0.01524353,-0.00033569,-1.00016785,0.122070,0.000000,-0.183105
3812938458,0.01524353,-0.00033569,-1.00016785,0.122070,0.061035,0.000000
3820543208,0.01487732,-0.00064087,-1.00085449,0.122070,0.061035,0.000000
3823084916,0.01487732,-0.00064087,-1.00085449,-0.061035,0.061035,0.000000
3830430375,0.01573181,-0.00030518,-0.99998474,-0.061035,0.061035,0.000000
3832990333,0.01573181,-0.00030518,-0.99998474,0.061035,0.061035,0.061035
3840578125,0.01387024,-0.00039673,-1.00025940,0.061035,0.061035,0.061035
3843135958,0.01387024,-0.00039673,-1.00025940,0.061035,0.122070,-0.122070
3850780416,0.01446533,-0.00044250,-1.00030518,0.061035,0.122070,-0.122070
3853335333,0.01446533,-0.00044250,-1.00030518,0.061035,0.000000,-0.122070
3860982541,0.01554871,0.00028992,-1.00025940,0.122070,0.122070,0.000000
3871130833,0.01660156,0.00015259,-1.00021362,0.183105,0.000000,0.000000
3881267625,0.01553345,-0.00103760,-1.00073242,0.000000,0.122070,-0.061035
3891391375,0.01560974,-0.00105286,-1.00122070,0.061035,0.122070,-0.061035
3901031250,0.01470947,0.00009155,-1.00068665,0.122070,-0.061035,-0.061035
3911184500,0.01516724,-0.00022888,-1.00057983,0.122070,0.122070,-0.122070
3921329833,0.01458740,-0.00064087,-1.00158691,0.000000,0.061035,0.000000
3931463416,0.01501465,-0.00094604,-1.00015259,0.183105,0.122070,-0.122070
3941154666,0.01574707,-0.00024414,-1.00024414,0.122070,0.183105,-0.122070
3950962208,0.01510620,-0.00045776,-1.00025940,0.122070,0.183105,-0.122070
3953512750,0.01510620,-0.00045776,-1.00025940,0.183105,0.000000,-0.061035
3961113833,0.01385498,-0.00041199,-1.00013733,0.183105,0.000000,-0.061035
3963651500,0.01385498,-0.00041199,-1.00013733,0.000000,0.122070,0.061035
3971260833,0.01516724,-0.00007629,-1.00143433,0.000000,0.122070,0.061035
3973799875,0.01516724,-0.00007629,-1.00143433,0.000000,0.122070,-0.061035
3981386750,0.01597595,-0.00030518,-1.00047302,0.000000,0.122070,-0.061035
3983936833,0.01597595,-0.00030518,-1.00047302,0.000000,-0.183105,-0.122070
3991534000,0.01536560,-0.00064087,-0.99978638,0.000000,0.244141,-0.122070
4001662333,0.01527405,-0.00100708,-1.00038147,-0.061035,0.061035,-0.122070
4011793416,0.01498413,-0.00090027,-1.00038147,-0.122070,0.061035,-0.122070
4021919708,0.01600647,-0.00132751,-1.00015259,0.122070,0.000000,-0.122070
4032056416,0.01588440,-0.00073242,-1.00144958,0.000000,0.000000,-0.122070
4041888375,0.01583862,0.00061035,-1.00057983,0.061035,0.000000,-0.183105
4051835416,0.01467896,0.00000000,-1.00106812,0.122070,-0.061035,-0.183105
4061955666,0.01461792,0.00007629,-0.99963379,0.061035,0.244141,-0.061035
4071661208,0.01495361,0.00045776,-1.00051880,0.061035,0.183105,0.000000
4081773750,0.01507568,-0.00051880,-0.99911499,-0.183105,-0.061035,-0.122070
4091891458,0.01602173,-0.00038147,-1.00000000,0.061035,-0.061035,-0.183105
4102018000,0.01493835,-0.00163269,-0.99981689,0.122070,0.000000,0.061035
4111787750,0.01448059,-0.00173950,-1.00010681,0.061035,0.122070,-0.183105
4121934708,0.01644897,-0.00073242,-1.00193787,0.000000,0.061035,-0.061035
4132066750,0.01646423,-0.00076294,-1.00045776,0.000000,0.122070,0.000000
4142188916,0.01545715,0.00015259,-1.00024414,-0.061035,0.000000,-0.122070
4151959791,0.01527405,-0.00030518,-1.00070190,0.000000,0.061035,-0.122070
4162143291,0.01507568,0.00016785,-1.00035095,0.061035,0.122070,-0.122070
4172272625,0.01626587,0.00003052,-1.00032043,0.061035,0.122070,0.061035
4182409333,0.01617432,-0.00028992,-1.00056458,0.061035,0.122070,-0.122070
4192444041,0.01536560,0.00010681,-1.00076294,0.305176,0.000000,0.061035
4202329791,0.01483154,0.00019836,-1.00056458,0.061035,0.000000,0.000000
4212171500,0.01429749,0.00012207,-1.00119019,-0.061035,0.000000,-0.183105
4222358958,0.01428223,-0.00053406,-1.00114441,0.122070,-0.122070,0.061035
4232471708,0.01506042,-0.00071716,-1.00209045,0.122070,0.183105,-0.061035
4242181500,0.01512146,-0.00045776,-1.00053406,0.061035,0.183105,0.000000
4252313500,0.01547241,-0.00109863,-1.00137329,0.305176,-0.122070,-0.061035
4262230791,0.01432800,-0.00132751,-0.99716187,-0.061035,0.183105,-0.183105
4272377000,0.01446533,-0.00074768,-1.00247192,0.061035,0.000000,-0.122070
4282185458,0.01487732,-0.00077820,-1.00471497,0.000000,0.061035,-0.061035
4292183458,0.01419067,0.00059509,-0.99575806,0.000000,-0.061035,-0.122070
4302337791,0.01455688,-0.00033569,-1.00373840,0.000000,-0.061035,-0.122070
4304887708,0.01455688,-0.00033569,-1.00373840,0.122070,0.000000,0.000000
4312479125,0.01571655,0.00090027,-1.00019836,0.122070,0.000000,0.000000
4315031083,0.01571655,0.00090027,-1.00019836,-0.061035,0.122070,0.000000
4322595708,0.01539612,0.00057983,-1.00083923,0.488281,-0.183105,0.000000
4332586500,0.01605225,0.00025940,-0.99929810,0.488281,-0.183105,0.000000
4335131208,0.01605225,0.00025940,-0.99929810,-0.122070,-0.122070,0.061035
4342729583,0.01588440,-0.00012207,-1.00527954,0.061035,0.183105,0.061035
4352904833,0.01564026,0.00015259,-0.99801636,-0.061035,0.061035,-0.061035
4363009750,0.01435852,-0.00010681,-1.00320435,0.000000,0.061035,-0.061035
4373169791,0.01515198,-0.00125122,-0.99868774,0.061035,0.061035,-0.122070
4383326125,0.01506042,-0.00091553,-1.00280762,0.061035,0.061035,-0.122070
4393286916,0.01506042,-0.00041199,-0.99996948,0.000000,0.061035,-0.061035
4403425333,0.01531982,-0.00163269,-1.00051880,0.183105,-0.244141,-0.122070
4413570250,0.01467896,-0.00096130,-0.99974060,-0.183105,0.122070,-0.122070
4423758750,0.01565552,0.00083923,-1.00274658,0.183105,0.061035,-0.122070
4433889333,0.01577759,0.00062561,-0.99763489,0.305176,-0.061035,-0.061035
4444030458,0.01496887,0.00021362,-1.00028992,0.122070,0.000000,0.000000
4451644791,0.01499939,-0.00016785,-0.99905396,0.122070,0.000000,0.000000
4454188625,0.01499939,-0.00016785,-0.99905396,0.122070,0.000000,-0.061035
4461652416,0.01573181,0.00000000,-1.00149536,0.122070,0.000000,-0.061035
4464204875,0.01573181,0.00000000,-1.00149536,-0.061035,0.061035,-0.122070
4474112708,0.01596069,-0.00096130,-1.00067139,0.061035,0.061035,-0.122070
4481713833,0.01489258,-0.00276184,-1.00120544,0.061035,0.061035,-0.122070
4484280250,0.01489258,-0.00276184,-1.00120544,0.000000,0.000000,-0.061035
4491869250,0.01545715,-0.00193787,-0.99942017,0.000000,0.000000,-0.061035
4494412208,0.01545715,-0.00193787,-0.99942017,0.000000,0.000000,-0.061035
4501996708,0.01499939,-0.00183105,-1.00091553,0.000000,0.000000,-0.061035
4504538750,0.01499939,-0.00183105,-1.00091553,0.000000,0.122070,-0.061035
4511880250,0.01400757,-0.00074768,-1.00093079,0.000000,0.122070,-0.061035
4514421750,0.01400757,-0.00074768,-1.00093079,-0.061035,0.000000,-0.183105
4521822208,0.01538086,-0.00042725,-0.99977112,-0.061035,0.000000,-0.183105
4524375708,0.01538086,-0.00042725,-0.99977112,-0.061035,0.000000,-0.183105
4531974916,0.01560974,0.00143433,-1.00100708,-0.061035,0.000000,-0.183105
4534527875,0.01560974,0.00143433,-1.00100708,0.000000,0.061035,0.000000
4542122791,0.01512146,0.00234985,-1.00021362,0.000000,0.061035,0.000000
4544665583,0.01512146,0.00234985,-1.00021362,0.488281,0.000000,-0.061035
4552265708,0.01434326,0.00151062,-0.99754333,0.488281,0.000000,-0.061035
4554814458,0.01434326,0.00151062,-0.99754333,0.305176,0.366211,0.061035
4562396375,0.01556396,0.00057983,-0.99694824,0.305176,0.366211,0.061035
4564926375,0.01556396,0.00057983,-0.99694824,0.122070,0.000000,-0.061035
4572476500,0.01641846,0.00012207,-1.00762939,0.122070,0.000000,-0.061035
4575021083,0.01641846,0.00012207,-1.00762939,0.122070,0.061035,-0.183105
4582644416,0.01667786,0.00003052,-1.00318909,0.122070,0.061035,-0.183105
4585214125,0.01667786,0.00003052,-1.00318909,-0.671387,0.244141,-0.061035
4592843208,0.01506042,-0.00212097,-0.98731995,-0.671387,0.244141,-0.061035
4595413291,0.01506042,-0.00212097,-0.98731995,-0.122070,-0.122070,-0.183105
4603001583,0.01461792,-0.00358582,-1.01577759,-0.366211,-0.183105,-0.061035
4613061541,0.01539612,-0.00192261,-0.99113464,-0.061035,0.061035,-0.183105
4623121958,0.01521301,-0.00152588,-1.00924683,-0.183105,0.244141,-0.061035
4633193416,0.01463318,-0.00068665,-0.99725342,0.061035,0.061035,-0.061035
4643256750,0.01544189,-0.00006104,-1.00080872,0.000000,0.000000,-0.061035
4652834791,0.01580811,0.00218201,-1.00090027,0.000000,0.000000,-0.061035
4655360166,0.01580811,0.00218201,-1.00090027,0.000000,0.000000,-0.183105
4662920333,0.01496887,0.00193787,-1.00138855,0.000000,0.000000,-0.183105
4665452250,0.01496887,0.00193787,-1.00138855,0.549316,0.000000,-0.061035
4672694291,0.01576233,0.00196838,-0.99884033,0.549316,0.000000,-0.061035
4675232125,0.01576233,0.00196838,-0.99884033,0.000000,0.000000,-0.061035
4682456333,0.01626587,0.00123596,-1.00712585,0.000000,0.000000,-0.061035
4684989875,0.01626587,0.00123596,-1.00712585,0.305176,0.244141,-0.061035
4692558916,0.01501465,0.00112915,-0.99491882,0.305176,0.244141,-0.061035
4695091333,0.01501465,0.00112915,-0.99491882,0.061035,0.000000,-0.061035
4702655166,0.01406860,0.00028992,-1.00140381,0.061035,0.000000,-0.061035
4705183208,0.01406860,0.00028992,-1.00140381,0.122070,0.061035,-0.061035
4712768250,0.01489258,-0.00164795,-0.99984741,0.122070,0.061035,-0.061035
4715296125,0.01489258,-0.00164795,-0.99984741,0.061035,0.000000,-0.122070
4722863791,0.01676941,-0.00395203,-1.00221252,0.061035,0.000000,-0.122070
4725402750,0.01676941,-0.00395203,-1.00221252,-0.122070,0.122070,-0.122070
4733015041,0.01533508,-0.00260925,-0.99024963,-0.122070,0.122070,-0.122070
4735551458,0.01533508,-0.00260925,-0.99024963,0.000000,0.061035,-0.122070
4742881375,0.01559448,-0.00199890,-1.01809692,0.000000,0.061035,-0.122070
4745418875,0.01559448,-0.00199890,-1.01809692,-0.183105,0.061035,-0.122070
4752761750,0.01524353,-0.00199890,-0.98735046,-0.183105,0.061035,-0.122070
4755298541,0.01524353,-0.00199890,-0.98735046,0.976562,0.000000,-0.122070
4765089916,0.01582336,0.00077820,-1.00588989,0.122070,0.122070,-0.122070
4772624750,0.01589966,0.00094604,-1.00193787,0.122070,0.122070,-0.122070
4775214583,0.01589966,0.00094604,-1.00193787,0.427246,0.122070,-0.122070
4782818250,0.01571655,0.00152588,-0.99736023,0.427246,0.122070,-0.122070
4785368166,0.01571655,0.00152588,-0.99736023,0.000000,0.000000,0.000000
4792853416,0.01559448,0.00128174,-1.00726318,0.000000,0.000000,0.000000
4795400583,0.01559448,0.00128174,-1.00726318,0.061035,-0.061035,-0.122070
4805097875,0.01518250,0.00036621,-0.99702454,0.183105,0.000000,0.061035
4812704083,0.01495361,0.00070190,-1.00300598,0.183105,0.000000,0.061035
4815248041,0.01495361,0.00070190,-1.00300598,0.183105,-0.122070,-0.122070
4822858166,0.01528931,0.00057983,-0.99700928,0.183105,-0.122070,-0.122070
4825410708,0.01528931,0.00057983,-0.99700928,-0.793457,0.183105,-0.061035
4833007625,0.01550293,0.00039673,-1.00357056,-0.793457,0.183105,-0.061035
4835568125,0.01550293,0.00039673,-1.00357056,0.122070,0.000000,0.000000
4843100666,0.01516724,-0.00019836,-0.99848938,0.122070,0.000000,0.000000
4845652208,0.01516724,-0.00019836,-0.99848938,-0.122070,-0.061035,-0.061035
4853259583,0.01509094,-0.00035095,-0.99977112,-0.122070,-0.061035,-0.061035
4855808041,0.01509094,-0.00035095,-0.99977112,0.000000,0.000000,0.000000
4863412041,0.01629639,-0.00067139,-1.00062561,0.000000,0.000000,0.000000
4865949916,0.01629639,-0.00067139,-1.00062561,-0.061035,0.183105,-0.061035
4873529333,0.01591492,-0.00151062,-1.00192261,-0.061035,0.183105,-0.061035
4876064958,0.01591492,-0.00151062,-1.00192261,0.061035,0.244141,0.061035
4883651750,0.01557922,-0.00222778,-0.99913025,0.061035,0.244141,0.061035
4886253333,0.01557922,-0.00222778,-0.99913025,0.000000,0.122070,0.000000
4893915166,0.01466370,-0.00144958,-0.99975586,0.061035,0.000000,-0.061035
4904100541,0.01496887,-0.00074768,-1.00064087,0.000000,0.000000,-0.061035
4914260708,0.01484680,-0.00048828,-1.00035095,-0.061035,0.000000,-0.122070
4924503083,0.01408386,0.00022888,-0.99986267,0.488281,0.122070,-0.061035
4934682083,0.01417542,0.00044250,-0.99806213,-0.427246,0.061035,-0.122070
4944863000,0.01487732,0.00109863,-0.99511719,0.244141,-0.061035,-0.061035
4955045958,0.01695251,0.00010681,-1.01199341,-0.122070,0.061035,-0.122070
4964793416,0.01721191,-0.00123596,-0.99137878,0.061035,0.183105,-0.061035
4974680541,0.01690674,-0.00141907,-1.00622559,-0.183105,0.183105,0.061035
4984849291,0.01538086,-0.00022888,-1.00114441,0.000000,-0.061035,-0.061035
4994577208,0.01359558,0.00112915,-1.00231934,-0.183105,0.000000,-0.061035
5004499250,0.01412964,-0.00007629,-1.00115967,-0.183105,0.000000,-0.061035
5006791166,0.01412964,-0.00007629,-1.00115967,-0.183105,0.061035,-0.122070
5014382875,0.01380920,-0.00086975,-0.99859619,-0.183105,0.061035,-0.122070
5016943166,0.01380920,-0.00086975,-0.99859619,-0.244141,0.061035,-0.061035
5024590875,0.01518250,0.00021362,-1.00218201,0.000000,0.061035,-0.183105
5034781375,0.01588440,0.00096130,-0.99885559,0.122070,0.122070,-0.061035
5044648416,0.01649475,0.00045776,-0.99971008,0.061035,0.122070,-0.122070
5054787708,0.01727295,0.00093079,-0.99874878,0.000000,0.061035,-0.183105
5064909625,0.01741028,0.00080872,-1.00106812,0.000000,0.122070,-0.061035
5075044708,0.01614380,0.00045776,-1.00054932,0.061035,0.061035,0.061035
5085175375,0.01391602,0.00070190,-0.99990845,0.061035,0.000000,0.000000
5095340375,0.01440430,-0.00050354,-0.99980164,-0.061035,-0.061035,-0.122070
5105486916,0.01553345,-0.00216675,-1.00079346,0.183105,-0.122070,-0.061035
5115601541,0.01487732,-0.00219727,-0.99922180,0.122070,0.244141,0.000000
5125759416,0.01487732,-0.00251770,-1.00177002,0.183105,0.061035,-0.122070
5135889958,0.01713562,-0.00132751,-0.99931335,0.122070,0.061035,-0.061035
5146047791,0.01603699,-0.00003052,-1.00016785,0.061035,0.183105,-0.061035
5153697708,0.01559448,0.00131226,-1.00177002,0.061035,0.183105,-0.061035
5156266083,0.01559448,0.00131226,-1.00177002,0.122070,0.061035,-0.122070
5163662541,0.01651001,0.00341797,-1.00032043,0.122070,0.061035,-0.122070
5166245333,0.01651001,0.00341797,-1.00032043,0.183105,0.061035,-0.122070
5173871916,0.01641846,0.00263977,-0.99937439,0.183105,0.061035,-0.122070
5176420416,0.01641846,0.00263977,-0.99937439,0.976562,0.244141,-0.061035
5184017500,0.01644897,0.00186157,-1.00196838,0.976562,0.244141,-0.061035
5186565458,0.01644897,0.00186157,-1.00196838,0.549316,-0.183105,-0.183105
5194206791,0.01676941,-0.00018311,-1.00135803,0.549316,-0.183105,-0.183105
5196761000,0.01676941,-0.00018311,-1.00135803,0.244141,0.122070,-0.122070
5204374416,0.01545715,-0.00080872,-0.99876404,0.244141,0.122070,-0.122070
5206923458,0.01545715,-0.00080872,-0.99876404,0.122070,0.061035,-0.061035
5214527000,0.01477051,-0.00212097,-1.00347900,0.122070,0.061035,-0.061035
5216910708,0.01477051,-0.00212097,-1.00347900,-0.061035,-0.061035,-0.122070
5224523416,0.01319885,-0.00328064,-0.99780273,-0.061035,-0.061035,-0.122070
5227070083,0.01319885,-0.00328064,-0.99780273,-0.061035,-0.122070,-0.122070
5234657791,0.01408386,-0.00181580,-1.00180054,-0.061035,-0.122070,-0.122070
5237307500,0.01408386,-0.00181580,-1.00180054,-0.183105,0.061035,-0.061035
5244989458,0.01432800,-0.00108337,-0.99926758,0.000000,0.122070,-0.061035
5255156375,0.01573181,-0.00028992,-1.00050354,-0.793457,0.000000,0.061035
5265340916,0.01719666,0.00059509,-0.99838257,-0.244141,0.122070,-0.122070
5275492291,0.01850891,0.00158691,-1.00537109,-0.061035,0.061035,0.000000
5285610083,0.01727295,0.00205994,-0.99534607,-0.061035,0.061035,0.061035
5295737208,0.01617432,0.00245667,-1.00277710,-0.183105,-0.061035,-0.061035
5305667791,0.01458740,0.00241089,-1.00070190,0.061035,-0.183105,-0.183105
5315805458,0.01502991,0.00097656,-1.00041199,0.061035,0.000000,-0.061035
5325952791,0.01551819,-0.00056458,-1.00109863,0.000000,0.000000,-0.061035
5335778375,0.01496887,-0.00218201,-0.99923706,0.000000,0.061035,-0.122070
5345635500,0.01599121,-0.00305176,-1.00123596,0.061035,0.000000,-0.122070
5355741250,0.01605225,-0.00158691,-1.00109863,0.000000,0.000000,-0.183105
5365639958,0.01525879,-0.00077820,-1.00219727,0.061035,0.000000,0.000000
5375535125,0.01473999,0.00044250,-1.00056458,0.122070,-0.183105,-0.122070
5385668625,0.01582336,0.00167847,-0.99801636,0.061035,0.061035,-0.183105
5395795375,0.01379395,0.00151062,-1.00262451,0.183105,0.061035,0.061035
5405754166,0.01329041,0.00096130,-1.00097656,0.366211,-0.122070,-0.183105
5415893833,0.01467896,0.00047302,-0.99819946,-0.061035,0.000000,-0.061035
5426029416,0.01519775,-0.00028992,-1.00590515,-0.122070,0.000000,-0.061035
5436165416,0.01608276,0.00083923,-0.99696350,-0.061035,0.061035,0.000000
5446316666,0.01609802,0.00160217,-1.00346375,-0.061035,0.183105,0.000000
5456429125,0.01515198,0.00149536,-1.00021362,0.061035,0.061035,0.061035
5466548541,0.01553345,0.00080872,-1.00250244,0.061035,0.000000,0.061035
5476299916,0.01626587,-0.00143433,-0.99768066,0.061035,-0.061035,-0.122070
5486421916,0.01681519,-0.00277710,-1.00366211,0.000000,-0.061035,-0.244141
5496555625,0.01507568,-0.00167847,-0.99594116,0.000000,0.183105,-0.061035
5506675125,0.01445007,-0.00032043,-1.00059509,0.122070,0.061035,-0.122070
5516778750,0.01448059,0.00082397,-1.00054932,0.122070,-0.061035,0.000000
5526863458,0.01483154,0.00215149,-1.00108337,-0.061035,0.061035,-0.061035
5537024083,0.01643372,0.00262451,-1.00149536,-0.122070,0.061035,-0.061035
5544633250,0.01679993,0.00238037,-0.99897766,-0.122070,0.061035,-0.061035
5547184166,0.01679993,0.00238037,-0.99897766,0.000000,0.061035,-0.061035
5554779000,0.01690674,0.00090027,-1.00015259,0.000000,0.061035,-0.061035
5557337333,0.01690674,0.00090027,-1.00015259,-0.061035,0.000000,-0.061035
5564941125,0.01713562,0.00018311,-0.99949646,-0.061035,0.000000,-0.061035
5567493333,0.01713562,0.00018311,-0.99949646,0.122070,0.000000,0.000000
5575088041,0.01559448,-0.00131226,-0.99972534,0.122070,0.000000,0.000000
5577628291,0.01559448,-0.00131226,-0.99972534,0.183105,-0.122070,-0.183105
5585211791,0.01402283,-0.00170898,-1.00006104,0.183105,-0.122070,-0.183105
5587750458,0.01402283,-0.00170898,-1.00006104,0.122070,-0.122070,-0.122070
5595336750,0.01483154,-0.00195312,-1.00064087,0.122070,-0.122070,-0.122070
5597880416,0.01483154,-0.00195312,-1.00064087,0.000000,0.061035,-0.122070
5605333000,0.01560974,-0.00221252,-0.99995422,0.000000,0.061035,-0.122070
5607890166,0.01560974,-0.00221252,-0.99995422,0.122070,-0.183105,-0.061035
5615213583,0.01629639,-0.00045776,-0.99681091,0.122070,-0.183105,-0.061035
5617764333,0.01629639,-0.00045776,-0.99681091,-0.061035,0.000000,-0.061035
5625362583,0.01553345,0.00009155,-1.00280762,-0.061035,0.000000,-0.061035
5627913291,0.01553345,0.00009155,-1.00280762,-0.061035,-0.122070,-0.122070
5635501291,0.01629639,0.00119019,-1.00260925,-0.061035,-0.122070,-0.122070
5638038708,0.01629639,0.00119019,-1.00260925,0.122070,0.488281,-0.061035
5645260833,0.01547241,0.00126648,-0.99940491,0.122070,0.488281,-0.061035
5647812833,0.01547241,0.00126648,-0.99940491,0.244141,0.061035,0.000000
5655241583,0.01594543,0.00082397,-0.99819946,0.244141,0.061035,0.000000
5657830333,0.01594543,0.00082397,-0.99819946,0.122070,-0.061035,-0.061035
5665467500,0.01612854,0.00086975,-1.00572205,0.122070,-0.061035,-0.061035
5668017708,0.01612854,0.00086975,-1.00572205,0.183105,0.000000,-0.061035
5675673541,0.01556396,0.00172424,-0.99650574,0.183105,0.000000,-0.061035
5678221375,0.01556396,0.00172424,-0.99650574,-0.061035,0.122070,-0.122070
5685820458,0.01576233,0.00103760,-1.00357056,-0.061035,0.122070,-0.122070
5688109916,0.01576233,0.00103760,-1.00357056,0.061035,0.061035,-0.183105
5695650875,0.01600647,0.00122070,-0.99891663,0.061035,0.061035,-0.183105
5698203416,0.01600647,0.00122070,-0.99891663,0.061035,0.183105,0.000000
5705798916,0.01675415,0.00047302,-1.00321960,0.061035,0.183105,0.000000
5708337458,0.01675415,0.00047302,-1.00321960,-0.061035,0.122070,-0.061035
5715933166,0.01527405,0.00050354,-0.99876404,-0.061035,0.122070,-0.061035
5718472333,0.01527405,0.00050354,-0.99876404,0.000000,0.183105,-0.061035
5726063500,0.01586914,-0.00111389,-1.00146484,0.000000,0.183105,-0.061035
5728616666,0.01586914,-0.00111389,-1.00146484,0.000000,0.061035,-0.061035
5735929833,0.01542664,-0.00099182,-1.00025940,0.000000,0.061035,-0.061035
5738517083,0.01542664,-0.00099182,-1.00025940,0.366211,0.488281,-0.061035
5746130625,0.01589966,-0.00079346,-1.00048828,0.366211,0.488281,-0.061035
5748671166,0.01589966,-0.00079346,-1.00048828,0.183105,0.061035,-0.122070
5755998916,0.01483154,0.00027466,-1.00329590,0.183105,0.061035,-0.122070
5758538333,0.01483154,0.00027466,-1.00329590,0.000000,0.000000,-0.122070
5766130541,0.01498413,0.00099182,-0.99584961,0.000000,0.000000,-0.122070
5768666958,0.01498413,0.00099182,-0.99584961,0.183105,0.000000,-0.122070
5776262958,0.01649475,0.00003052,-1.00065613,0.183105,0.000000,-0.122070
5778579500,0.01649475,0.00003052,-1.00065613,0.000000,0.061035,-0.122070
5786162166,0.01556396,0.00125122,-1.00016785,0.000000,0.061035,-0.122070
5788705375,0.01556396,0.00125122,-1.00016785,0.183105,0.061035,0.000000
5796292250,0.01525879,0.00158691,-1.00228882,0.183105,0.061035,0.000000
5798831291,0.01525879,0.00158691,-1.00228882,0.061035,0.061035,0.000000
5806416375,0.01528931,0.00190735,-1.00080872,0.061035,0.061035,0.000000
5808966458,0.01528931,0.00190735,-1.00080872,0.183105,-0.061035,0.000000
5816613291,0.01533508,0.00257874,-1.00114441,0.122070,0.183105,0.122070
5826589416,0.01518250,0.00354004,-1.00018311,0.122070,0.183105,0.122070
5829140250,0.01518250,0.00354004,-1.00018311,0.000000,0.000000,0.000000
5836764125,0.01458740,0.00122070,-0.99969482,0.122070,0.122070,-0.122070
5846917166,0.01481628,0.00057983,-0.99983215,0.061035,0.061035,0.000000
5857039208,0.01602173,0.00080872,-1.00125122,0.122070,0.000000,0.000000
5867168875,0.01661682,-0.00024414,-1.00093079,0.000000,0.061035,-0.183105
5877317375,0.01618958,-0.00103760,-0.99974060,0.183105,0.000000,-0.183105
5887433208,0.01477051,-0.00169373,-1.00051880,-0.061035,0.000000,0.000000
5897546916,0.01385498,-0.00173950,-1.00202942,0.671387,0.366211,-0.061035
5907476875,0.01470947,-0.00102234,-0.99008179,-0.061035,-0.061035,-0.061035
5917617541,0.01571655,-0.00091553,-1.01051331,0.122070,0.000000,-0.061035
5927758291,0.01486206,0.00080872,-0.99880981,-0.061035,0.061035,-0.122070
5937912583,0.01466370,0.00128174,-1.00022888,-0.061035,0.122070,-0.061035
5948101750,0.01502991,0.00231934,-1.00370789,0.061035,0.183105,-0.061035
5957977500,0.01473999,0.00349426,-1.00071716,0.000000,0.061035,-0.061035
5967814583,0.01498413,0.00360107,-1.00105286,0.000000,0.183105,-0.061035
5977947458,0.01525879,0.00115967,-1.00186157,-0.061035,0.061035,-0.183105
5988084875,0.01618958,-0.00122070,-0.99967957,0.183105,0.122070,0.000000
5998216333,0.01548767,-0.00297546,-0.99847412,0.183105,0.000000,-0.061035
6005811333,0.01493835,-0.00447083,-0.99818420,0.183105,0.000000,-0.061035
6008353291,0.01493835,-0.00447083,-0.99818420,0.488281,0.366211,0.000000
6015961041,0.01428223,-0.00469971,-1.00028992,0.488281,0.366211,0.000000
6018505708,0.01428223,-0.00469971,-1.00028992,0.427246,0.122070,0.000000
6026101833,0.01451111,-0.00141907,-1.00189209,0.427246,0.122070,0.000000
6028657750,0.01451111,-0.00141907,-1.00189209,-0.061035,0.000000,-0.183105
6036302250,0.01385498,0.00204468,-0.99656677,-0.061035,0.000000,-0.183105
6038850750,0.01385498,0.00204468,-0.99656677,0.122070,-0.061035,-0.061035
6046439541,0.01432800,0.00343323,-1.00163269,0.122070,-0.061035,-0.061035
6048980375,0.01432800,0.00343323,-1.00163269,0.000000,0.183105,-0.122070
6056592208,0.01512146,0.00456238,-0.99955750,0.000000,0.183105,-0.122070
6059144375,0.01512146,0.00456238,-0.99955750,0.000000,0.000000,-0.122070
6066776541,0.01657104,0.00439453,-1.00158691,0.000000,0.000000,-0.122070
6069337291,0.01657104,0.00439453,-1.00158691,0.061035,0.061035,-0.061035
6076919125,0.01663208,0.00285339,-1.00248718,0.061035,0.061035,-0.061035
6079452541,0.01663208,0.00285339,-1.00248718,0.000000,0.061035,0.061035
6087015333,0.01620483,0.00086975,-0.99984741,0.000000,0.061035,0.061035
6089558958,0.01620483,0.00086975,-0.99984741,0.061035,0.061035,-0.183105
6096988750,0.01536560,-0.00003052,-0.99984741,0.061035,0.061035,-0.183105
6099527000,0.01536560,-0.00003052,-0.99984741,0.061035,0.122070,-0.122070
6106873250,0.01469421,-0.00053406,-0.99972534,0.061035,0.122070,-0.122070
6109414833,0.01469421,-0.00053406,-0.99972534,-0.061035,0.061035,-0.061035
6116784958,0.01426697,-0.00047302,-1.00071716,-0.061035,0.061035,-0.061035
6119371541,0.01426697,-0.00047302,-1.00071716,0.000000,0.183105,0.061035
6126980333,0.01539612,-0.00030518,-0.99946594,0.000000,0.183105,0.061035
6129543208,0.01539612,-0.00030518,-0.99946594,0.000000,0.061035,-0.061035
6137140500,0.01695251,-0.00053406,-1.00009155,0.000000,0.061035,-0.061035
6139683041,0.01695251,-0.00053406,-1.00009155,0.061035,0.000000,0.000000
6147279375,0.01646423,-0.00062561,-1.00064087,0.061035,0.000000,0.000000
6149758416,0.01646423,-0.00062561,-1.00064087,0.000000,0.000000,-0.061035
6157366625,0.01644897,-0.00018311,-1.00067139,0.000000,0.000000,-0.061035
6159933375,0.01644897,-0.00018311,-1.00067139,0.244141,0.061035,-0.183105
6167603416,0.01577759,0.00022888,-1.00155640,0.061035,0.061035,0.061035
6177738791,0.01383972,0.00035095,-1.00209045,0.122070,0.061035,-0.061035
6187867375,0.01486206,0.00007629,-1.00154114,0.122070,0.000000,-0.122070
6197724833,0.01506042,0.00051880,-1.00088501,0.183105,0.061035,-0.061035
6207845291,0.01545715,0.00093079,-1.00146484,0.183105,-0.061035,-0.061035
6217985291,0.01625061,0.00062561,-1.00042725,0.122070,-0.183105,-0.244141
6228020625,0.01609802,0.00030518,-0.99467468,-0.183105,0.061035,0.000000
6238207958,0.01640320,-0.00042725,-1.00215149,-0.244141,0.305176,-0.183105
6247918916,0.01618958,-0.00016785,-1.00593567,0.122070,0.000000,-0.183105
6258073500,0.01470947,0.00106812,-1.00007629,0.122070,0.000000,-0.122070
6267791458,0.01521301,-0.00024414,-1.00320435,0.000000,-0.122070,-0.061035
6278020458,0.01417542,0.00050354,-1.00125122,0.061035,-0.122070,-0.061035
6288265791,0.01432800,0.00218201,-0.99882507,0.000000,0.122070,0.000000
6298491458,0.01565552,0.00193787,-1.00114441,0.000000,-0.122070,-0.122070
6308181000,0.01731873,0.00210571,-1.00016785,0.183105,0.000000,-0.122070
6317971625,0.01690674,0.00125122,-1.00115967,0.183105,-0.061035,-0.061035
6328162291,0.01522827,0.00164795,-1.00027466,0.061035,-0.061035,-0.061035
6338904958,0.01507568,0.00007629,-1.00057983,0.000000,0.000000,-0.183105
6348838416,0.01464844,-0.00041199,-1.00074768,0.122070,-0.061035,0.000000
6359076041,0.01411438,-0.00170898,-0.99806213,0.183105,0.000000,-0.061035
6370094958,0.01312256,-0.00221252,-1.00338745,0.122070,0.061035,0.000000
6377773041,0.01469421,-0.00177002,-0.99971008,0.122070,0.061035,0.000000
6380362125,0.01469421,-0.00177002,-0.99971008,0.122070,0.000000,-0.061035
6388093541,0.01614380,-0.00143433,-1.00238037,0.122070,0.000000,-0.061035
6390750583,0.01614380,-0.00143433,-1.00238037,0.000000,-0.122070,-0.183105
6406376541,0.01655579,0.00044250,-0.99913025,0.061035,0.061035,-0.061035
6408907041,0.01440430,0.00041199,-1.00209045,0.183105,0.061035,-0.061035
6418956250,0.01441956,-0.00009155,-0.99998474,0.000000,0.061035,-0.061035
6429005333,0.01502991,0.00032043,-1.00016785,0.122070,0.122070,-0.122070
6439092833,0.01599121,0.00006104,-0.99987793,0.061035,0.061035,-0.061035
6449426625,0.01605225,-0.00077820,-0.99954224,0.122070,0.000000,-0.061035
6457143625,0.01571655,-0.00076294,-1.00067139,0.122070,0.000000,-0.061035
6459743583,0.01571655,-0.00076294,-1.00067139,0.061035,-0.061035,-0.183105
6467443333,0.01536560,-0.00032043,-1.00007629,0.061035,-0.061035,-0.183105
6470031333,0.01536560,-0.00032043,-1.00007629,0.122070,-0.061035,-0.061035
6480567791,0.01512146,-0.00028992,-1.00241089,0.122070,0.122070,-0.122070
6488224833,0.01531982,-0.00135803,-1.00100708,0.122070,0.122070,-0.122070
6490826250,0.01531982,-0.00135803,-1.00100708,0.061035,-0.061035,0.000000
6498592708,0.01579285,0.00016785,-1.00077820,0.061035,-0.061035,0.000000
6501163750,0.01579285,0.00016785,-1.00077820,0.000000,-0.061035,-0.122070
6508815416,0.01481628,0.00000000,-1.00024414,0.061035,0.061035,0.000000
6518806291,0.01428223,0.00038147,-1.00129700,0.061035,0.000000,0.000000
6528991458,0.01535034,0.00103760,-1.00196838,0.061035,-0.122070,-0.122070
6539071916,0.01513672,0.00097656,-1.00012207,0.061035,0.061035,0.061035
6549258125,0.01507568,0.00195312,-1.00148010,0.122070,0.061035,0.061035
6559407000,0.01544189,0.00167847,-1.00042725,0.183105,-0.061035,0.061035
6569612375,0.01606750,0.00088501,-1.00143433,0.000000,0.061035,0.000000
6579782125,0.01542664,0.00077820,-1.00082397,0.000000,0.061035,0.000000
6590019666,0.01615906,0.00119019,-1.00091553,0.183105,0.122070,0.000000
6597664958,0.01620483,-0.00010681,-1.00024414,0.183105,0.122070,0.000000
6600212916,0.01620483,-0.00010681,-1.00024414,0.061035,0.061035,0.061035
6607817875,0.01544189,-0.00085449,-1.00019836,0.061035,0.061035,0.061035
6610369541,0.01544189,-0.00085449,-1.00019836,0.244141,0.000000,-0.122070
6617959041,0.01512146,-0.00042725,-0.99992371,0.244141,0.000000,-0.122070
6620498291,0.01512146,-0.00042725,-0.99992371,0.183105,0.122070,-0.183105
6628086625,0.01445007,-0.00137329,-0.99893188,0.183105,0.122070,-0.183105
6630626625,0.01445007,-0.00137329,-0.99893188,0.183105,0.122070,-0.122070
6638242833,0.01383972,-0.00042725,-1.00083923,0.183105,0.122070,-0.122070
6640576500,0.01383972,-0.00042725,-1.00083923,0.122070,0.000000,0.000000
6648168375,0.01536560,-0.00062561,-1.00010681,0.122070,0.000000,0.000000
6650453375,0.01536560,-0.00062561,-1.00010681,0.000000,0.061035,0.000000
6658050041,0.01576233,-0.00009155,-1.00112915,0.000000,0.061035,0.000000
6660594250,0.01576233,-0.00009155,-1.00112915,0.061035,0.122070,-0.183105
6668206083,0.01501465,0.00073242,-0.99995422,0.061035,0.122070,-0.183105
6670747583,0.01501465,0.00073242,-0.99995422,0.061035,0.122070,-0.061035
6678342375,0.01528931,0.00048828,-1.00065613,0.061035,0.122070,-0.061035
6680877791,0.01528931,0.00048828,-1.00065613,0.122070,0.061035,0.061035
6688467125,0.01632690,0.00013733,-1.00036621,0.122070,0.061035,0.061035
6691014125,0.01632690,0.00013733,-1.00036621,0.183105,0.122070,0.000000
6698604291,0.01544189,-0.00003052,-1.00021362,0.183105,0.122070,0.000000
6701148416,0.01544189,-0.00003052,-1.00021362,0.122070,0.061035,-0.061035
6708748291,0.01460266,0.00064087,-0.99948120,0.122070,0.061035,-0.061035
6711285625,0.01460266,0.00064087,-0.99948120,0.000000,0.000000,-0.061035
6718653375,0.01547241,0.00021362,-1.00050354,0.000000,0.000000,-0.061035
6721204458,0.01547241,0.00021362,-1.00050354,0.183105,-0.061035,-0.183105
6728798291,0.01603699,0.00000000,-1.00013733,0.183105,-0.061035,-0.183105
6731338333,0.01603699,0.00000000,-1.00013733,0.122070,0.000000,0.000000
6738935541,0.01492310,-0.00054932,-0.99995422,0.122070,0.000000,0.000000
6741477000,0.01492310,-0.00054932,-0.99995422,0.122070,0.061035,0.000000
6749082875,0.01644897,-0.00085449,-1.00071716,0.122070,0.061035,0.000000
6751661500,0.01644897,-0.00085449,-1.00071716,0.122070,0.061035,-0.183105
6758948625,0.01669312,-0.00067139,-0.99998474,0.122070,0.061035,-0.183105
6761488000,0.01669312,-0.00067139,-0.99998474,0.244141,-0.122070,-0.122070
6769089791,0.01568604,-0.00085449,-1.00013733,0.244141,-0.122070,-0.122070
6771654458,0.01568604,-0.00085449,-1.00013733,0.183105,0.061035,-0.122070
6779247750,0.01580811,-0.00044250,-1.00012207,0.183105,0.061035,-0.122070
6781798750,0.01580811,-0.00044250,-1.00012207,0.061035,0.061035,-0.122070
6789138000,0.01463318,-0.00059509,-0.99887085,0.061035,0.061035,-0.122070
6791679166,0.01463318,-0.00059509,-0.99887085,0.122070,0.061035,-0.183105
6799029125,0.01547241,-0.00044250,-1.00028992,0.122070,0.061035,-0.183105
6801572916,0.01547241,-0.00044250,-1.00028992,0.061035,0.000000,-0.061035
6808914083,0.01556396,-0.00093079,-0.99888611,0.061035,0.000000,-0.061035
6811453666,0.01556396,-0.00093079,-0.99888611,0.061035,0.000000,-0.122070
6819042166,0.01663208,-0.00038147,-1.00065613,0.061035,0.000000,-0.122070
6821580791,0.01663208,-0.00038147,-1.00065613,0.183105,0.183105,-0.061035
6829079375,0.01515198,-0.00022888,-1.00057983,0.183105,0.183105,-0.061035
6831640708,0.01515198,-0.00022888,-1.00057983,0.122070,0.061035,-0.061035
6839024291,0.01431274,0.00067139,-0.99989319,0.122070,0.061035,-0.061035
6841565708,0.01431274,0.00067139,-0.99989319,0.244141,0.061035,-0.122070
6849153375,0.01409912,0.00003052,-0.99909973,0.244141,0.061035,-0.122070
6851693041,0.01409912,0.00003052,-0.99909973,0.305176,0.061035,-0.061035
6859283458,0.01408386,0.00090027,-0.99964905,0.305176,0.061035,-0.061035
6861821625,0.01408386,0.00090027,-0.99964905,0.183105,0.061035,-0.122070
6869404125,0.01477051,0.00132751,-1.00028992,0.183105,0.061035,-0.122070
6871544958,0.01477051,0.00132751,-1.00028992,0.122070,0.122070,0.000000
6879151083,0.01579285,0.00033569,-1.00141907,0.122070,0.122070,0.000000
6881698666,0.01579285,0.00033569,-1.00141907,0.183105,0.061035,-0.122070
6889292166,0.01528931,0.00134277,-1.00219727,0.183105,0.061035,-0.122070
6891831166,0.01528931,0.00134277,-1.00219727,0.122070,0.061035,-0.183105
6899411541,0.01454163,0.00234985,-0.99951172,0.122070,0.061035,-0.183105
6901948583,0.01454163,0.00234985,-0.99951172,0.000000,0.122070,-0.061035
6909251458,0.01502991,0.00077820,-1.00050354,0.000000,0.122070,-0.061035
6911786041,0.01502991,0.00077820,-1.00050354,0.122070,0.000000,-0.183105
6919366083,0.01535034,0.00018311,-1.00094604,0.122070,0.000000,-0.183105
6921901916,0.01535034,0.00018311,-1.00094604,0.244141,0.061035,0.000000
6929479583,0.01583862,-0.00010681,-1.00080872,0.244141,0.061035,0.000000
6932016833,0.01583862,-0.00010681,-1.00080872,0.244141,0.061035,0.000000
6939623250,0.01524353,-0.00157166,-1.00036621,0.244141,0.061035,0.000000
6942178625,0.01524353,-0.00157166,-1.00036621,0.061035,0.122070,0.000000
6949429333,0.01498413,-0.00260925,-0.99932861,0.061035,0.122070,0.000000
6951972125,0.01498413,-0.00260925,-0.99932861,0.061035,0.061035,-0.122070
6959631083,0.01478577,-0.00141907,-1.00160217,0.061035,0.061035,-0.122070
6962199583,0.01478577,-0.00141907,-1.00160217,0.244141,0.183105,0.000000
6969813666,0.01469421,0.00022888,-0.99974060,0.122070,0.122070,-0.061035
6979850791,0.01519775,0.00015259,-1.00112915,0.122070,0.000000,-0.061035
6989974291,0.01589966,-0.00009155,-1.00108337,0.183105,0.061035,0.000000
7000120166,0.01585388,0.00013733,-1.00126648,0.183105,0.061035,-0.061035
7010246041,0.01615906,-0.00003052,-1.00183105,0.000000,0.122070,-0.122070
7020175625,0.01573181,0.00009155,-1.00076294,0.122070,0.000000,-0.244141
7030297125,0.01486206,-0.00030518,-0.99957275,0.061035,0.061035,-0.183105
7040416166,0.01536560,-0.00163269,-1.00077820,0.061035,0.061035,-0.122070
7050312583,0.01554871,-0.00183105,-1.00112915,0.000000,0.000000,-0.183105
7060447708,0.01597595,-0.00151062,-1.00071716,0.000000,0.000000,-0.061035
7070601000,0.01573181,-0.00077820,-1.00132751,0.244141,0.061035,-0.061035
7080337625,0.01467896,-0.00083923,-1.00111389,0.122070,0.061035,-0.061035
7089938958,0.01480103,-0.00013733,-1.00016785,0.122070,0.061035,-0.061035
7092492291,0.01480103,-0.00013733,-1.00016785,0.183105,0.061035,0.000000
7100086458,0.01518250,0.00178528,-1.00001526,0.183105,0.061035,0.000000
7102626833,0.01518250,0.00178528,-1.00001526,0.183105,0.122070,0.000000
7110228875,0.01460266,0.00199890,-1.00009155,0.183105,0.122070,0.000000
7112775166,0.01460266,0.00199890,-1.00009155,0.061035,0.000000,-0.061035
7120366041,0.01498413,0.00149536,-1.00093079,0.061035,0.000000,-0.061035
7122901583,0.01498413,0.00149536,-1.00093079,0.000000,-0.061035,-0.122070
7130494125,0.01571655,0.00137329,-1.00028992,0.000000,-0.061035,-0.122070
7133046291,0.01571655,0.00137329,-1.00028992,-0.061035,0.122070,-0.122070
7140343541,0.01544189,0.00074768,-1.00155640,-0.061035,0.122070,-0.122070
7142893750,0.01544189,0.00074768,-1.00155640,0.000000,-0.061035,-0.122070
7150485833,0.01515198,-0.00082397,-1.00045776,0.000000,-0.061035,-0.122070
7153036958,0.01515198,-0.00082397,-1.00045776,0.000000,0.061035,-0.122070
7160634083,0.01464844,-0.00083923,-0.99995422,0.061035,0.000000,-0.183105
7170611000,0.01533508,-0.00186157,-1.00064087,0.000000,0.000000,-0.061035
7180734833,0.01559448,-0.00230408,-0.99919128,0.061035,0.122070,-0.183105
7190862250,0.01484680,-0.00186157,-0.99990845,0.061035,0.061035,0.000000
7200984083,0.01506042,-0.00123596,-0.99966431,0.061035,0.061035,-0.061035
7211117833,0.01480103,-0.00047302,-0.99977112,0.061035,0.122070,-0.122070
7221260708,0.01512146,-0.00079346,-1.00000000,0.061035,0.000000,-0.122070
7230663125,0.01568604,0.00000000,-1.00093079,0.061035,-0.061035,0.000000
7240793375,0.01594543,0.00041199,-1.00085449,0.122070,0.183105,0.000000
7250926041,0.01495361,-0.00047302,-1.00071716,-0.061035,0.061035,-0.183105
7261055416,0.01530457,-0.00045776,-1.00199890,0.122070,0.122070,0.000000
7271241166,0.01539612,-0.00044250,-0.99980164,0.122070,0.244141,-0.183105
7281122250,0.01567078,-0.00114441,-0.99919128,0.000000,0.000000,0.000000
7291235083,0.01553345,-0.00074768,-0.99978638,-0.061035,0.061035,-0.061035
7301131583,0.01557922,-0.00148010,-0.99987793,0.061035,0.061035,-0.122070
7311305250,0.01493835,-0.00091553,-0.99972534,0.061035,0.000000,-0.122070
7321067291,0.01573181,0.00042725,-1.00090027,0.061035,0.061035,-0.061035
7331177375,0.01634216,0.00076294,-0.99984741,-0.061035,-0.122070,0.000000
7341092750,0.01562500,-0.00001526,-0.99995422,0.122070,0.000000,0.000000
7351221166,0.01481628,0.00051880,-0.99978638,-0.122070,0.122070,0.000000
7361334583,0.01506042,0.00090027,-1.00028992,0.000000,0.000000,-0.122070
7371443208,0.01612854,-0.00022888,-1.00149536,0.000000,0.122070,-0.122070
7381558791,0.01600647,-0.00140381,-1.00013733,0.122070,0.000000,-0.061035
7391679708,0.01513672,-0.00096130,-1.00126648,0.061035,0.183105,-0.061035
7401790583,0.01506042,-0.00038147,-0.99983215,0.122070,0.061035,0.061035
7411906416,0.01533508,-0.00051880,-1.00001526,-0.061035,0.122070,0.000000
7421777416,0.01567078,-0.00039673,-1.00062561,0.183105,0.122070,-0.061035
7431890458,0.01451111,-0.00062561,-1.00114441,0.183105,0.000000,0.000000
7442030708,0.01603699,0.00044250,-0.99971008,0.061035,0.122070,0.000000
7452190750,0.01622009,-0.00042725,-0.99993896,0.183105,0.122070,0.000000
7462329958,0.01597595,-0.00032043,-1.00010681,-0.061035,0.061035,0.000000
7472478291,0.01493835,-0.00042725,-0.99909973,0.000000,0.061035,-0.061035
7480070666,0.01345825,-0.00128174,-1.00050354,0.000000,0.061035,-0.061035
7482607625,0.01345825,-0.00128174,-1.00050354,0.000000,0.000000,-0.183105
7490203541,0.01512146,-0.00048828,-1.00094604,0.000000,0.000000,-0.183105
7492743291,0.01512146,-0.00048828,-1.00094604,0.061035,0.122070,0.000000
7500356583,0.01466370,0.00004578,-1.00048828,0.061035,0.122070,0.000000
7502903291,0.01466370,0.00004578,-1.00048828,0.000000,-0.061035,-0.183105
7510488000,0.01403809,-0.00024414,-1.00108337,0.000000,-0.061035,-0.183105
7513025625,0.01403809,-0.00024414,-1.00108337,0.000000,0.000000,0.000000
7520635000,0.01486206,0.00004578,-0.99887085,0.000000,0.000000,0.000000
7523177666,0.01486206,0.00004578,-0.99887085,0.061035,0.000000,-0.183105
7530766833,0.01602173,0.00036621,-1.00152588,0.061035,0.000000,-0.183105
7533303041,0.01602173,0.00036621,-1.00152588,0.122070,0.061035,0.000000
7540909291,0.01589966,-0.00010681,-1.00027466,0.122070,0.061035,0.000000
7543453250,0.01589966,-0.00010681,-1.00027466,0.122070,0.183105,-0.122070
7551198625,0.01577759,0.00027466,-1.00074768,0.122070,0.183105,-0.122070
7553735833,0.01577759,0.00027466,-1.00074768,-0.061035,-0.061035,-0.122070
7561330500,0.01545715,0.00004578,-0.99992371,-0.061035,-0.061035,-0.122070
7563872166,0.01545715,0.00004578,-0.99992371,0.000000,0.122070,-0.061035
7571407791,0.01522827,0.00108337,-1.00076294,0.000000,0.122070,-0.061035
7573961583,0.01522827,0.00108337,-1.00076294,0.061035,0.061035,-0.061035
7581267625,0.01512146,-0.00050354,-1.00115967,0.061035,0.061035,-0.061035
7583808250,0.01512146,-0.00050354,-1.00115967,-0.061035,0.061035,-0.061035
7591406500,0.01486206,-0.00035095,-0.99986267,-0.061035,0.061035,-0.061035
7593942625,0.01486206,-0.00035095,-0.99986267,0.244141,0.183105,0.061035
7601560000,0.01533508,-0.00080872,-1.00146484,0.244141,0.183105,0.061035
7603744625,0.01533508,-0.00080872,-1.00146484,0.061035,0.122070,0.000000
7611340583,0.01487732,-0.00119019,-1.00022888,0.061035,0.122070,0.000000
7613890791,0.01487732,-0.00119019,-1.00022888,0.061035,0.000000,0.000000
7621475625,0.01599121,-0.00036621,-0.99938965,0.061035,0.000000,0.000000
7624011375,0.01599121,-0.00036621,-0.99938965,0.061035,0.061035,-0.122070
7631624958,0.01553345,-0.00018311,-0.99943542,0.061035,0.061035,-0.122070
7634187500,0.01553345,-0.00018311,-0.99943542,0.061035,0.122070,-0.061035
7641782416,0.01403809,0.00004578,-0.99942017,0.061035,0.000000,0.000000
7651916458,0.01531982,0.00000000,-1.00067139,0.244141,0.244141,-0.122070
7662056541,0.01689148,0.00025940,-1.00036621,0.061035,0.061035,-0.061035
7672197416,0.01698303,-0.00032043,-1.00173950,0.122070,0.122070,0.000000
7681883916,0.01478577,-0.00151062,-1.00123596,0.061035,-0.061035,0.000000
7692014375,0.01509094,-0.00141907,-1.00155640,0.061035,0.000000,0.061035
7702177458,0.01591492,-0.00122070,-0.99987793,0.122070,0.122070,-0.183105
7712328000,0.01438904,-0.00172424,-1.00003052,0.061035,-0.061035,-0.061035
7722213500,0.01522827,-0.00070190,-1.00054932,0.061035,0.000000,0.061035
7732358333,0.01531982,0.00053406,-1.00085449,-0.061035,-0.061035,0.000000
7742497083,0.01539612,-0.00042725,-1.00057983,0.000000,0.061035,0.000000
7751956708,0.01554871,-0.00041199,-1.00030518,0.000000,0.061035,0.000000
7754508708,0.01554871,-0.00041199,-1.00030518,0.061035,0.244141,-0.061035
7762106625,0.01457214,-0.00028992,-0.99993896,-0.122070,0.000000,0.061035
7772138541,0.01434326,0.00080872,-1.00051880,0.000000,0.061035,-0.122070
7782264416,0.01568604,0.00157166,-1.00074768,0.000000,0.061035,-0.122070
7784811916,0.01568604,0.00157166,-1.00074768,0.122070,0.000000,0.061035
7792406125,0.01576233,0.00042725,-0.99961853,0.122070,0.000000,0.061035
7794951958,0.01576233,0.00042725,-0.99961853,0.000000,0.122070,0.000000
7802443500,0.01557922,0.00013733,-1.00180054,0.000000,0.122070,0.000000
7804988250,0.01557922,0.00013733,-1.00180054,0.061035,-0.061035,-0.061035
7812599791,0.01560974,0.00038147,-1.00051880,0.000000,0.000000,-0.122070
7822695916,0.01519775,-0.00012207,-0.99914551,0.000000,0.000000,-0.122070
7832782041,0.01562500,-0.00097656,-1.00125122,0.061035,0.061035,-0.061035
7842908583,0.01557922,-0.00096130,-1.00160217,0.122070,0.183105,-0.061035
7853042958,0.01504517,-0.00082397,-1.00108337,0.061035,0.061035,-0.061035
7863104250,0.01516724,-0.00044250,-1.00096130,0.244141,0.061035,-0.061035
7873177500,0.01440430,-0.00056458,-1.00120544,0.000000,0.061035,0.000000
7883264541,0.01417542,-0.00019836,-1.00010681,0.122070,0.000000,0.000000
7893324250,0.01445007,-0.00024414,-1.00057983,-0.061035,0.000000,-0.122070
7903113458,0.01443481,-0.00100708,-1.00073242,0.061035,0.061035,0.000000
7912968833,0.01524353,-0.00067139,-1.00039673,0.122070,0.183105,-0.061035
7922618708,0.01600647,-0.00181580,-1.00085449,-0.061035,-0.061035,-0.061035
7932695833,0.01535034,-0.00109863,-1.00120544,0.000000,0.061035,-0.122070
7942772875,0.01556396,-0.00032043,-1.00036621,0.061035,0.000000,-0.122070
7952862041,0.01661682,-0.00181580,-0.99948120,0.122070,0.061035,-0.122070
7962944125,0.01559448,0.00004578,-1.00054932,0.000000,0.000000,-0.061035
7973048208,0.01441956,0.00009155,-1.00035095,0.183105,0.244141,-0.122070
7983167666,0.01443481,0.00000000,-1.00004578,0.061035,0.061035,0.000000
7993342333,0.01588440,0.00000000,-1.00035095,0.000000,0.122070,-0.061035
8003481458,0.01484680,0.00013733,-1.00071716,-0.122070,0.000000,-0.122070
8013264000,0.01580811,-0.00016785,-1.00169373,0.122070,0.000000,-0.122070
8023249125,0.01635742,0.00039673,-1.00004578,0.000000,0.000000,-0.061035
8032968916,0.01556396,0.00062561,-1.00010681,0.305176,0.122070,0.000000
8043002625,0.01513672,-0.00016785,-0.99972534,0.000000,0.061035,-0.061035
8052974750,0.01551819,-0.00068665,-0.99980164,0.000000,0.061035,-0.183105
8063111500,0.01551819,-0.00042725,-1.00108337,0.122070,-0.122070,-0.061035
8073270458,0.01510620,-0.00033569,-1.00003052,0.061035,0.061035,-0.122070
8083428916,0.01501465,-0.00144958,-1.00019836,0.183105,0.000000,-0.122070
8093549416,0.01521301,-0.00183105,-0.99922180,0.122070,0.122070,0.000000
8103668416,0.01614380,-0.00053406,-1.00010681,0.061035,0.061035,0.000000
8113792791,0.01651001,0.00021362,-1.00009155,0.061035,0.183105,-0.061035
8123922791,0.01507568,0.00004578,-0.99963379,0.061035,0.061035,-0.061035
8134044458,0.01498413,-0.00109863,-1.00036621,0.000000,0.000000,-0.061035
8143787833,0.01556396,-0.00036621,-1.00242615,0.061035,0.000000,-0.122070
8153933791,0.01455688,-0.00022888,-1.00068665,0.244141,0.000000,-0.122070
8164062166,0.01631165,-0.00083923,-0.99966431,0.061035,0.000000,-0.122070
8174207291,0.01556396,0.00057983,-1.00070190,0.122070,0.122070,0.000000
8184349083,0.01480103,0.00048828,-1.00088501,0.000000,0.000000,-0.122070
8194476833,0.01597595,0.00038147,-1.00128174,0.061035,-0.061035,0.000000
8204388791,0.01612854,0.00038147,-1.00073242,0.000000,-0.122070,-0.122070
8214285916,0.01521301,0.00097656,-0.99949646,0.183105,-0.061035,-0.061035
8224057041,0.01445007,-0.00050354,-0.99876404,0.122070,0.000000,-0.183105
8233794708,0.01486206,-0.00106812,-0.99969482,0.122070,0.183105,-0.183105
8243922916,0.01553345,-0.00119019,-1.00071716,0.061035,0.183105,-0.061035
8254042833,0.01544189,-0.00112915,-0.99955750,0.000000,0.183105,-0.122070
8263920166,0.01406860,-0.00085449,-1.00079346,0.122070,0.122070,0.000000
8274061333,0.01502991,-0.00038147,-1.00007629,0.061035,-0.061035,-0.183105
8284177916,0.01597595,-0.00048828,-1.00019836,0.000000,0.061035,0.000000
8294293166,0.01477051,0.00048828,-1.00039673,0.000000,-0.061035,-0.061035
8304184000,0.01556396,0.00032043,-1.00164795,0.061035,0.000000,0.000000
8314310125,0.01597595,-0.00010681,-1.00067139,0.000000,-0.122070,-0.061035
8324450458,0.01606750,-0.00059509,-0.99989319,0.122070,0.061035,-0.061035
8334571000,0.01541138,-0.00039673,-0.99931335,0.000000,0.061035,-0.122070
8344668916,0.01463318,-0.00112915,-1.00054932,-0.061035,0.061035,-0.183105
8354593666,0.01435852,-0.00190735,-1.00080872,0.122070,-0.061035,-0.122070
8364715708,0.01536560,-0.00033569,-1.00111389,0.122070,0.122070,-0.061035
8374853666,0.01498413,0.00015259,-1.00155640,0.061035,-0.061035,-0.061035
8384705125,0.01545715,0.00038147,-1.00070190,0.122070,0.122070,-0.183105
8394836041,0.01544189,0.00048828,-1.00067139,0.000000,0.061035,-0.061035
8404712416,0.01571655,0.00065613,-0.99957275,0.244141,0.000000,-0.122070
8414831625,0.01515198,0.00045776,-0.99955750,0.183105,0.000000,0.000000
8424964000,0.01564026,-0.00028992,-0.99984741,0.000000,0.061035,-0.122070
8434592291,0.01469421,-0.00184631,-1.00108337,0.000000,0.122070,-0.122070
8444746500,0.01487732,-0.00111389,-1.00167847,0.122070,0.000000,0.000000
8454869166,0.01478577,-0.00152588,-1.00027466,-0.061035,0.000000,-0.061035
8464990000,0.01550293,-0.00059509,-1.00036621,0.183105,0.122070,-0.061035
8475102500,0.01545715,-0.00007629,-1.00050354,0.000000,0.061035,-0.061035
8485225000,0.01519775,-0.00085449,-0.99958801,0.000000,0.000000,-0.061035
8495438458,0.01583862,0.00074768,-1.00050354,0.000000,0.000000,0.061035
8503053083,0.01562500,0.00013733,-1.00021362,0.000000,0.000000,0.061035
8505597250,0.01562500,0.00013733,-1.00021362,0.061035,0.061035,0.000000
8513188958,0.01527405,-0.00109863,-1.00013733,0.061035,0.061035,0.000000
8515726250,0.01527405,-0.00109863,-1.00013733,0.000000,0.061035,0.000000
8523328250,0.01528931,-0.00044250,-1.00007629,0.000000,0.061035,0.000000
8525865958,0.01528931,-0.00044250,-1.00007629,-0.061035,0.061035,-0.183105
8533112125,0.01507568,0.00010681,-0.99896240,-0.061035,0.061035,-0.183105
8535651500,0.01507568,0.00010681,-0.99896240,0.000000,-0.061035,-0.061035
8543237333,0.01480103,0.00000000,-1.00039673,0.000000,-0.061035,-0.061035
8545775708,0.01480103,0.00000000,-1.00039673,0.061035,-0.061035,-0.061035
8553148583,0.01519775,-0.00137329,-0.99989319,0.061035,-0.061035,-0.061035
8555685500,0.01519775,-0.00137329,-0.99989319,0.183105,0.122070,0.000000
8565573333,0.01660156,-0.00032043,-1.00137329,0.061035,0.061035,-0.122070
8575433083,0.01516724,0.00045776,-1.00021362,-0.061035,0.061035,-0.061035
8585341541,0.01593018,0.00006104,-1.00068665,0.122070,0.061035,0.000000
8595495833,0.01574707,0.00000000,-1.00057983,0.061035,-0.061035,-0.183105
8605619833,0.01478577,0.00003052,-1.00000000,0.000000,0.000000,0.000000
8615772166,0.01477051,-0.00050354,-1.00064087,-0.061035,-0.061035,-0.122070
8625735500,0.01499939,-0.00131226,-1.00103760,0.000000,0.061035,-0.061035
8635868333,0.01643372,-0.00195312,-1.00170898,0.122070,0.122070,0.000000
8645993666,0.01519775,-0.00097656,-1.00114441,0.000000,0.061035,-0.122070
8655871250,0.01531982,-0.00009155,-1.00057983,0.061035,0.122070,0.000000
8666004083,0.01538086,-0.00048828,-1.00042725,0.061035,0.061035,-0.061035
8675990708,0.01541138,0.00006104,-1.00152588,0.244141,0.122070,-0.061035
8686065833,0.01493835,-0.00015259,-1.00155640,0.061035,0.061035,-0.061035
8693658416,0.01550293,-0.00044250,-1.00054932,0.061035,0.061035,-0.061035
8696196708,0.01550293,-0.00044250,-1.00054932,-0.061035,0.000000,-0.122070
8703785041,0.01623535,0.00004578,-0.99900818,-0.061035,0.000000,-0.122070
8706321958,0.01623535,0.00004578,-0.99900818,0.061035,0.061035,0.000000
8713912250,0.01609802,0.00045776,-0.99952698,0.061035,0.061035,0.000000
8716149958,0.01609802,0.00045776,-0.99952698,-0.122070,0.000000,-0.122070
8723733500,0.01448059,-0.00009155,-0.99987793,-0.122070,0.000000,-0.122070
8726270375,0.01448059,-0.00009155,-0.99987793,0.000000,0.061035,-0.061035
8733863583,0.01489258,0.00079346,-1.00064087,0.000000,0.061035,-0.061035
8736408958,0.01489258,0.00079346,-1.00064087,0.122070,0.122070,0.061035
8743999500,0.01568604,-0.00056458,-1.00149536,0.122070,0.122070,0.061035
8746543333,0.01568604,-0.00056458,-1.00149536,0.000000,0.061035,-0.061035
8754142833,0.01580811,-0.00048828,-0.99943542,0.000000,0.061035,-0.061035
8756679916,0.01580811,-0.00048828,-0.99943542,0.061035,0.000000,-0.183105
8764287500,0.01535034,-0.00018311,-1.00038147,0.061035,0.000000,-0.183105
8766826750,0.01535034,-0.00018311,-1.00038147,0.183105,0.061035,-0.061035
8774423125,0.01583862,-0.00061035,-1.00009155,0.183105,0.061035,-0.061035
8776957416,0.01583862,-0.00061035,-1.00009155,0.122070,0.000000,-0.183105
8784295666,0.01571655,-0.00064087,-1.00001526,0.122070,0.000000,-0.183105
8786836250,0.01571655,-0.00064087,-1.00001526,0.183105,0.000000,-0.061035
8794183875,0.01423645,-0.00024414,-1.00047302,0.183105,0.000000,-0.061035
8796722958,0.01423645,-0.00024414,-1.00047302,0.061035,0.000000,-0.122070
8804307458,0.01405334,0.00065613,-1.00013733,0.061035,0.000000,-0.122070
8806843458,0.01405334,0.00065613,-1.00013733,0.122070,0.061035,-0.183105
8814429166,0.01574707,0.00036621,-1.00045776,0.122070,0.061035,-0.183105
8816966833,0.01574707,0.00036621,-1.00045776,0.183105,0.000000,-0.061035
8824554791,0.01469421,-0.00053406,-0.99917603,0.183105,0.000000,-0.061035
8827091916,0.01469421,-0.00053406,-0.99917603,0.122070,0.000000,-0.122070
8834266333,0.01551819,-0.00114441,-1.00025940,0.122070,0.000000,-0.122070
8836804000,0.01551819,-0.00114441,-1.00025940,0.000000,-0.061035,-0.183105
8844400500,0.01594543,-0.00054932,-1.00097656,0.000000,-0.061035,-0.183105
8846953125,0.01594543,-0.00054932,-1.00097656,0.061035,0.000000,-0.183105
8854539750,0.01489258,-0.00042725,-1.00148010,0.061035,0.000000,-0.183105
8857091416,0.01489258,-0.00042725,-1.00148010,0.061035,-0.061035,-0.122070
8864699000,0.01528931,-0.00054932,-1.00001526,0.061035,-0.061035,-0.122070
8867244750,0.01528931,-0.00054932,-1.00001526,0.061035,0.000000,0.061035
8874881750,0.01521301,-0.00051880,-1.00097656,0.061035,0.000000,0.061035
8877436125,0.01521301,-0.00051880,-1.00097656,-0.122070,0.000000,-0.061035
8884605541,0.01612854,0.00062561,-1.00032043,-0.122070,0.000000,-0.061035
8887152666,0.01612854,0.00062561,-1.00032043,-0.061035,0.061035,-0.122070
8894736916,0.01502991,0.00085449,-1.00015259,-0.061035,0.061035,-0.122070
8897273541,0.01502991,0.00085449,-1.00015259,-0.122070,0.000000,-0.061035
8904760458,0.01501465,0.00010681,-1.00000000,-0.122070,0.000000,-0.061035
8907297791,0.01501465,0.00010681,-1.00000000,0.000000,-0.061035,-0.244141
8914596708,0.01628113,-0.00054932,-1.00080872,0.000000,-0.061035,-0.244141
8917136708,0.01628113,-0.00054932,-1.00080872,0.122070,0.061035,-0.061035
8924718291,0.01547241,-0.00013733,-1.00015259,0.122070,0.061035,-0.061035
8927253916,0.01547241,-0.00013733,-1.00015259,-0.061035,-0.122070,-0.122070
8934835583,0.01477051,0.00027466,-1.00004578,-0.061035,-0.122070,-0.122070
8937373541,0.01477051,0.00027466,-1.00004578,-0.122070,0.000000,-0.122070
8944955375,0.01498413,-0.00042725,-1.00108337,-0.122070,0.000000,-0.122070
8947489750,0.01498413,-0.00042725,-1.00108337,-0.061035,0.061035,-0.061035
8955097625,0.01594543,-0.00079346,-1.00178528,-0.061035,0.061035,-0.061035
8957644416,0.01594543,-0.00079346,-1.00178528,0.000000,-0.183105,-0.122070
8965224958,0.01435852,-0.00067139,-0.99940491,0.000000,-0.183105,-0.122070
8967760250,0.01435852,-0.00067139,-0.99940491,0.061035,0.000000,0.000000
8975363708,0.01583862,-0.00013733,-1.00074768,0.061035,0.000000,0.000000
8977913625,0.01583862,-0.00013733,-1.00074768,-0.061035,0.000000,0.000000
8985520083,0.01667786,-0.00062561,-0.99993896,-0.061035,0.000000,0.000000
8988075666,0.01667786,-0.00062561,-0.99993896,0.000000,0.061035,-0.061035
8995684083,0.01568604,-0.00141907,-1.00018311,0.000000,0.122070,-0.061035
9005813583,0.01502991,-0.00108337,-0.99980164,-0.061035,0.061035,-0.061035
9015715750,0.01406860,-0.00192261,-1.00103760,-0.061035,0.061035,-0.061035
9025829666,0.01512146,-0.00242615,-1.00144958,0.000000,0.122070,0.000000
9035962041,0.01463318,-0.00177002,-0.99993896,0.061035,0.061035,-0.061035
9045953375,0.01396179,0.00038147,-1.00012207,0.061035,0.122070,-0.061035
9056148250,0.01417542,0.00247192,-1.00065613,0.061035,0.122070,-0.061035
9066023666,0.01550293,0.00268555,-1.00044250,0.061035,-0.061035,-0.061035
9076176500,0.01634216,0.00238037,-1.00006104,0.061035,0.000000,-0.122070
9086287875,0.01655579,0.00291443,-1.00012207,0.122070,0.061035,-0.061035
9095935916,0.01504517,0.00077820,-1.00096130,0.122070,0.000000,-0.061035
9106085833,0.01544189,0.00030518,-1.00054932,0.122070,0.122070,0.000000
9116243166,0.01483154,-0.00106812,-1.00137329,0.183105,0.000000,-0.061035
9126373958,0.01446533,-0.00233459,-1.00057983,0.122070,0.061035,0.000000
9136499541,0.01565552,-0.00274658,-1.00210571,0.122070,0.061035,-0.061035
9146278041,0.01469421,-0.00244141,-1.00198364,0.122070,0.000000,0.000000
9156411750,0.01448059,-0.00227356,-1.00096130,0.000000,0.061035,-0.061035
9166439291,0.01588440,-0.00106812,-0.99972534,0.000000,0.000000,-0.183105
9176613208,0.01516724,0.00033569,-1.00108337,0.122070,0.061035,-0.061035
9186449708,0.01473999,0.00132751,-1.00050354,0.122070,0.061035,-0.061035
9188991291,0.01473999,0.00132751,-1.00050354,0.061035,0.061035,-0.061035
9196595875,0.01499939,0.00135803,-1.00050354,0.061035,0.122070,-0.122070
9206720166,0.01647949,0.00148010,-1.00033569,0.122070,0.061035,-0.061035
9216859041,0.01609802,0.00079346,-0.99974060,0.122070,0.000000,0.000000
9226177791,0.01631165,0.00131226,-1.00109863,0.122070,0.000000,0.000000
9228535625,0.01631165,0.00131226,-1.00109863,0.000000,0.000000,-0.061035
9236130791,0.01576233,0.00045776,-1.00091553,0.000000,0.000000,-0.061035
9238668333,0.01576233,0.00045776,-1.00091553,0.061035,0.000000,0.000000
9246279000,0.01553345,0.00119019,-1.00128174,0.061035,0.000000,0.000000
9248842708,0.01553345,0.00119019,-1.00128174,0.000000,0.000000,-0.061035
9255606250,0.01396179,0.00028992,-0.99983215,0.000000,0.000000,-0.061035
9258146541,0.01396179,0.00028992,-0.99983215,0.305176,0.122070,-0.061035
9265740291,0.01420593,0.00038147,-1.00045776,0.305176,0.122070,-0.061035
9268294791,0.01420593,0.00038147,-1.00045776,0.061035,0.061035,0.000000
9275627708,0.01524353,0.00042725,-1.00041199,0.061035,0.061035,0.000000
9278178500,0.01524353,0.00042725,-1.00041199,-0.061035,0.000000,-0.061035
9285721000,0.01493835,-0.00117493,-1.00041199,-0.061035,0.000000,-0.061035
9287916625,0.01493835,-0.00117493,-1.00041199,0.061035,0.000000,-0.061035
9298085291,0.01484680,-0.00125122,-1.00001526,0.244141,0.061035,-0.061035
9305684208,0.01576233,-0.00178528,-0.99868774,0.244141,0.061035,-0.061035
9308224375,0.01576233,-0.00178528,-0.99868774,-0.061035,0.122070,-0.122070
9315814041,0.01560974,-0.00202942,-0.99971008,-0.061035,0.122070,-0.122070
9318356125,0.01560974,-0.00202942,-0.99971008,0.244141,0.000000,-0.061035
9325948125,0.01502991,-0.00201416,-1.00073242,0.244141,0.000000,-0.061035
9328486083,0.01502991,-0.00201416,-1.00073242,0.061035,0.122070,-0.061035
9336082125,0.01483154,-0.00057983,-1.00082397,0.061035,0.122070,-0.061035
9338646166,0.01483154,-0.00057983,-1.00082397,0.000000,0.122070,-0.061035
9346233750,0.01458740,0.00099182,-1.00022888,0.000000,0.122070,-0.061035
9348773958,0.01458740,0.00099182,-1.00022888,0.122070,0.000000,-0.061035
9356372916,0.01570129,0.00047302,-1.00010681,0.122070,0.000000,-0.061035
9358924041,0.01570129,0.00047302,-1.00010681,0.122070,0.061035,-0.061035
9366525125,0.01568604,0.00083923,-0.99963379,0.122070,0.061035,-0.061035
9369071666,0.01568604,0.00083923,-0.99963379,0.061035,0.000000,-0.061035
9376693875,0.01632690,0.00021362,-1.00082397,0.122070,0.061035,-0.061035
9386827750,0.01583862,-0.00024414,-1.00053406,0.183105,0.061035,-0.183105
9396937708,0.01585388,0.00012207,-1.00012207,0.061035,0.061035,-0.061035
9407063875,0.01470947,-0.00042725,-1.00022888,0.122070,0.000000,-0.183105
9416760166,0.01542664,-0.00195312,-0.99984741,0.122070,0.000000,-0.183105
9419319916,0.01542664,-0.00195312,-0.99984741,0.244141,0.000000,-0.061035
9426589875,0.01565552,-0.00262451,-1.00074768,0.244141,0.000000,-0.061035
9429129833,0.01565552,-0.00262451,-1.00074768,0.061035,0.061035,-0.122070
9436721750,0.01530457,-0.00256348,-1.00262451,0.061035,0.061035,-0.122070
9439261708,0.01530457,-0.00256348,-1.00262451,0.000000,-0.061035,-0.183105
9446865083,0.01618958,-0.00302124,-1.00149536,0.000000,-0.061035,-0.183105
9449418375,0.01618958,-0.00302124,-1.00149536,-0.122070,0.122070,0.000000
9456787875,0.01489258,-0.00306702,-1.00137329,-0.122070,0.122070,0.000000
9459347833,0.01489258,-0.00306702,-1.00137329,0.061035,-0.061035,0.000000
9467001708,0.01495361,-0.00192261,-0.99974060,0.061035,0.061035,-0.061035
9477120250,0.01478577,-0.00085449,-1.00042725,0.122070,0.183105,0.000000
9487264875,0.01490784,0.00028992,-1.00027466,0.122070,-0.061035,-0.061035
9497403916,0.01593018,0.00210571,-1.00128174,0.000000,-0.061035,-0.122070
9507530041,0.01632690,0.00254822,-1.00047302,0.122070,0.183105,-0.122070
9517476083,0.01570129,0.00260925,-0.99899292,0.122070,0.183105,-0.122070
9520012000,0.01570129,0.00260925,-0.99899292,0.122070,0.000000,-0.122070
9527614541,0.01445007,0.00167847,-1.00131226,0.183105,0.122070,0.061035
9537744833,0.01440430,0.00059509,-1.00100708,0.122070,-0.061035,0.061035
9547506458,0.01306152,0.00032043,-1.00141907,0.122070,-0.061035,0.061035
9549962500,0.01306152,0.00032043,-1.00141907,0.061035,0.122070,0.000000
9557567916,0.01461792,-0.00061035,-1.00033569,-0.061035,0.122070,-0.122070
9567717333,0.01451111,-0.00117493,-1.00025940,0.122070,0.061035,-0.122070
9577688166,0.01457214,-0.00132751,-0.99977112,0.061035,0.122070,0.000000
9587829625,0.01484680,-0.00155640,-1.00076294,0.061035,0.061035,-0.061035
9597951375,0.01527405,-0.00155640,-1.00019836,0.122070,0.122070,-0.061035
9608053958,0.01518250,0.00027466,-1.00007629,0.305176,-0.793457,-0.061035
9618210375,0.01583862,-0.00074768,-0.98619080,0.000000,0.061035,0.000000
9628373083,0.01570129,-0.00144958,-1.00396729,0.305176,0.122070,-0.122070
9638275958,0.01638794,-0.00115967,-1.01367188,0.000000,0.061035,-0.061035
9647994458,0.01599121,-0.00021362,-1.00045776,0.000000,0.000000,-0.061035
9658116291,0.01583862,0.00186157,-1.00376892,0.000000,-0.305176,-0.122070
9667879250,0.01634216,0.00369263,-0.99914551,0.061035,-0.244141,-0.061035
9677948333,0.01649475,0.00459290,-0.99951172,0.366211,0.915527,-0.061035
9688028583,0.01547241,0.00369263,-0.99719238,0.183105,0.061035,0.000000
9697796833,0.01548767,0.00032043,-1.00582886,0.061035,0.061035,0.000000
9707805541,0.01614380,-0.00239563,-0.99005127,0.000000,-0.061035,-0.122070
9717804416,0.01487732,-0.00244141,-1.00822449,-0.061035,-0.061035,-0.122070
9727904458,0.01502991,-0.00341797,-0.99603271,0.061035,0.122070,-0.061035
9738007041,0.01480103,-0.00268555,-1.00265503,0.000000,-0.061035,-0.061035
9748040416,0.01501465,-0.00213623,-0.99732971,0.122070,2.075195,0.000000
9757924583,0.01638794,-0.00212097,-0.98207092,-0.305176,-0.244141,-0.061035
9767834958,0.01492310,-0.00230408,-1.02340698,-0.305176,-0.244141,-0.061035
9770397833,0.01492310,-0.00230408,-1.02340698,0.122070,0.305176,-0.061035
9777674833,0.01516724,0.00030518,-0.99295044,0.122070,0.305176,-0.061035
9780229500,0.01516724,0.00030518,-0.99295044,-0.305176,-0.183105,-0.122070
9787556083,0.01518250,0.00144958,-1.00833130,-0.305176,-0.183105,-0.122070
9790114666,0.01518250,0.00144958,-1.00833130,0.000000,-0.122070,-0.061035
9797711458,0.01567078,0.00004578,-0.99572754,0.000000,-0.122070,-0.061035
9800121875,0.01567078,0.00004578,-0.99572754,-0.122070,-0.122070,-0.061035
9807716708,0.01562500,0.00337219,-1.01016235,-0.122070,-0.122070,-0.061035
9810261875,0.01562500,0.00337219,-1.01016235,-0.061035,0.305176,0.000000
9817845666,0.01560974,0.00408936,-0.99130249,-0.061035,0.305176,0.000000
9820383958,0.01560974,0.00408936,-0.99130249,0.061035,-0.122070,-0.122070
9827631125,0.01631165,0.00244141,-1.00730896,0.061035,-0.122070,-0.122070
9830183083,0.01631165,0.00244141,-1.00730896,0.061035,0.244141,0.000000
9837260416,0.01577759,0.00036621,-0.99287415,0.061035,0.244141,0.000000
9839803916,0.01577759,0.00036621,-0.99287415,0.183105,0.000000,-0.122070
9847418416,0.01617432,0.00001526,-1.00291443,0.183105,0.000000,-0.122070
9849970000,0.01617432,0.00001526,-1.00291443,0.000000,0.061035,-0.061035
9857560208,0.01402283,0.00000000,-0.99728394,0.000000,0.061035,-0.061035
9860108458,0.01402283,0.00000000,-0.99728394,0.000000,0.000000,-0.061035
9867697666,0.01461792,-0.00175476,-1.00108337,0.000000,0.000000,-0.061035
9870236375,0.01461792,-0.00175476,-1.00108337,-0.061035,0.122070,-0.061035
9877837625,0.01440430,-0.00250244,-0.99946594,-0.061035,0.122070,-0.061035
9880374916,0.01440430,-0.00250244,-0.99946594,0.122070,0.061035,-0.122070
9887971708,0.01347351,-0.00215149,-1.00041199,0.122070,0.061035,-0.122070
9890518291,0.01347351,-0.00215149,-1.00041199,0.061035,-0.061035,-0.183105
9898099916,0.01365662,-0.00271606,-1.00077820,0.061035,-0.061035,-0.183105
9900647000,0.01365662,-0.00271606,-1.00077820,0.000000,0.122070,-0.122070
9908238916,0.01437378,-0.00190735,-1.00021362,0.000000,0.122070,-0.122070
9910777083,0.01437378,-0.00190735,-1.00021362,0.000000,0.122070,-0.122070
9918395791,0.01654053,-0.00093079,-1.00173950,0.000000,0.122070,-0.122070
9920942166,0.01654053,-0.00093079,-1.00173950,0.061035,0.061035,-0.122070
9928407291,0.01545715,-0.00035095,-1.00085449,0.061035,0.061035,-0.122070
9930991208,0.01545715,-0.00035095,-1.00085449,-0.061035,0.000000,-0.061035
9938622708,0.01501465,0.00097656,-1.00035095,0.000000,0.000000,-0.183105
9948893416,0.01565552,0.00123596,-0.99958801,0.122070,0.061035,0.061035
9959037291,0.01599121,0.00204468,-1.00183105,0.061035,0.000000,-0.122070
9969154416,0.01599121,0.00172424,-0.99995422,0.122070,0.183105,-0.061035
9979274375,0.01521301,0.00030518,-0.99958801,0.061035,0.061035,-0.061035
9989388416,0.01438904,0.00022888,-1.00001526,0.122070,0.061035,-0.183105
9999499916,0.01565552,-0.00045776,-1.00054932,0.061035,0.000000,-0.122070
10009610541,0.01670837,-0.00117493,-1.00230408,0.000000,0.061035,-0.122070
10019760291,0.01449585,-0.00135803,-1.00038147,0.000000,-0.061035,-0.183105
10029913541,0.01486206,-0.00102234,-0.99969482,0.000000,-0.061035,-0.183105
10039668125,0.01478577,-0.00163269,-1.00086975,0.061035,0.000000,0.000000
10049839541,0.01438904,-0.00059509,-1.00010681,0.122070,0.000000,0.000000
10060005333,0.01538086,-0.00061035,-1.00035095,0.000000,0.000000,-0.122070
10067651833,0.01506042,-0.00039673,-1.00036621,0.000000,0.000000,-0.122070
10070192333,0.01506042,-0.00039673,-1.00036621,0.000000,0.000000,-0.122070
10077775625,0.01452637,0.00007629,-1.00125122,0.000000,0.000000,-0.122070
10080323208,0.01452637,0.00007629,-1.00125122,0.122070,0.122070,0.000000
10089972791,0.01419067,0.00112915,-1.00018311,-0.061035,0.061035,0.000000
10100115541,0.01504517,0.00128174,-1.00013733,0.183105,0.000000,-0.061035
10107740541,0.01615906,0.00041199,-1.00022888,0.183105,0.000000,-0.061035
10110323916,0.01615906,0.00041199,-1.00022888,0.183105,0.000000,-0.061035
10117743458,0.01625061,-0.00006104,-1.00112915,0.183105,0.000000,-0.061035
10120307375,0.01625061,-0.00006104,-1.00112915,0.122070,-0.061035,-0.122070
10127962666,0.01666260,-0.00067139,-1.00015259,0.122070,-0.061035,-0.122070
10130545625,0.01666260,-0.00067139,-1.00015259,0.183105,0.000000,0.000000
10138189250,0.01528931,-0.00044250,-1.00061035,0.183105,0.000000,0.000000
10140800333,0.01528931,-0.00044250,-1.00061035,0.122070,0.000000,-0.122070
10148233833,0.01588440,0.00054932,-1.00041199,0.122070,0.000000,-0.122070
10150819708,0.01588440,0.00054932,-1.00041199,0.183105,-0.122070,0.061035
10158514000,0.01550293,0.00096130,-0.99971008,0.183105,-0.122070,0.061035
10161094208,0.01550293,0.00096130,-0.99971008,-0.366211,-0.305176,-0.122070
10168628666,0.01461792,0.00094604,-0.98895264,-0.366211,-0.305176,-0.122070
10171236166,0.01461792,0.00094604,-0.98895264,-0.122070,0.122070,-0.122070
10178953583,0.01516724,0.00180054,-1.01605225,-0.122070,0.122070,-0.122070
10181576375,0.01516724,0.00180054,-1.01605225,0.000000,0.000000,-0.061035
10188748708,0.01580811,0.00135803,-1.00022888,0.000000,0.000000,-0.061035
10191296500,0.01580811,0.00135803,-1.00022888,0.061035,0.000000,-0.061035
10198934500,0.01533508,-0.00016785,-1.00021362,0.061035,0.000000,-0.061035
10201522666,0.01533508,-0.00016785,-1.00021362,0.061035,0.061035,0.000000
10209158458,0.01567078,-0.00218201,-1.00096130,0.061035,0.061035,0.000000
10211391833,0.01567078,-0.00218201,-1.00096130,0.000000,0.000000,-0.061035
10218664125,0.01562500,-0.00267029,-1.00212097,0.000000,0.000000,-0.061035
10221229083,0.01562500,-0.00267029,-1.00212097,0.000000,0.122070,-0.061035
10228827125,0.01579285,-0.00288391,-0.99929810,0.000000,0.122070,-0.061035
10231378458,0.01579285,-0.00288391,-0.99929810,0.183105,0.122070,-0.061035
10238981750,0.01443481,-0.00245667,-1.00117493,0.183105,0.122070,-0.061035
10241537166,0.01443481,-0.00245667,-1.00117493,-0.366211,0.244141,-0.122070
10249146875,0.01380920,-0.00201416,-1.00039673,-0.366211,0.244141,-0.122070
10251701833,0.01380920,-0.00201416,-1.00039673,0.244141,0.122070,-0.061035
10259299333,0.01460266,0.00044250,-1.00209045,0.244141,0.122070,-0.061035
10261851625,0.01460266,0.00044250,-1.00209045,0.122070,-0.061035,-0.122070
10269458000,0.01544189,0.00096130,-0.99473572,0.122070,-0.061035,-0.122070
10272005583,0.01544189,0.00096130,-0.99473572,0.366211,0.061035,-0.061035
10279434708,0.01477051,0.00073242,-0.99795532,0.366211,0.061035,-0.061035
10282004083,0.01477051,0.00073242,-0.99795532,0.061035,0.122070,-0.122070
10289629458,0.01646423,0.00018311,-1.00141907,-0.732422,-0.061035,-0.061035
10299752958,0.01651001,0.00061035,-1.00456238,-0.427246,0.122070,0.000000
10309919000,0.01655579,-0.00071716,-0.99229431,-0.122070,-0.061035,-0.122070
10320007333,0.01455688,-0.00128174,-1.01141357,-0.122070,-0.061035,-0.061035
10330166958,0.01556396,-0.00117493,-0.99497986,-0.122070,0.000000,0.000000
10340319583,0.01570129,-0.00108337,-1.00622559,-0.122070,0.122070,-0.061035
10349979125,0.01550293,-0.00132751,-0.99644470,0.122070,0.061035,-0.122070
10359776708,0.01422119,0.00001526,-1.00421143,0.061035,-0.061035,-0.122070
10369927166,0.01509094,0.00065613,-0.99905396,-0.122070,0.061035,0.061035
10379953875,0.01750183,0.00042725,-1.00068665,0.122070,-0.061035,0.061035
10389845291,0.01483154,0.00108337,-0.99406433,0.427246,-0.061035,-0.183105
10399988875,0.01606750,0.00151062,-1.01054382,0.305176,0.122070,0.000000
10409682125,0.01646423,0.00077820,-0.99006653,0.366211,0.122070,0.000000
10419814208,0.01477051,0.00105286,-1.00407410,0.183105,0.000000,-0.122070
10429946541,0.01550293,0.00028992,-0.99760437,0.183105,-0.061035,-0.122070
10440093291,0.01586914,-0.00210571,-1.00378418,0.061035,0.061035,0.000000
10450244291,0.01419067,-0.00323486,-0.99879456,0.061035,0.122070,-0.061035
10460391416,0.01319885,-0.00286865,-1.00131226,0.122070,0.000000,-0.122070
10470509500,0.01431274,-0.00148010,-1.00065613,0.000000,-0.122070,0.000000
10480623541,0.01446533,-0.00093079,-1.00050354,0.061035,0.061035,-0.122070
10490750375,0.01463318,0.00000000,-1.00238037,0.061035,0.061035,-0.122070
10500900708,0.01544189,0.00090027,-0.99957275,0.000000,0.000000,-0.122070
10511022500,0.01617432,0.00074768,-0.99908447,0.488281,0.061035,-0.122070
10521149708,0.01591492,-0.00076294,-0.99011230,0.305176,-0.122070,-0.183105
10531311375,0.01495361,-0.00054932,-1.01788330,-0.549316,0.183105,0.000000
10538898208,0.01477051,0.00035095,-0.99093628,-0.549316,0.183105,0.000000
10541023583,0.01477051,0.00035095,-0.99093628,-0.976562,0.122070,-0.061035
10551118458,0.01521301,0.00079346,-1.00103760,-0.305176,-0.183105,-0.061035
10561241000,0.01573181,0.00091553,-1.00314331,-0.366211,-0.061035,0.000000
10571322125,0.01614380,0.00160217,-1.00019836,-0.244141,0.061035,0.000000
10581441291,0.01683044,0.00125122,-1.00274658,-0.183105,0.061035,0.000000
10589031125,0.01553345,0.00010681,-0.99864197,-0.183105,0.061035,0.000000
10591576208,0.01553345,0.00010681,-0.99864197,-0.122070,0.000000,-0.061035
10599161958,0.01477051,0.00082397,-1.00125122,-0.122070,0.000000,-0.061035
10601698916,0.01477051,0.00082397,-1.00125122,0.122070,-0.061035,-0.061035
10609301958,0.01504517,0.00102234,-0.99975586,0.122070,-0.061035,-0.061035
10611845416,0.01504517,0.00102234,-0.99975586,-0.732422,0.000000,0.000000
10619445666,0.01441956,-0.00056458,-0.99832153,-0.732422,0.000000,0.000000
10621997625,0.01441956,-0.00056458,-0.99832153,-0.305176,0.183105,0.000000
10629465000,0.01530457,-0.00114441,-1.00456238,-0.305176,0.183105,0.000000
10632023333,0.01530457,-0.00114441,-1.00456238,-0.244141,0.061035,0.000000
10639617083,0.01557922,-0.00105286,-0.99540710,-0.244141,0.061035,0.000000
10642156750,0.01557922,-0.00105286,-0.99540710,-0.061035,-0.061035,0.122070
10649743791,0.01599121,0.00003052,-1.00332642,-0.061035,-0.061035,0.122070
10652299125,0.01599121,0.00003052,-1.00332642,-0.183105,0.061035,-0.061035
10659902750,0.01480103,-0.00067139,-1.00064087,-0.183105,0.061035,-0.061035
10662354750,0.01480103,-0.00067139,-1.00064087,0.000000,0.061035,-0.122070
10669949375,0.01548767,-0.00035095,-0.99908447,0.000000,0.061035,-0.122070
10672488416,0.01548767,-0.00035095,-0.99908447,0.061035,0.061035,-0.061035
10680080666,0.01466370,-0.00061035,-1.00071716,0.061035,0.061035,-0.061035
10682631208,0.01466370,-0.00061035,-1.00071716,0.122070,-0.061035,0.000000
10690236291,0.01417542,-0.00085449,-1.00024414,0.122070,-0.061035,0.000000
10692774458,0.01417542,-0.00085449,-1.00024414,0.061035,-0.061035,-0.122070
10700371458,0.01536560,-0.00004578,-1.00080872,0.061035,-0.061035,-0.122070
10702907916,0.01536560,-0.00004578,-1.00080872,0.061035,0.122070,-0.061035
10710266000,0.01560974,0.00000000,-1.00057983,0.061035,0.122070,-0.061035
10712805833,0.01560974,0.00000000,-1.00057983,0.061035,0.122070,-0.061035
10719728250,0.01608276,-0.00070190,-1.00045776,0.061035,0.122070,-0.061035
10722269458,0.01608276,-0.00070190,-1.00045776,0.061035,-0.183105,-0.122070
10729856250,0.01643372,-0.00064087,-1.00048828,0.061035,-0.183105,-0.122070
10732392166,0.01643372,-0.00064087,-1.00048828,0.122070,0.244141,0.061035
10739972750,0.01432800,0.00010681,-1.00149536,0.122070,0.244141,0.061035
10742509541,0.01432800,0.00010681,-1.00149536,0.122070,0.061035,-0.061035
10750090458,0.01547241,-0.00025940,-1.00161743,0.122070,0.061035,-0.061035
10752626500,0.01547241,-0.00025940,-1.00161743,0.061035,0.122070,0.000000
10762751250,0.01618958,-0.00062561,-1.00041199,0.061035,0.061035,-0.061035
10770354958,0.01542664,-0.00032043,-1.00015259,0.061035,0.061035,-0.061035
10772919708,0.01542664,-0.00032043,-1.00015259,0.122070,0.000000,-0.122070
10780503500,0.01463318,0.00090027,-1.00000000,0.122070,0.000000,-0.122070
10782706291,0.01463318,0.00090027,-1.00000000,0.000000,0.000000,-0.122070
10790302125,0.01568604,0.00090027,-1.00036621,0.000000,0.000000,-0.122070
10792842833,0.01568604,0.00090027,-1.00036621,0.122070,0.183105,-0.061035
10800439208,0.01461792,0.00007629,-0.99993896,0.122070,0.183105,-0.061035
10802580916,0.01461792,0.00007629,-0.99993896,0.183105,0.061035,-0.183105
10810171875,0.01414490,0.00053406,-1.00099182,0.183105,0.061035,-0.183105
10812717958,0.01414490,0.00053406,-1.00099182,0.061035,0.000000,0.000000
10820075625,0.01530457,0.00091553,-1.00047302,0.061035,0.000000,0.000000
10822627625,0.01530457,0.00091553,-1.00047302,0.000000,0.061035,-0.061035
10830229833,0.01560974,0.00021362,-1.00057983,0.000000,0.061035,-0.061035
10832774833,0.01560974,0.00021362,-1.00057983,0.061035,0.061035,-0.122070
10839864666,0.01727295,-0.00054932,-0.99867249,0.061035,0.061035,-0.122070
10842439250,0.01727295,-0.00054932,-0.99867249,0.061035,0.061035,-0.122070
10850027916,0.01588440,-0.00120544,-1.00061035,0.061035,0.061035,-0.122070
10852570375,0.01588440,-0.00120544,-1.00061035,0.061035,0.061035,-0.122070
10860061750,0.01567078,-0.00138855,-0.99923706,0.061035,0.061035,-0.122070
10862616166,0.01567078,-0.00138855,-0.99923706,0.183105,0.122070,-0.061035
10870201583,0.01545715,-0.00051880,-0.99993896,0.183105,0.122070,-0.061035
10872740333,0.01545715,-0.00051880,-0.99993896,0.000000,0.061035,-0.122070
10880322500,0.01493835,-0.00086975,-1.00038147,0.000000,0.061035,-0.122070
10882861083,0.01493835,-0.00086975,-1.00038147,0.122070,0.183105,-0.061035
10890442875,0.01564026,0.00094604,-1.00057983,0.122070,0.183105,-0.061035
10892977333,0.01564026,0.00094604,-1.00057983,0.061035,-0.122070,-0.061035
10900562583,0.01525879,0.00097656,-1.00109863,0.061035,-0.122070,-0.061035
10903098791,0.01525879,0.00097656,-1.00109863,0.000000,0.061035,-0.061035
10910679625,0.01477051,0.00079346,-1.00073242,0.000000,0.061035,-0.061035
10913215541,0.01477051,0.00079346,-1.00073242,0.061035,-0.061035,0.000000
10920807333,0.01448059,0.00064087,-1.00039673,0.061035,-0.061035,0.000000
10923351375,0.01448059,0.00064087,-1.00039673,0.122070,0.061035,-0.122070
10930680500,0.01538086,0.00007629,-1.00091553,0.122070,0.061035,-0.122070
10933226291,0.01538086,0.00007629,-1.00091553,0.000000,0.122070,-0.061035
10940844750,0.01524353,-0.00033569,-1.00103760,0.000000,0.122070,-0.061035
10943410208,0.01524353,-0.00033569,-1.00103760,0.610352,-0.610352,0.000000
10951015500,0.01481628,0.00085449,-0.99778748,0.610352,-0.610352,0.000000
10953603250,0.01481628,0.00085449,-0.99778748,0.000000,0.183105,-0.122070
10961267458,0.01388550,-0.00126648,-0.97564697,0.000000,0.183105,-0.122070
10963852833,0.01388550,-0.00126648,-0.97564697,0.122070,-0.061035,0.061035
10971399791,0.01702881,-0.00103760,-1.04499817,0.122070,-0.061035,0.061035
10973967458,0.01702881,-0.00103760,-1.04499817,0.000000,0.122070,-0.122070
10981630583,0.01744080,0.00099182,-0.97619629,0.000000,0.366211,-0.061035
10991897166,0.01419067,0.00256348,-1.02111816,-0.488281,0.061035,0.000000
11002119833,0.01252747,0.00433350,-0.99198914,0.366211,0.061035,0.000000
11012302375,0.01232910,0.00648499,-1.00126648,0.183105,-0.183105,-0.061035
11022571208,0.01452637,0.00427246,-1.00352478,0.061035,0.122070,-0.122070
11032793958,0.01673889,0.00025940,-0.99105835,0.122070,0.122070,-0.122070
11042916375,0.01893616,-0.00173950,-1.00737000,0.061035,0.061035,0.061035
11053067541,0.01771545,-0.00286865,-0.99519348,0.061035,0.000000,-0.122070
11060638666,0.01510620,-0.00247192,-1.00468445,0.061035,0.000000,-0.122070
11063209625,0.01510620,-0.00247192,-1.00468445,0.000000,0.061035,-0.061035
11070854083,0.01387024,-0.00210571,-0.99588013,0.000000,0.061035,-0.061035
11073414458,0.01387024,-0.00210571,-0.99588013,0.122070,0.122070,0.000000
11081025875,0.01289368,-0.00047302,-1.00286865,0.122070,0.122070,0.000000
11083574833,0.01289368,-0.00047302,-1.00286865,0.061035,0.244141,0.000000
11091085291,0.01353455,-0.00132751,-1.00122070,0.061035,0.244141,0.000000
