timestamp_ns,accel_x,accel_y,accel_z,gyro_x,gyro_y,gyro_z
89048916,0.01220703,0.00422668,-0.99819946,0.000000,0.000000,0.000000
97852000,0.01220703,0.00422668,-0.99819946,0.122070,0.183105,-0.122070
106612541,0.01321411,0.00456238,-0.99598694,0.122070,0.061035,-0.061035
109411166,0.01251221,0.00518799,-0.99780273,0.122070,0.061035,-0.061035
114563125,0.01251221,0.00518799,-0.99780273,0.183105,-0.061035,-0.183105
117696958,0.01219177,0.00405884,-0.99652100,0.183105,-0.061035,-0.183105
123116416,0.01219177,0.00405884,-0.99652100,0.183105,0.244141,-0.183105
126125375,0.01208496,0.00538635,-0.99632263,0.183105,0.244141,-0.183105
135091916,0.01208496,0.00538635,-0.99632263,0.122070,0.183105,-0.183105
137846875,0.01275635,0.00581360,-0.99755859,0.122070,0.183105,-0.183105
142900916,0.01275635,0.00581360,-0.99755859,0.183105,0.122070,-0.122070
147976791,0.01246643,0.00440979,-0.99662781,0.183105,0.122070,-0.122070
153045375,0.01246643,0.00440979,-0.99662781,0.061035,0.244141,-0.244141
158088708,0.01176453,0.00527954,-0.99713135,0.061035,0.244141,-0.244141
163106500,0.01176453,0.00527954,-0.99713135,-0.061035,0.122070,-0.122070
168136458,0.01202393,0.00575256,-0.99684143,-0.061035,0.122070,-0.122070
173159666,0.01202393,0.00575256,-0.99684143,0.000000,0.183105,-0.061035
178225083,0.01179504,0.00674438,-0.99725342,0.000000,0.183105,-0.061035
183286666,0.01179504,0.00674438,-0.99725342,0.000000,0.183105,-0.061035
185803833,0.01181030,0.00663757,-0.99623108,0.000000,0.183105,-0.061035
193379750,0.01181030,0.00663757,-0.99623108,0.061035,0.183105,0.000000
195898916,0.01261902,0.00717163,-0.99630737,0.061035,0.183105,0.000000
203468791,0.01261902,0.00717163,-0.99630737,0.000000,0.183105,0.000000
205987833,0.01313782,0.00784302,-0.99720764,0.000000,0.183105,0.000000
213562000,0.01313782,0.00784302,-0.99720764,0.122070,0.183105,-0.122070
216082458,0.01098633,0.00765991,-0.99488831,0.122070,0.183105,-0.122070
223657041,0.01098633,0.00765991,-0.99488831,0.183105,0.305176,0.000000
226181958,0.01231384,0.00627136,-0.99595642,0.183105,0.305176,0.000000
233714333,0.01231384,0.00627136,-0.99595642,0.183105,0.122070,0.000000
236226166,0.01193237,0.00543213,-0.99537659,0.183105,0.122070,0.000000
243777000,0.01193237,0.00543213,-0.99537659,0.061035,0.244141,-0.122070
246291166,0.01179504,0.00474548,-0.99758911,0.061035,0.244141,-0.122070
253827708,0.01179504,0.00474548,-0.99758911,0.061035,0.122070,-0.061035
256341750,0.01214600,0.00407410,-0.99725342,0.061035,0.122070,-0.061035
263879375,0.01214600,0.00407410,-0.99725342,0.183105,0.244141,-0.122070
266411875,0.01127625,0.00230408,-0.99748230,0.183105,0.244141,-0.122070
273958500,0.01127625,0.00230408,-0.99748230,0.061035,0.183105,-0.122070
276494333,0.01245117,0.00323486,-0.99668884,0.061035,0.183105,-0.122070
284058625,0.01245117,0.00323486,-0.99668884,0.244141,0.122070,-0.122070
286592166,0.01202393,0.00320435,-0.99606323,0.244141,0.122070,-0.122070
294153250,0.01202393,0.00320435,-0.99606323,0.244141,0.122070,-0.122070
296686666,0.01222229,0.00389099,-0.99740601,0.244141,0.122070,-0.122070
304268541,0.01222229,0.00389099,-0.99740601,0.244141,0.061035,-0.183105
306808791,0.01361084,0.00427246,-0.99601746,0.244141,0.061035,-0.183105
314397458,0.01361084,0.00427246,-0.99601746,0.122070,0.061035,-0.122070
316931791,0.01173401,0.00552368,-0.99708557,0.122070,0.061035,-0.122070
324502791,0.01173401,0.00552368,-0.99708557,0.061035,0.122070,-0.122070
327033750,0.01161194,0.00668335,-0.99696350,0.061035,0.122070,-0.122070
334597916,0.01161194,0.00668335,-0.99696350,0.122070,0.244141,-0.183105
337125791,0.01280212,0.00781250,-0.99734497,0.122070,0.244141,-0.183105
344698708,0.01280212,0.00781250,-0.99734497,0.061035,0.244141,0.061035
347231708,0.01132202,0.00840759,-0.99708557,0.061035,0.244141,0.061035
354812416,0.01132202,0.00840759,-0.99708557,0.000000,0.061035,-0.061035
357337875,0.01081848,0.00979614,-0.99717712,0.000000,0.061035,-0.061035
364890208,0.01081848,0.00979614,-0.99717712,-0.122070,0.122070,-0.244141
367453833,0.01168823,0.00936890,-0.99760437,-0.122070,0.122070,-0.244141
374870333,0.01168823,0.00936890,-0.99760437,0.000000,0.122070,-0.183105
377494208,0.01298523,0.00839233,-0.99554443,0.000000,0.122070,-0.183105
385124791,0.01298523,0.00839233,-0.99554443,0.061035,0.183105,-0.061035
387706000,0.01214600,0.00668335,-0.99667358,0.061035,0.183105,-0.061035
392759000,0.01214600,0.00668335,-0.99667358,0.122070,-0.061035,-0.122070
397807000,0.01078796,0.00576782,-0.99722290,0.122070,-0.061035,-0.122070
403841250,0.01078796,0.00576782,-0.99722290,0.000000,0.122070,-0.061035
409140500,0.01142883,0.00473022,-0.99723816,0.000000,0.122070,-0.061035
414081791,0.01142883,0.00473022,-0.99723816,0.061035,0.244141,-0.061035
419155000,0.01300049,0.00346375,-0.99586487,0.061035,0.244141,-0.061035
424222958,0.01300049,0.00346375,-0.99586487,0.122070,0.183105,-0.061035
426771958,0.01255798,0.00277710,-0.99589539,0.122070,0.183105,-0.061035
434104500,0.01255798,0.00277710,-0.99589539,0.061035,0.183105,0.000000
439210708,0.01300049,0.00273132,-0.99525452,0.061035,0.183105,0.000000
443959291,0.01300049,0.00273132,-0.99525452,0.061035,0.183105,0.000000
449522833,0.01332092,0.00280762,-0.99647522,0.061035,0.183105,0.000000
454461041,0.01332092,0.00280762,-0.99647522,0.061035,0.244141,-0.122070
457071833,0.01170349,0.00347900,-0.99775696,0.061035,0.244141,-0.122070
464921208,0.01170349,0.00347900,-0.99775696,0.000000,0.244141,-0.061035
467485166,0.01130676,0.00425720,-0.99679565,0.000000,0.244141,-0.061035
476233708,0.01130676,0.00425720,-0.99679565,-0.061035,0.183105,-0.061035
478829291,0.01074219,0.00479126,-0.99681091,-0.061035,0.183105,-0.061035
489431000,0.01074219,0.00479126,-0.99681091,0.061035,0.183105,-0.122070
491969208,0.01237488,0.00553894,-0.99600220,0.061035,0.183105,-0.122070
494490500,0.01237488,0.00553894,-0.99600220,0.000000,0.122070,-0.122070
497008458,0.01158142,0.00506592,-0.99714661,0.000000,0.122070,-0.122070
504630125,0.01158142,0.00506592,-0.99714661,0.122070,0.305176,-0.183105
506748125,0.01187134,0.00544739,-0.99723816,0.122070,0.305176,-0.183105
514063583,0.01187134,0.00544739,-0.99723816,0.000000,0.122070,0.000000
519141000,0.01234436,0.00671387,-0.99678040,0.000000,0.122070,0.000000
524227875,0.01234436,0.00671387,-0.99678040,0.061035,0.183105,-0.122070
526772833,0.01205444,0.00549316,-0.99723816,0.061035,0.183105,-0.122070
534448791,0.01205444,0.00549316,-0.99723816,0.061035,0.183105,-0.122070
537002583,0.01300049,0.00379944,-0.99645996,0.061035,0.183105,-0.122070
544635166,0.01300049,0.00379944,-0.99645996,0.061035,0.122070,-0.183105
547224250,0.01292419,0.00390625,-0.99693298,0.061035,0.122070,-0.183105
554920375,0.01292419,0.00390625,-0.99693298,0.000000,0.122070,-0.183105
557500875,0.01251221,0.00451660,-0.99694824,0.000000,0.122070,-0.183105
565032208,0.01251221,0.00451660,-0.99694824,0.183105,0.122070,0.000000
567932041,0.01290894,0.00456238,-0.99638367,0.183105,0.122070,0.000000
574950333,0.01290894,0.00456238,-0.99638367,0.061035,0.183105,-0.183105
577529250,0.01142883,0.00483704,-0.99577332,0.061035,0.183105,-0.183105
585163208,0.01142883,0.00483704,-0.99577332,0.061035,0.061035,-0.122070
587723958,0.01164246,0.00477600,-0.99649048,0.061035,0.061035,-0.122070
595287041,0.01164246,0.00477600,-0.99649048,0.061035,0.061035,-0.061035
597831500,0.01196289,0.00709534,-0.99760437,0.061035,0.061035,-0.061035
602942208,0.01196289,0.00709534,-0.99760437,0.000000,0.183105,-0.122070
608018791,0.01213074,0.00730896,-0.99542236,0.000000,0.183105,-0.122070
613091041,0.01213074,0.00730896,-0.99542236,0.000000,0.183105,-0.061035
618166333,0.01118469,0.00776672,-0.99673462,0.000000,0.183105,-0.061035
625425708,0.01118469,0.00776672,-0.99673462,0.183105,0.244141,-0.061035
627969666,0.01113892,0.00782776,-0.99670410,0.183105,0.244141,-0.061035
633097166,0.01113892,0.00782776,-0.99670410,0.061035,0.183105,-0.061035
638073916,0.01167297,0.00692749,-0.99728394,0.061035,0.183105,-0.061035
643163666,0.01167297,0.00692749,-0.99728394,0.122070,0.183105,-0.061035
648229166,0.01187134,0.00614929,-0.99620056,0.122070,0.183105,-0.061035
653305875,0.01187134,0.00614929,-0.99620056,0.244141,0.183105,-0.183105
658388875,0.01219177,0.00506592,-0.99662781,0.244141,0.183105,-0.183105
663442916,0.01219177,0.00506592,-0.99662781,0.000000,0.244141,-0.122070
668509833,0.01271057,0.00401306,-0.99539185,0.000000,0.244141,-0.122070
673597625,0.01271057,0.00401306,-0.99539185,0.061035,0.183105,-0.122070
678663375,0.01156616,0.00337219,-0.99713135,0.061035,0.183105,-0.122070
683727625,0.01156616,0.00337219,-0.99713135,0.183105,0.183105,-0.122070
688791708,0.01261902,0.00312805,-0.99673462,0.183105,0.183105,-0.122070
693868375,0.01261902,0.00312805,-0.99673462,0.000000,0.061035,-0.244141
698946250,0.01243591,0.00338745,-0.99670410,0.000000,0.061035,-0.244141
704018750,0.01243591,0.00338745,-0.99670410,0.183105,0.122070,-0.183105
709080166,0.01306152,0.00305176,-0.99739075,0.183105,0.122070,-0.183105
714143041,0.01306152,0.00305176,-0.99739075,0.061035,0.122070,0.000000
718885333,0.01313782,0.00413513,-0.99624634,0.061035,0.122070,0.000000
723952750,0.01313782,0.00413513,-0.99624634,0.000000,0.183105,-0.122070
729008333,0.01184082,0.00534058,-0.99665833,0.000000,0.183105,-0.122070
734065708,0.01184082,0.00534058,-0.99665833,0.183105,0.183105,-0.061035
739130041,0.01219177,0.00639343,-0.99667358,0.183105,0.183105,-0.061035
744196333,0.01219177,0.00639343,-0.99667358,0.122070,0.061035,-0.061035
749270625,0.01094055,0.00715637,-0.99649048,0.122070,0.061035,-0.061035
754338666,0.01094055,0.00715637,-0.99649048,0.244141,0.183105,0.061035
759077750,0.01161194,0.00709534,-0.99716187,0.244141,0.183105,0.061035
764153500,0.01161194,0.00709534,-0.99716187,0.183105,0.183105,-0.061035
769212291,0.01139832,0.00590515,-0.99757385,0.183105,0.183105,-0.061035
774348125,0.01139832,0.00590515,-0.99757385,0.061035,0.244141,-0.061035
779413833,0.01147461,0.00572205,-0.99754333,0.061035,0.244141,-0.061035
784470833,0.01147461,0.00572205,-0.99754333,0.122070,0.122070,-0.122070
789527333,0.01115417,0.00527954,-0.99511719,0.122070,0.122070,-0.122070
794603083,0.01115417,0.00527954,-0.99511719,0.183105,0.305176,0.000000
799693958,0.01255798,0.00372314,-0.99737549,0.183105,0.305176,0.000000
804767875,0.01255798,0.00372314,-0.99737549,0.122070,0.244141,-0.122070
807307000,0.01275635,0.00289917,-0.99638367,0.122070,0.244141,-0.122070
814901750,0.01275635,0.00289917,-0.99638367,0.122070,0.122070,-0.122070
817455750,0.01263428,0.00260925,-0.99722290,0.122070,0.122070,-0.122070
825040000,0.01263428,0.00260925,-0.99722290,0.000000,0.122070,-0.122070
827577083,0.01203918,0.00363159,-0.99765015,0.000000,0.122070,-0.122070
835164833,0.01203918,0.00363159,-0.99765015,0.122070,0.061035,-0.122070
840222458,0.01225281,0.00347900,-0.99671936,0.122070,0.061035,-0.122070
845314083,0.01225281,0.00347900,-0.99671936,0.183105,0.183105,-0.061035
847872041,0.01199341,0.00277710,-0.99578857,0.183105,0.183105,-0.061035
855035916,0.01199341,0.00277710,-0.99578857,0.183105,0.305176,-0.122070
860128333,0.01242065,0.00401306,-0.99575806,0.183105,0.305176,-0.122070
865225125,0.01242065,0.00401306,-0.99575806,0.305176,0.122070,-0.122070
870309625,0.01325989,0.00497437,-0.99679565,0.305176,0.122070,-0.122070
875392125,0.01325989,0.00497437,-0.99679565,0.244141,0.183105,-0.122070
877939458,0.01275635,0.00584412,-0.99575806,0.244141,0.183105,-0.122070
885533500,0.01275635,0.00584412,-0.99575806,0.183105,0.244141,-0.122070
888070583,0.01167297,0.00553894,-0.99574280,0.183105,0.244141,-0.122070
895654375,0.01167297,0.00553894,-0.99574280,0.183105,0.183105,-0.061035
898195541,0.01173401,0.00588989,-0.99629211,0.183105,0.183105,-0.061035
905776541,0.01173401,0.00588989,-0.99629211,0.061035,0.122070,-0.122070
908317333,0.01185608,0.00553894,-0.99688721,0.061035,0.122070,-0.122070
915925375,0.01185608,0.00553894,-0.99688721,0.061035,0.061035,-0.122070
918464583,0.01123047,0.00619507,-0.99798584,0.061035,0.061035,-0.122070
926137125,0.01123047,0.00619507,-0.99798584,0.000000,0.244141,-0.061035
928685291,0.00976562,0.00794983,-0.99778748,0.000000,0.244141,-0.061035
933804416,0.00976562,0.00794983,-0.99778748,-0.061035,0.183105,-0.061035
938876708,0.00944519,0.00938416,-0.99801636,-0.061035,0.183105,-0.061035
943938833,0.00944519,0.00938416,-0.99801636,0.061035,0.122070,0.000000
949016333,0.01029968,0.00970459,-0.99714661,0.061035,0.122070,0.000000
954078416,0.01029968,0.00970459,-0.99714661,0.000000,0.122070,-0.061035
958891291,0.01103210,0.00846863,-0.99725342,0.000000,0.122070,-0.061035
963969666,0.01103210,0.00846863,-0.99725342,0.183105,0.244141,0.000000
969066458,0.01196289,0.00784302,-0.99479675,0.183105,0.244141,0.000000
974136041,0.01196289,0.00784302,-0.99479675,0.183105,0.183105,0.122070
979219750,0.01261902,0.00646973,-0.99655151,0.183105,0.183105,0.122070
984282041,0.01261902,0.00646973,-0.99655151,0.122070,0.244141,-0.061035
989183208,0.01324463,0.00497437,-0.99729919,0.122070,0.244141,-0.061035
994258333,0.01324463,0.00497437,-0.99729919,-0.061035,0.183105,-0.061035
999317666,0.01448059,0.00257874,-0.99642944,-0.061035,0.183105,-0.061035
1004391916,0.01448059,0.00257874,-0.99642944,0.061035,0.183105,0.061035
1009462375,0.01290894,0.00099182,-0.99684143,0.061035,0.183105,0.061035
1014521250,0.01290894,0.00099182,-0.99684143,0.122070,0.000000,-0.183105
1019586375,0.01194763,0.00134277,-0.99717712,0.122070,0.000000,-0.183105
1024644750,0.01194763,0.00134277,-0.99717712,0.122070,0.122070,0.000000
1029736250,0.01245117,0.00091553,-0.99652100,0.122070,0.122070,0.000000
1034795833,0.01245117,0.00091553,-0.99652100,0.000000,0.183105,-0.122070
1039852750,0.01284790,0.00234985,-0.99674988,0.000000,0.183105,-0.122070
1044974041,0.01284790,0.00234985,-0.99674988,0.061035,0.183105,-0.183105
1050035125,0.01281738,0.00407410,-0.99705505,0.061035,0.183105,-0.183105
1054881708,0.01281738,0.00407410,-0.99705505,0.000000,0.183105,-0.122070
1059941708,0.01277161,0.00512695,-0.99588013,0.000000,0.183105,-0.122070
1065022041,0.01277161,0.00512695,-0.99588013,0.061035,0.061035,-0.122070
1070084208,0.01144409,0.00720215,-0.99571228,0.061035,0.061035,-0.122070
1075146916,0.01144409,0.00720215,-0.99571228,0.122070,0.122070,-0.061035
1080220708,0.01008606,0.00732422,-0.99693298,0.122070,0.122070,-0.061035
1085004750,0.01008606,0.00732422,-0.99693298,0.061035,0.244141,-0.061035
1089697375,0.01060486,0.00836182,-0.99661255,0.061035,0.244141,-0.061035
1094778416,0.01060486,0.00836182,-0.99661255,0.122070,0.183105,-0.122070
1099873333,0.01130676,0.00761414,-0.99531555,0.122070,0.183105,-0.122070
1104944083,0.01130676,0.00761414,-0.99531555,0.000000,0.183105,0.000000
1110029250,0.01208496,0.00791931,-0.99812317,0.000000,0.183105,0.000000
1114706000,0.01208496,0.00791931,-0.99812317,0.061035,0.244141,-0.122070
1119776916,0.01188660,0.00608826,-0.99687195,0.061035,0.244141,-0.122070
1124860833,0.01188660,0.00608826,-0.99687195,-0.061035,0.122070,-0.061035
1129946500,0.01325989,0.00302124,-0.99693298,-0.061035,0.122070,-0.061035
1135025708,0.01325989,0.00302124,-0.99693298,0.000000,0.122070,-0.183105
1140093958,0.01408386,0.00169373,-0.99752808,0.000000,0.122070,-0.183105
1145167708,0.01408386,0.00169373,-0.99752808,-0.061035,0.244141,-0.122070
1150304166,0.01313782,0.00152588,-0.99676514,-0.061035,0.244141,-0.122070
1155392333,0.01313782,0.00152588,-0.99676514,0.122070,0.122070,-0.122070
1160461208,0.01329041,0.00209045,-0.99519348,0.122070,0.122070,-0.122070
1165555500,0.01329041,0.00209045,-0.99519348,0.183105,0.305176,-0.122070
1168095541,0.01185608,0.00213623,-0.99617004,0.183105,0.305176,-0.122070
1175725375,0.01185608,0.00213623,-0.99617004,0.000000,0.183105,-0.183105
1178276708,0.01203918,0.00363159,-0.99807739,0.000000,0.183105,-0.183105
1185864375,0.01203918,0.00363159,-0.99807739,0.000000,0.183105,-0.183105
1188406875,0.01234436,0.00404358,-0.99644470,0.000000,0.183105,-0.183105
1196037625,0.01234436,0.00404358,-0.99644470,0.122070,0.183105,-0.122070
1198575500,0.01121521,0.00611877,-0.99525452,0.122070,0.183105,-0.122070
1206155250,0.01121521,0.00611877,-0.99525452,0.183105,0.244141,-0.183105
1208713083,0.00984192,0.00732422,-0.99575806,0.183105,0.244141,-0.183105
1216321000,0.00984192,0.00732422,-0.99575806,0.183105,0.244141,0.000000
1218863958,0.01116943,0.00891113,-0.99674988,0.183105,0.244141,0.000000
1226458666,0.01116943,0.00891113,-0.99674988,0.122070,0.183105,0.061035
1228532416,0.01086426,0.00933838,-0.99742126,0.122070,0.183105,0.061035
1236127541,0.01086426,0.00933838,-0.99742126,0.000000,0.244141,-0.122070
1238685875,0.01156616,0.00843811,-0.99647522,0.000000,0.244141,-0.122070
1246312833,0.01156616,0.00843811,-0.99647522,0.000000,0.122070,-0.061035
1248919916,0.01147461,0.00697327,-0.99737549,0.000000,0.122070,-0.061035
1256523750,0.01147461,0.00697327,-0.99737549,0.000000,0.061035,-0.122070
1259054458,0.01193237,0.00573730,-0.99725342,0.000000,0.061035,-0.122070
1266608291,0.01193237,0.00573730,-0.99725342,0.122070,0.122070,-0.183105
1269137916,0.01284790,0.00349426,-0.99636841,0.122070,0.122070,-0.183105
1276704208,0.01284790,0.00349426,-0.99636841,0.000000,0.183105,0.061035
1279242958,0.01271057,0.00189209,-0.99522400,0.000000,0.183105,0.061035
1286813875,0.01271057,0.00189209,-0.99522400,0.061035,0.244141,0.061035
1289341000,0.01246643,0.00177002,-0.99621582,0.061035,0.244141,0.061035
1296943958,0.01246643,0.00177002,-0.99621582,0.122070,0.183105,-0.122070
1299505500,0.01280212,0.00099182,-0.99739075,0.122070,0.183105,-0.122070
1307103833,0.01280212,0.00099182,-0.99739075,0.122070,0.122070,-0.061035
1309668833,0.01220703,0.00180054,-0.99615479,0.122070,0.122070,-0.061035
1317278166,0.01220703,0.00180054,-0.99615479,0.122070,0.122070,-0.061035
1319836250,0.01162720,0.00218201,-0.99572754,0.122070,0.122070,-0.061035
1324910416,0.01162720,0.00218201,-0.99572754,0.000000,0.244141,-0.122070
1329990875,0.01054382,0.00360107,-0.99763489,0.000000,0.244141,-0.122070
1335056000,0.01054382,0.00360107,-0.99763489,0.061035,0.122070,-0.183105
1340141291,0.01126099,0.00538635,-0.99623108,0.061035,0.122070,-0.183105
1345211791,0.01126099,0.00538635,-0.99623108,0.061035,0.305176,-0.061035
1350302125,0.01296997,0.00549316,-0.99635315,0.061035,0.305176,-0.061035
1355383958,0.01296997,0.00549316,-0.99635315,0.061035,0.000000,-0.122070
1360462916,0.01223755,0.00564575,-0.99816895,0.061035,0.000000,-0.122070
1365530416,0.01223755,0.00564575,-0.99816895,0.000000,0.122070,-0.122070
1370660750,0.01127625,0.00616455,-0.99763489,0.000000,0.122070,-0.122070
1375730291,0.01127625,0.00616455,-0.99763489,0.061035,0.122070,-0.122070
1380809333,0.01304626,0.00581360,-0.99569702,0.061035,0.122070,-0.122070
1385561375,0.01304626,0.00581360,-0.99569702,0.122070,0.183105,-0.122070
1390645083,0.01208496,0.00590515,-0.99678040,0.122070,0.183105,-0.122070
1395726416,0.01208496,0.00590515,-0.99678040,0.000000,0.183105,-0.122070
1400296833,0.01153564,0.00569153,-0.99571228,0.000000,0.183105,-0.122070
1405365916,0.01153564,0.00569153,-0.99571228,0.000000,0.183105,-0.061035
1409937083,0.01129150,0.00529480,-0.99681091,0.000000,0.183105,-0.061035
1415024125,0.01129150,0.00529480,-0.99681091,0.122070,0.122070,0.000000
1420165916,0.01211548,0.00491333,-0.99610901,0.122070,0.122070,0.000000
1425287208,0.01211548,0.00491333,-0.99610901,0.000000,0.244141,-0.122070
1430366000,0.01208496,0.00520325,-0.99629211,0.000000,0.244141,-0.122070
1435432916,0.01208496,0.00520325,-0.99629211,0.000000,0.122070,0.000000
1440510541,0.01254272,0.00389099,-0.99736023,0.000000,0.122070,0.000000
1445579625,0.01254272,0.00389099,-0.99736023,0.000000,0.000000,-0.183105
1450636458,0.01179504,0.00369263,-0.99649048,0.000000,0.000000,-0.183105
1455718375,0.01179504,0.00369263,-0.99649048,0.061035,0.000000,-0.061035
1460795333,0.01191711,0.00477600,-0.99497986,0.061035,0.000000,-0.061035
1465865666,0.01191711,0.00477600,-0.99497986,0.244141,0.183105,-0.122070
1470929916,0.01200867,0.00547791,-0.99723816,0.244141,0.183105,-0.122070
1476002166,0.01200867,0.00547791,-0.99723816,0.122070,0.183105,-0.061035
1481067000,0.01164246,0.00485229,-0.99642944,0.122070,0.183105,-0.061035
1486059625,0.01164246,0.00485229,-0.99642944,0.000000,0.183105,-0.122070
1490753416,0.01161194,0.00573730,-0.99742126,0.000000,0.183105,-0.122070
1495843708,0.01161194,0.00573730,-0.99742126,-0.061035,0.183105,-0.122070
1500912083,0.01202393,0.00529480,-0.99656677,-0.061035,0.183105,-0.122070
1505705833,0.01202393,0.00529480,-0.99656677,0.122070,0.244141,-0.061035
1510777458,0.01141357,0.00581360,-0.99801636,0.122070,0.244141,-0.061035
1515872666,0.01141357,0.00581360,-0.99801636,0.061035,0.000000,-0.122070
1520941333,0.01130676,0.00666809,-0.99645996,0.061035,0.000000,-0.122070
1526006208,0.01130676,0.00666809,-0.99645996,0.122070,0.061035,-0.183105
1531068916,0.01191711,0.00578308,-0.99711609,0.122070,0.061035,-0.183105
1536142916,0.01191711,0.00578308,-0.99711609,0.061035,0.183105,-0.183105
1541234666,0.01229858,0.00563049,-0.99687195,0.061035,0.183105,-0.183105
1546296750,0.01229858,0.00563049,-0.99687195,0.000000,0.183105,-0.122070
1551356666,0.01202393,0.00541687,-0.99772644,0.000000,0.183105,-0.122070
1556433791,0.01202393,0.00541687,-0.99772644,-0.061035,0.183105,-0.122070
1559016083,0.01225281,0.00415039,-0.99710083,-0.061035,0.183105,-0.122070
1566418708,0.01225281,0.00415039,-0.99710083,0.183105,0.122070,-0.183105
1569013000,0.01280212,0.00320435,-0.99655151,0.183105,0.122070,-0.183105
1576613041,0.01280212,0.00320435,-0.99655151,0.000000,0.061035,-0.061035
1579159125,0.01315308,0.00254822,-0.99670410,0.000000,0.061035,-0.061035
1586770625,0.01315308,0.00254822,-0.99670410,0.061035,0.244141,-0.183105
1591741708,0.01208496,0.00263977,-0.99610901,0.061035,0.244141,-0.183105
1596819250,0.01208496,0.00263977,-0.99610901,0.122070,0.305176,-0.183105
1599367208,0.01127625,0.00302124,-0.99681091,0.122070,0.305176,-0.183105
1606964875,0.01127625,0.00302124,-0.99681091,0.061035,0.183105,-0.122070
1609504166,0.01152039,0.00404358,-0.99714661,0.061035,0.183105,-0.122070
1617124041,0.01152039,0.00404358,-0.99714661,0.000000,0.122070,-0.061035
1619683000,0.01243591,0.00506592,-0.99765015,0.000000,0.122070,-0.061035
1627278375,0.01243591,0.00506592,-0.99765015,0.000000,0.000000,-0.122070
1629825375,0.01243591,0.00547791,-0.99682617,0.000000,0.000000,-0.122070
1637413833,0.01243591,0.00547791,-0.99682617,0.000000,0.122070,-0.122070
1639955333,0.01156616,0.00585938,-0.99687195,0.000000,0.122070,-0.122070
1647562250,0.01156616,0.00585938,-0.99687195,0.122070,0.244141,-0.061035
1650104875,0.01170349,0.00657654,-0.99684143,0.122070,0.244141,-0.061035
1657214541,0.01170349,0.00657654,-0.99684143,0.061035,0.122070,0.061035
1659755583,0.01283264,0.00708008,-0.99575806,0.061035,0.122070,0.061035
1667374041,0.01283264,0.00708008,-0.99575806,0.000000,0.000000,-0.061035
1669916125,0.01197815,0.00595093,-0.99722290,0.000000,0.000000,-0.061035
1677501208,0.01197815,0.00595093,-0.99722290,0.061035,0.183105,-0.061035
1680047083,0.01240540,0.00418091,-0.99819946,0.061035,0.183105,-0.061035
1687639250,0.01240540,0.00418091,-0.99819946,0.000000,0.183105,-0.122070
1690179958,0.01226807,0.00433350,-0.99816895,0.000000,0.183105,-0.122070
1697768708,0.01226807,0.00433350,-0.99816895,-0.122070,0.244141,-0.061035
1700320708,0.01145935,0.00410461,-0.99520874,-0.122070,0.244141,-0.061035
1707919958,0.01145935,0.00410461,-0.99520874,0.122070,0.122070,-0.122070
1710465041,0.01293945,0.00302124,-0.99774170,0.122070,0.122070,-0.122070
1718092666,0.01293945,0.00302124,-0.99774170,0.122070,0.244141,0.000000
1720632166,0.01332092,0.00338745,-0.99748230,0.122070,0.244141,0.000000
1728224458,0.01332092,0.00338745,-0.99748230,-0.183105,0.244141,-0.183105
1730761125,0.01245117,0.00386047,-0.99703979,-0.183105,0.244141,-0.183105
1735816875,0.01245117,0.00386047,-0.99703979,0.061035,0.122070,-0.061035
1740896583,0.01306152,0.00408936,-0.99678040,0.061035,0.122070,-0.061035
1745956375,0.01306152,0.00408936,-0.99678040,-0.061035,0.122070,-0.183105
1751028583,0.01295471,0.00532532,-0.99635315,-0.061035,0.122070,-0.183105
1756139333,0.01295471,0.00532532,-0.99635315,0.061035,0.183105,-0.122070
1761227583,0.01202393,0.00518799,-0.99700928,0.061035,0.183105,-0.122070
1766310958,0.01202393,0.00518799,-0.99700928,0.061035,0.183105,-0.122070
1771424958,0.01217651,0.00587463,-0.99694824,0.061035,0.183105,-0.122070
1776521625,0.01217651,0.00587463,-0.99694824,0.061035,0.183105,-0.122070
1781604625,0.01130676,0.00602722,-0.99652100,0.061035,0.183105,-0.122070
1786666416,0.01130676,0.00602722,-0.99652100,0.061035,0.244141,-0.061035
1791723833,0.01190186,0.00602722,-0.99697876,0.061035,0.244141,-0.061035
1796783458,0.01190186,0.00602722,-0.99697876,0.000000,0.122070,-0.183105
1801877250,0.01156616,0.00621033,-0.99691772,0.000000,0.122070,-0.183105
1806968833,0.01156616,0.00621033,-0.99691772,0.061035,0.244141,-0.183105
1812063333,0.01231384,0.00642395,-0.99720764,0.061035,0.244141,-0.183105
1817142000,0.01231384,0.00642395,-0.99720764,0.061035,0.183105,-0.061035
1822213708,0.01199341,0.00469971,-0.99659729,0.061035,0.183105,-0.061035
1827440416,0.01199341,0.00469971,-0.99659729,0.183105,0.061035,-0.183105
1830014625,0.01168823,0.00466919,-0.99639893,0.183105,0.061035,-0.183105
1837313791,0.01168823,0.00466919,-0.99639893,0.000000,0.183105,-0.061035
1839869625,0.01234436,0.00541687,-0.99581909,0.000000,0.183105,-0.061035
1847165083,0.01234436,0.00541687,-0.99581909,0.000000,0.244141,-0.244141
1849771125,0.01106262,0.00444031,-0.99707031,0.000000,0.244141,-0.244141
1857355250,0.01106262,0.00444031,-0.99707031,0.061035,0.122070,-0.122070
1859904208,0.01071167,0.00469971,-0.99681091,0.061035,0.122070,-0.122070
1867396833,0.01071167,0.00469971,-0.99681091,0.183105,0.122070,-0.122070
1869960375,0.01132202,0.00440979,-0.99722290,0.183105,0.122070,-0.122070
1877563916,0.01132202,0.00440979,-0.99722290,0.061035,0.122070,-0.122070
1880136166,0.01248169,0.00366211,-0.99546814,0.061035,0.122070,-0.122070
1887785083,0.01248169,0.00366211,-0.99546814,0.061035,0.244141,0.000000
1890354666,0.01153564,0.00294495,-0.99557495,0.061035,0.244141,0.000000
1897549041,0.01153564,0.00294495,-0.99557495,0.183105,0.183105,-0.183105
1900103791,0.01229858,0.00459290,-0.99636841,0.183105,0.183105,-0.183105
1907278083,0.01229858,0.00459290,-0.99636841,0.183105,0.122070,-0.122070
1909808125,0.01261902,0.00495911,-0.99667358,0.183105,0.122070,-0.122070
1917728958,0.01261902,0.00495911,-0.99667358,0.000000,0.122070,-0.122070
1920300166,0.01228333,0.00546265,-0.99781799,0.000000,0.122070,-0.122070
1927578708,0.01228333,0.00546265,-0.99781799,0.000000,0.183105,-0.061035
1930127625,0.01248169,0.00595093,-0.99610901,0.000000,0.183105,-0.061035
1937727250,0.01248169,0.00595093,-0.99610901,-0.061035,0.061035,-0.122070
1940273625,0.01187134,0.00581360,-0.99766541,-0.061035,0.061035,-0.122070
1947853041,0.01187134,0.00581360,-0.99766541,0.000000,0.183105,-0.183105
1950403041,0.01292419,0.00547791,-0.99780273,0.000000,0.183105,-0.183105
1958003916,0.01292419,0.00547791,-0.99780273,0.061035,0.244141,-0.061035
1960130041,0.01264954,0.00511169,-0.99784851,0.061035,0.244141,-0.061035
1968681541,0.01264954,0.00511169,-0.99784851,0.122070,0.183105,-0.122070
1971280416,0.01109314,0.00411987,-0.99687195,0.122070,0.183105,-0.122070
1976360125,0.01109314,0.00411987,-0.99687195,0.000000,0.122070,-0.183105
1981437125,0.01069641,0.00347900,-0.99653625,0.000000,0.122070,-0.183105
1986130833,0.01069641,0.00347900,-0.99653625,0.183105,0.244141,-0.061035
1991220083,0.01191711,0.00369263,-0.99694824,0.183105,0.244141,-0.061035
1998548833,0.01191711,0.00369263,-0.99694824,0.000000,0.244141,-0.061035
2001139250,0.01264954,0.00338745,-0.99523926,0.000000,0.244141,-0.061035
2006211583,0.01264954,0.00338745,-0.99523926,0.000000,0.183105,-0.061035
2011284833,0.01263428,0.00373840,-0.99624634,0.000000,0.183105,-0.061035
2016291750,0.01263428,0.00373840,-0.99624634,0.000000,0.122070,-0.061035
2021330833,0.01219177,0.00456238,-0.99765015,0.000000,0.122070,-0.061035
2028896625,0.01219177,0.00456238,-0.99765015,0.061035,0.122070,-0.061035
2031436958,0.01179504,0.00570679,-0.99760437,0.061035,0.122070,-0.061035
2039029125,0.01179504,0.00570679,-0.99760437,0.061035,0.183105,0.000000
2041574250,0.01197815,0.00547791,-0.99655151,0.061035,0.183105,0.000000
2049163416,0.01197815,0.00547791,-0.99655151,-0.061035,0.122070,-0.183105
2051710250,0.01113892,0.00489807,-0.99645996,-0.061035,0.122070,-0.183105
2056755000,0.01113892,0.00489807,-0.99645996,0.000000,0.061035,-0.061035
2061797666,0.01150513,0.00509644,-0.99665833,0.000000,0.061035,-0.061035
2066841208,0.01150513,0.00509644,-0.99665833,0.061035,0.183105,-0.061035
2071876875,0.01239014,0.00523376,-0.99662781,0.061035,0.183105,-0.061035
2079045541,0.01239014,0.00523376,-0.99662781,0.122070,0.122070,-0.183105
2081599583,0.01293945,0.00596619,-0.99612427,0.122070,0.122070,-0.183105
2086654041,0.01293945,0.00596619,-0.99612427,0.000000,0.061035,-0.061035
2091773375,0.01351929,0.00520325,-0.99504089,0.000000,0.061035,-0.061035
2096859583,0.01351929,0.00520325,-0.99504089,0.000000,0.122070,-0.061035
2102005583,0.01364136,0.00535583,-0.99769592,0.000000,0.122070,-0.061035
2106953125,0.01364136,0.00535583,-0.99769592,0.061035,0.122070,-0.061035
2112537750,0.01336670,0.00605774,-0.99694824,0.061035,0.122070,-0.061035
2117675000,0.01336670,0.00605774,-0.99694824,0.122070,0.183105,-0.061035
2120265166,0.01242065,0.00561523,-0.99713135,0.122070,0.183105,-0.061035
2127873750,0.01242065,0.00561523,-0.99713135,0.000000,0.122070,-0.122070
2132975875,0.01174927,0.00585938,-0.99621582,0.000000,0.122070,-0.122070
2138013416,0.01174927,0.00585938,-0.99621582,0.000000,0.122070,-0.122070
2142865333,0.01213074,0.00534058,-0.99755859,0.000000,0.122070,-0.122070
2147916041,0.01213074,0.00534058,-0.99755859,-0.061035,0.305176,0.000000
2152987333,0.01161194,0.00558472,-0.99732971,-0.061035,0.305176,0.000000
2158077416,0.01161194,0.00558472,-0.99732971,0.000000,0.122070,-0.061035
2163156291,0.01237488,0.00518799,-0.99624634,0.000000,0.122070,-0.061035
2168242833,0.01237488,0.00518799,-0.99624634,0.122070,0.122070,-0.122070
2170792666,0.01220703,0.00392151,-0.99600220,0.122070,0.122070,-0.122070
2178395291,0.01220703,0.00392151,-0.99600220,0.061035,0.122070,-0.183105
2180939625,0.01213074,0.00306702,-0.99607849,0.061035,0.122070,-0.183105
2188523666,0.01213074,0.00306702,-0.99607849,0.061035,0.183105,-0.061035
2191060583,0.01242065,0.00262451,-0.99755859,0.061035,0.183105,-0.061035
2198661875,0.01242065,0.00262451,-0.99755859,0.244141,0.244141,-0.122070
2201220458,0.01348877,0.00331116,-0.99624634,0.244141,0.244141,-0.122070
2209077208,0.01348877,0.00331116,-0.99624634,0.122070,0.061035,-0.122070
2211625250,0.01260376,0.00280762,-0.99658203,0.122070,0.061035,-0.122070
2216683666,0.01260376,0.00280762,-0.99658203,0.122070,0.061035,-0.061035
2221783666,0.01234436,0.00329590,-0.99766541,0.122070,0.061035,-0.061035
2226862750,0.01234436,0.00329590,-0.99766541,0.061035,0.244141,-0.244141
2231925958,0.01152039,0.00482178,-0.99647522,0.061035,0.244141,-0.244141
2236986583,0.01152039,0.00482178,-0.99647522,0.061035,0.183105,0.000000
2242052583,0.01119995,0.00546265,-0.99757385,0.061035,0.183105,0.000000
2247118208,0.01119995,0.00546265,-0.99757385,0.000000,0.366211,-0.061035
2252177041,0.01118469,0.00576782,-0.99665833,0.000000,0.366211,-0.061035
2257271583,0.01118469,0.00576782,-0.99665833,0.122070,0.183105,-0.122070
2262365083,0.01196289,0.00663757,-0.99659729,0.122070,0.183105,-0.122070
2267434500,0.01196289,0.00663757,-0.99659729,0.122070,0.122070,-0.122070
2272505083,0.01150513,0.00694275,-0.99568176,0.122070,0.122070,-0.122070
2277570333,0.01150513,0.00694275,-0.99568176,0.000000,0.122070,0.000000
2282644708,0.01153564,0.00665283,-0.99755859,0.000000,0.122070,0.000000
2287709500,0.01153564,0.00665283,-0.99755859,0.122070,0.183105,-0.122070
2292839250,0.01145935,0.00553894,-0.99642944,0.122070,0.183105,-0.122070
2297911250,0.01145935,0.00553894,-0.99642944,0.061035,0.244141,-0.122070
2302893750,0.01179504,0.00422668,-0.99638367,0.061035,0.244141,-0.122070
2307968791,0.01179504,0.00422668,-0.99638367,0.061035,0.122070,0.000000
2313035916,0.01155090,0.00387573,-0.99610901,0.061035,0.122070,0.000000
2318131041,0.01155090,0.00387573,-0.99610901,0.061035,0.061035,0.000000
2323211708,0.01339722,0.00292969,-0.99685669,0.061035,0.061035,0.000000
2328298958,0.01339722,0.00292969,-0.99685669,0.122070,0.305176,-0.122070
2330841125,0.01300049,0.00393677,-0.99656677,0.122070,0.305176,-0.122070
2338436333,0.01300049,0.00393677,-0.99656677,0.061035,0.122070,-0.122070
2340974583,0.01190186,0.00338745,-0.99659729,0.061035,0.122070,-0.122070
2348505333,0.01190186,0.00338745,-0.99659729,0.183105,0.183105,-0.122070
2351048333,0.01174927,0.00363159,-0.99687195,0.183105,0.183105,-0.122070
2358645958,0.01174927,0.00363159,-0.99687195,0.000000,0.122070,-0.061035
2361183375,0.01271057,0.00608826,-0.99665833,0.000000,0.122070,-0.061035
2368788416,0.01271057,0.00608826,-0.99665833,0.061035,0.183105,-0.122070
2371341791,0.01214600,0.00646973,-0.99670410,0.061035,0.183105,-0.122070
2378926333,0.01214600,0.00646973,-0.99670410,-0.061035,0.183105,0.000000
2381474333,0.01136780,0.00616455,-0.99661255,-0.061035,0.183105,0.000000
2389064833,0.01136780,0.00616455,-0.99661255,0.061035,0.183105,-0.122070
2391602583,0.01229858,0.00537109,-0.99639893,0.061035,0.183105,-0.122070
2398887041,0.01229858,0.00537109,-0.99639893,0.061035,0.122070,-0.122070
2401432791,0.01098633,0.00546265,-0.99768066,0.061035,0.122070,-0.122070
2409025458,0.01098633,0.00546265,-0.99768066,0.061035,0.122070,-0.061035
2411562541,0.01060486,0.00494385,-0.99652100,0.061035,0.122070,-0.061035
2419170375,0.01060486,0.00494385,-0.99652100,0.061035,0.183105,-0.122070
2421709291,0.01168823,0.00489807,-0.99699402,0.061035,0.183105,-0.122070
2429320125,0.01168823,0.00489807,-0.99699402,0.000000,0.122070,-0.183105
2431854916,0.01113892,0.00407410,-0.99661255,0.000000,0.122070,-0.183105
2439461208,0.01113892,0.00407410,-0.99661255,0.000000,0.000000,-0.122070
2441996833,0.01239014,0.00427246,-0.99635315,0.000000,0.000000,-0.122070
2449465875,0.01239014,0.00427246,-0.99635315,0.061035,0.305176,0.061035
2452013916,0.01310730,0.00352478,-0.99600220,0.061035,0.305176,0.061035
2459620000,0.01310730,0.00352478,-0.99600220,0.000000,0.183105,-0.122070
2462158000,0.01179504,0.00422668,-0.99647522,0.000000,0.183105,-0.122070
2469771333,0.01179504,0.00422668,-0.99647522,0.061035,0.122070,-0.183105
2472329125,0.01217651,0.00439453,-0.99708557,0.061035,0.122070,-0.183105
2479922583,0.01217651,0.00439453,-0.99708557,0.061035,0.122070,-0.061035
2482113125,0.01187134,0.00437927,-0.99620056,0.061035,0.122070,-0.061035
2489311916,0.01187134,0.00437927,-0.99620056,0.061035,0.183105,-0.122070
2491847958,0.01161194,0.00495911,-0.99745178,0.061035,0.183105,-0.122070
2499440708,0.01161194,0.00495911,-0.99745178,0.122070,0.305176,-0.122070
2501977625,0.01194763,0.00492859,-0.99786377,0.122070,0.305176,-0.122070
2509561750,0.01194763,0.00492859,-0.99786377,-0.061035,0.000000,-0.122070
2512099541,0.01243591,0.00503540,-0.99624634,-0.061035,0.000000,-0.122070
2519686583,0.01243591,0.00503540,-0.99624634,0.061035,0.244141,-0.122070
2522222333,0.01223755,0.00444031,-0.99577332,0.061035,0.244141,-0.122070
2529817250,0.01223755,0.00444031,-0.99577332,0.061035,0.244141,-0.122070
2532353625,0.01258850,0.00457764,-0.99673462,0.061035,0.244141,-0.122070
2539953083,0.01258850,0.00457764,-0.99673462,0.061035,0.244141,-0.061035
2542492125,0.01213074,0.00492859,-0.99726868,0.061035,0.244141,-0.061035
2550077166,0.01213074,0.00492859,-0.99726868,0.000000,0.122070,-0.122070
2552614916,0.01066589,0.00419617,-0.99688721,0.000000,0.122070,-0.122070
2560205166,0.01066589,0.00419617,-0.99688721,0.061035,0.122070,-0.183105
2562740458,0.01144409,0.00352478,-0.99661255,0.061035,0.122070,-0.183105
2569970291,0.01144409,0.00352478,-0.99661255,0.122070,0.244141,-0.122070
2572510666,0.01193237,0.00389099,-0.99630737,0.122070,0.244141,-0.122070
2580092333,0.01193237,0.00389099,-0.99630737,0.000000,0.122070,-0.183105
2582639166,0.01210022,0.00447083,-0.99737549,0.000000,0.122070,-0.183105
2590302041,0.01210022,0.00447083,-0.99737549,-0.061035,0.183105,-0.122070
2592850166,0.01258850,0.00460815,-0.99700928,-0.061035,0.183105,-0.122070
2597919416,0.01258850,0.00460815,-0.99700928,0.061035,0.122070,-0.061035
2602979666,0.01176453,0.00486755,-0.99763489,0.061035,0.122070,-0.061035
2608105041,0.01176453,0.00486755,-0.99763489,0.122070,0.122070,-0.122070
2613171916,0.01252747,0.00578308,-0.99731445,0.122070,0.122070,-0.122070
2618245541,0.01252747,0.00578308,-0.99731445,0.122070,0.183105,-0.183105
2622845333,0.01263428,0.00645447,-0.99696350,0.122070,0.183105,-0.183105
2627906875,0.01263428,0.00645447,-0.99696350,0.061035,0.122070,0.000000
2632642291,0.01281738,0.00521851,-0.99690247,0.061035,0.122070,0.000000
2640267625,0.01281738,0.00521851,-0.99690247,0.061035,0.244141,-0.061035
2642803958,0.01191711,0.00434875,-0.99545288,0.061035,0.244141,-0.061035
2647863541,0.01191711,0.00434875,-0.99545288,0.000000,0.183105,-0.183105
2652923750,0.01153564,0.00572205,-0.99679565,0.000000,0.183105,-0.183105
2657993333,0.01153564,0.00572205,-0.99679565,0.061035,0.061035,-0.061035
2663080208,0.01181030,0.00489807,-0.99612427,0.061035,0.061035,-0.061035
2668149375,0.01181030,0.00489807,-0.99612427,0.061035,0.183105,-0.061035
2673210750,0.01289368,0.00541687,-0.99633789,0.061035,0.183105,-0.061035
2678288083,0.01289368,0.00541687,-0.99633789,-0.061035,0.061035,0.000000
2683365708,0.01217651,0.00492859,-0.99740601,-0.061035,0.061035,0.000000
2688441458,0.01217651,0.00492859,-0.99740601,0.000000,0.183105,-0.122070
2693509916,0.01130676,0.00468445,-0.99710083,0.000000,0.183105,-0.122070
2698589625,0.01130676,0.00468445,-0.99710083,0.183105,0.122070,-0.183105
2703663458,0.01228333,0.00457764,-0.99606323,0.183105,0.122070,-0.183105
2708723708,0.01228333,0.00457764,-0.99606323,0.061035,0.244141,-0.183105
2713782000,0.01257324,0.00492859,-0.99671936,0.061035,0.244141,-0.183105
2718848291,0.01257324,0.00492859,-0.99671936,-0.061035,0.244141,-0.122070
2723919208,0.01217651,0.00495911,-0.99674988,-0.061035,0.244141,-0.122070
2728999583,0.01217651,0.00495911,-0.99674988,0.122070,0.122070,-0.183105
2734075916,0.01251221,0.00509644,-0.99632263,0.122070,0.122070,-0.183105
2739175333,0.01251221,0.00509644,-0.99632263,0.061035,0.122070,-0.122070
2744241791,0.01208496,0.00418091,-0.99697876,0.061035,0.122070,-0.122070
2749319833,0.01208496,0.00418091,-0.99697876,0.122070,0.244141,0.000000
2751854708,0.01327515,0.00445557,-0.99687195,0.122070,0.244141,0.000000
2759450625,0.01327515,0.00445557,-0.99687195,0.122070,0.244141,-0.061035
2761988250,0.01271057,0.00361633,-0.99696350,0.122070,0.244141,-0.061035
2769577000,0.01271057,0.00361633,-0.99696350,0.061035,0.061035,-0.183105
2772118541,0.01255798,0.00437927,-0.99682617,0.061035,0.061035,-0.183105
2779726416,0.01255798,0.00437927,-0.99682617,0.061035,0.244141,-0.122070
2782271166,0.01126099,0.00463867,-0.99577332,0.061035,0.244141,-0.122070
2789872458,0.01126099,0.00463867,-0.99577332,0.000000,0.122070,-0.122070
2792414541,0.01226807,0.00434875,-0.99705505,0.000000,0.122070,-0.122070
2800007041,0.01226807,0.00434875,-0.99705505,-0.122070,0.183105,-0.061035
2802547000,0.01274109,0.00483704,-0.99644470,-0.122070,0.183105,-0.061035
2810161708,0.01274109,0.00483704,-0.99644470,0.122070,0.183105,-0.122070
2812451541,0.01313782,0.00553894,-0.99649048,0.122070,0.183105,-0.122070
2820069875,0.01313782,0.00553894,-0.99649048,0.000000,0.122070,-0.122070
2822624541,0.01237488,0.00602722,-0.99607849,0.000000,0.122070,-0.122070
2830235500,0.01237488,0.00602722,-0.99607849,0.000000,0.122070,-0.061035
2832780416,0.01182556,0.00555420,-0.99714661,0.000000,0.122070,-0.061035
2840395166,0.01182556,0.00555420,-0.99714661,0.061035,0.183105,-0.061035
2842941666,0.01193237,0.00585938,-0.99565125,0.061035,0.183105,-0.061035
2850533083,0.01193237,0.00585938,-0.99565125,0.122070,0.122070,-0.061035
2853080833,0.01216125,0.00506592,-0.99745178,0.122070,0.122070,-0.061035
2860697666,0.01216125,0.00506592,-0.99745178,0.061035,0.305176,-0.183105
2863244375,0.01176453,0.00514221,-0.99688721,0.061035,0.305176,-0.183105
2870494458,0.01176453,0.00514221,-0.99688721,0.000000,0.122070,-0.244141
2873038583,0.01123047,0.00395203,-0.99708557,0.000000,0.122070,-0.244141
2880619958,0.01123047,0.00395203,-0.99708557,0.000000,0.183105,-0.122070
2883179833,0.01229858,0.00373840,-0.99635315,0.000000,0.183105,-0.122070
2890793333,0.01229858,0.00373840,-0.99635315,0.061035,0.061035,0.000000
2893351083,0.01229858,0.00437927,-0.99620056,0.061035,0.061035,0.000000
2900947083,0.01229858,0.00437927,-0.99620056,0.061035,0.061035,-0.122070
2903005166,0.01293945,0.00512695,-0.99665833,0.061035,0.061035,-0.122070
2910687708,0.01293945,0.00512695,-0.99665833,0.061035,0.183105,-0.122070
2913229375,0.01278687,0.00601196,-0.99639893,0.061035,0.183105,-0.122070
2920830166,0.01278687,0.00601196,-0.99639893,0.122070,0.183105,-0.061035
2923381125,0.01272583,0.00418091,-0.99674988,0.122070,0.183105,-0.061035
2930768250,0.01272583,0.00418091,-0.99674988,0.061035,0.183105,-0.122070
2933317333,0.01313782,0.00483704,-0.99691772,0.061035,0.183105,-0.122070
2940911375,0.01313782,0.00483704,-0.99691772,0.000000,0.122070,-0.061035
2943450666,0.01170349,0.00581360,-0.99766541,0.000000,0.122070,-0.061035
2951059375,0.01170349,0.00581360,-0.99766541,-0.061035,0.183105,-0.244141
2953604750,0.01136780,0.00474548,-0.99710083,-0.061035,0.183105,-0.244141
2958718625,0.01136780,0.00474548,-0.99710083,0.061035,0.183105,-0.183105
2963785541,0.01165771,0.00431824,-0.99549866,0.061035,0.183105,-0.183105
2968848208,0.01165771,0.00431824,-0.99549866,0.122070,0.183105,0.000000
2973909375,0.01232910,0.00372314,-0.99707031,0.122070,0.183105,0.000000
2978971333,0.01232910,0.00372314,-0.99707031,0.122070,0.122070,0.000000
2984033250,0.01223755,0.00434875,-0.99617004,0.122070,0.122070,0.000000
2989100416,0.01223755,0.00434875,-0.99617004,0.061035,0.122070,-0.122070
2994161833,0.01162720,0.00532532,-0.99644470,0.061035,0.122070,-0.122070
2999223208,0.01162720,0.00532532,-0.99644470,0.061035,0.122070,-0.061035
3004282916,0.01222229,0.00457764,-0.99645996,0.061035,0.122070,-0.061035
3009348541,0.01222229,0.00457764,-0.99645996,0.183105,0.183105,-0.183105
3014409291,0.01304626,0.00466919,-0.99740601,0.183105,0.183105,-0.183105
3019466541,0.01304626,0.00466919,-0.99740601,0.122070,0.122070,-0.061035
3024532500,0.01211548,0.00431824,-0.99685669,0.122070,0.122070,-0.061035
3029594208,0.01211548,0.00431824,-0.99685669,0.183105,0.183105,0.000000
3034650583,0.01133728,0.00413513,-0.99580383,0.183105,0.183105,0.000000
3039712666,0.01133728,0.00413513,-0.99580383,0.122070,0.244141,-0.061035
3044778125,0.01217651,0.00387573,-0.99545288,0.122070,0.244141,-0.061035
3049390666,0.01217651,0.00387573,-0.99545288,0.061035,0.244141,-0.061035
3054466583,0.01280212,0.00404358,-0.99621582,0.061035,0.244141,-0.061035
3059536083,0.01280212,0.00404358,-0.99621582,0.061035,0.183105,-0.183105
3064592458,0.01132202,0.00480652,-0.99600220,0.061035,0.183105,-0.183105
3069657458,0.01132202,0.00480652,-0.99600220,0.061035,0.244141,-0.061035
3074717458,0.01248169,0.00537109,-0.99632263,0.061035,0.244141,-0.061035
3079777958,0.01248169,0.00537109,-0.99632263,-0.061035,0.244141,-0.061035
3084838875,0.01196289,0.00421143,-0.99513245,-0.061035,0.244141,-0.061035
3089915375,0.01196289,0.00421143,-0.99513245,0.061035,0.244141,-0.122070
3095006375,0.01136780,0.00514221,-0.99581909,0.061035,0.244141,-0.122070
3100081833,0.01136780,0.00514221,-0.99581909,-0.061035,0.183105,-0.183105
3104870041,0.01245117,0.00460815,-0.99713135,-0.061035,0.183105,-0.183105
3109943375,0.01245117,0.00460815,-0.99713135,-0.061035,0.122070,-0.122070
3115039833,0.01261902,0.00532532,-0.99739075,-0.061035,0.122070,-0.122070
3120112458,0.01261902,0.00532532,-0.99739075,0.000000,0.061035,-0.061035
3125184791,0.01155090,0.00532532,-0.99635315,0.000000,0.061035,-0.061035
3130250708,0.01155090,0.00532532,-0.99635315,0.061035,0.244141,-0.061035
3134654375,0.01246643,0.00503540,-0.99790955,0.061035,0.244141,-0.061035
3139715666,0.01246643,0.00503540,-0.99790955,0.061035,0.305176,-0.122070
3144784250,0.01205444,0.00505066,-0.99673462,0.061035,0.305176,-0.122070
3149876416,0.01205444,0.00505066,-0.99673462,0.244141,0.244141,-0.061035
3154956958,0.01148987,0.00456238,-0.99729919,0.244141,0.244141,-0.061035
3160031958,0.01148987,0.00456238,-0.99729919,0.061035,0.122070,-0.122070
3165095666,0.01219177,0.00425720,-0.99679565,0.061035,0.122070,-0.122070
3169690166,0.01219177,0.00425720,-0.99679565,0.000000,0.122070,-0.122070
3174784916,0.01223755,0.00460815,-0.99723816,0.000000,0.122070,-0.122070
3179861083,0.01223755,0.00460815,-0.99723816,0.000000,0.183105,-0.061035
3184852708,0.01181030,0.00537109,-0.99581909,0.000000,0.183105,-0.061035
3189893666,0.01181030,0.00537109,-0.99581909,0.122070,0.122070,-0.122070
3194963916,0.01097107,0.00454712,-0.99671936,0.122070,0.122070,-0.122070
3200047166,0.01097107,0.00454712,-0.99671936,0.122070,0.122070,-0.183105
3205144250,0.01177979,0.00436401,-0.99732971,0.122070,0.122070,-0.183105
3210259041,0.01177979,0.00436401,-0.99732971,0.000000,0.122070,-0.061035
3212799708,0.01254272,0.00402832,-0.99665833,0.000000,0.122070,-0.061035
3220265458,0.01254272,0.00402832,-0.99665833,0.183105,0.061035,0.000000
3222799750,0.01266479,0.00415039,-0.99696350,0.183105,0.061035,0.000000
3230376916,0.01266479,0.00415039,-0.99696350,0.061035,0.244141,-0.183105
3232915833,0.01235962,0.00396729,-0.99562073,0.061035,0.244141,-0.183105
3240497291,0.01235962,0.00396729,-0.99562073,0.000000,0.183105,0.000000
3243033708,0.01171875,0.00511169,-0.99644470,0.000000,0.183105,0.000000
3250646916,0.01171875,0.00511169,-0.99644470,0.122070,0.122070,-0.122070
3253200166,0.01123047,0.00469971,-0.99725342,0.122070,0.122070,-0.122070
3260791333,0.01123047,0.00469971,-0.99725342,0.061035,0.122070,0.000000
3263341333,0.01187134,0.00524902,-0.99673462,0.061035,0.122070,0.000000
3270732833,0.01187134,0.00524902,-0.99673462,0.122070,0.183105,-0.122070
3273278500,0.01237488,0.00498962,-0.99609375,0.122070,0.183105,-0.122070
3280886750,0.01237488,0.00498962,-0.99609375,0.122070,0.000000,-0.122070
3283433416,0.01229858,0.00526428,-0.99620056,0.122070,0.000000,-0.122070
3291031750,0.01229858,0.00526428,-0.99620056,0.122070,0.305176,-0.122070
3293576666,0.01206970,0.00518799,-0.99734497,0.122070,0.305176,-0.122070
3300837916,0.01206970,0.00518799,-0.99734497,0.061035,0.183105,-0.122070
3303389875,0.01255798,0.00471497,-0.99583435,0.061035,0.183105,-0.122070
3310996041,0.01255798,0.00471497,-0.99583435,0.183105,0.244141,-0.122070
3313539708,0.01171875,0.00540161,-0.99511719,0.183105,0.244141,-0.122070
3321132125,0.01171875,0.00540161,-0.99511719,0.000000,0.122070,-0.183105
3323681416,0.01147461,0.00500488,-0.99644470,0.000000,0.122070,-0.183105
3331265250,0.01147461,0.00500488,-0.99644470,0.122070,0.244141,-0.183105
3333798291,0.01141357,0.00431824,-0.99719238,0.122070,0.244141,-0.183105
3341400458,0.01141357,0.00431824,-0.99719238,0.183105,0.244141,0.000000
3343965833,0.01293945,0.00418091,-0.99705505,0.183105,0.244141,0.000000
3351580041,0.01293945,0.00418091,-0.99705505,0.061035,0.183105,-0.183105
3354115541,0.01271057,0.00384521,-0.99636841,0.061035,0.183105,-0.183105
3361738458,0.01271057,0.00384521,-0.99636841,0.122070,0.122070,0.000000
3364288166,0.01147461,0.00468445,-0.99713135,0.122070,0.122070,0.000000
3371878500,0.01147461,0.00468445,-0.99713135,0.061035,0.305176,-0.122070
3374417500,0.01129150,0.00463867,-0.99555969,0.061035,0.305176,-0.122070
3381998250,0.01129150,0.00463867,-0.99555969,0.183105,0.061035,0.000000
3384533791,0.01206970,0.00497437,-0.99703979,0.183105,0.061035,0.000000
3392137875,0.01206970,0.00497437,-0.99703979,0.061035,0.183105,-0.122070
3394678916,0.01145935,0.00585938,-0.99568176,0.061035,0.183105,-0.122070
3399782916,0.01145935,0.00585938,-0.99568176,0.061035,0.183105,-0.061035
3404359333,0.01187134,0.00497437,-0.99719238,0.061035,0.183105,-0.061035
3411971458,0.01187134,0.00497437,-0.99719238,-0.061035,0.244141,-0.122070
3414517500,0.01277161,0.00563049,-0.99656677,-0.061035,0.244141,-0.122070
3422138291,0.01277161,0.00563049,-0.99656677,0.000000,0.122070,-0.183105
3424704458,0.01069641,0.00450134,-0.99682617,0.000000,0.122070,-0.183105
3429821083,0.01069641,0.00450134,-0.99682617,0.000000,0.183105,-0.061035
3434913000,0.01109314,0.00485229,-0.99684143,0.000000,0.183105,-0.061035
3439993750,0.01109314,0.00485229,-0.99684143,0.000000,0.000000,-0.122070
3445073208,0.01132202,0.00491333,-0.99697876,0.000000,0.000000,-0.122070
3450154166,0.01132202,0.00491333,-0.99697876,0.183105,0.183105,-0.122070
3455224958,0.01144409,0.00416565,-0.99714661,0.183105,0.183105,-0.122070
3460304625,0.01144409,0.00416565,-0.99714661,0.061035,0.244141,-0.061035
3465296416,0.01248169,0.00444031,-0.99763489,0.061035,0.244141,-0.061035
3470382541,0.01248169,0.00444031,-0.99763489,0.000000,0.244141,-0.122070
3475446958,0.01246643,0.00408936,-0.99716187,0.000000,0.244141,-0.122070
3480506666,0.01246643,0.00408936,-0.99716187,0.122070,0.122070,-0.122070
3485562333,0.01214600,0.00418091,-0.99562073,0.122070,0.122070,-0.122070
3489748916,0.01214600,0.00418091,-0.99562073,0.000000,0.061035,-0.061035
3494561333,0.01155090,0.00439453,-0.99618530,0.000000,0.061035,-0.061035
3502169708,0.01155090,0.00439453,-0.99618530,0.061035,0.183105,-0.061035
3504725208,0.01245117,0.00465393,-0.99691772,0.061035,0.183105,-0.061035
3509790541,0.01245117,0.00465393,-0.99691772,0.122070,0.122070,-0.061035
3514853750,0.01127625,0.00495911,-0.99621582,0.122070,0.122070,-0.061035
3519925166,0.01127625,0.00495911,-0.99621582,0.000000,0.183105,-0.061035
3524989958,0.01087952,0.00506592,-0.99752808,0.000000,0.183105,-0.061035
3530066750,0.01087952,0.00506592,-0.99752808,0.183105,0.244141,0.061035
3535136208,0.01222229,0.00495911,-0.99658203,0.183105,0.244141,0.061035
3540229416,0.01222229,0.00495911,-0.99658203,0.000000,0.122070,-0.061035
3545304625,0.01235962,0.00439453,-0.99717712,0.000000,0.122070,-0.061035
3550361166,0.01235962,0.00439453,-0.99717712,-0.061035,0.244141,-0.122070
3554913416,0.01245117,0.00440979,-0.99739075,-0.061035,0.244141,-0.122070
3559743166,0.01245117,0.00440979,-0.99739075,0.061035,0.183105,-0.061035
3564818666,0.01219177,0.00498962,-0.99740601,0.061035,0.183105,-0.061035
3571967000,0.01219177,0.00498962,-0.99740601,0.000000,0.244141,-0.122070
3574522333,0.01324463,0.00456238,-0.99649048,0.000000,0.244141,-0.122070
3582147875,0.01324463,0.00456238,-0.99649048,0.061035,0.244141,-0.183105
3584696666,0.01176453,0.00434875,-0.99534607,0.061035,0.244141,-0.183105
3592311000,0.01176453,0.00434875,-0.99534607,0.183105,0.061035,-0.122070
3594875083,0.01229858,0.00456238,-0.99694824,0.183105,0.061035,-0.122070
3599958833,0.01229858,0.00456238,-0.99694824,0.183105,0.183105,-0.061035
3605033875,0.01217651,0.00483704,-0.99725342,0.183105,0.183105,-0.061035
3612385375,0.01217651,0.00483704,-0.99725342,0.000000,0.122070,-0.061035
3614938583,0.01184082,0.00460815,-0.99649048,0.000000,0.122070,-0.061035
3620015583,0.01184082,0.00460815,-0.99649048,-0.061035,0.183105,-0.183105
3625081375,0.01055908,0.00473022,-0.99552917,-0.061035,0.183105,-0.183105
3630142458,0.01055908,0.00473022,-0.99552917,0.000000,0.061035,-0.183105
3635222541,0.01200867,0.00471497,-0.99647522,0.000000,0.061035,-0.183105
3640286958,0.01200867,0.00471497,-0.99647522,0.000000,0.244141,0.061035
3645354958,0.01374817,0.00440979,-0.99740601,0.000000,0.244141,0.061035
3650421375,0.01374817,0.00440979,-0.99740601,0.061035,0.244141,-0.061035
3655179916,0.01234436,0.00398254,-0.99736023,0.061035,0.244141,-0.061035
3660249916,0.01234436,0.00398254,-0.99736023,0.061035,0.122070,-0.122070
3665320083,0.01249695,0.00355530,-0.99722290,0.061035,0.122070,-0.122070
3670383458,0.01249695,0.00355530,-0.99722290,-0.061035,0.244141,-0.122070
3675444083,0.01228333,0.00321960,-0.99771118,-0.061035,0.244141,-0.122070
3680511333,0.01228333,0.00321960,-0.99771118,0.061035,0.061035,-0.061035
3685604958,0.01254272,0.00343323,-0.99757385,0.061035,0.061035,-0.061035
3690672708,0.01254272,0.00343323,-0.99757385,0.000000,0.122070,0.000000
3695751375,0.01261902,0.00331116,-0.99588013,0.000000,0.122070,0.000000
3700818875,0.01261902,0.00331116,-0.99588013,0.000000,0.122070,-0.183105
3705552500,0.01280212,0.00445557,-0.99652100,0.000000,0.122070,-0.183105
3710612750,0.01280212,0.00445557,-0.99652100,0.061035,0.183105,-0.183105
3715678666,0.01310730,0.00430298,-0.99610901,0.061035,0.183105,-0.183105
3720738125,0.01310730,0.00430298,-0.99610901,0.183105,0.000000,-0.122070
3725801250,0.01168823,0.00547791,-0.99697876,0.183105,0.000000,-0.122070
3730864500,0.01168823,0.00547791,-0.99697876,0.061035,0.122070,-0.183105
3735941541,0.01167297,0.00595093,-0.99676514,0.061035,0.122070,-0.183105
3741010791,0.01167297,0.00595093,-0.99676514,0.183105,0.244141,0.000000
3746087708,0.01179504,0.00613403,-0.99627686,0.183105,0.244141,0.000000
3751006583,0.01179504,0.00613403,-0.99627686,-0.061035,0.183105,-0.183105
3756089083,0.01136780,0.00584412,-0.99679565,-0.061035,0.183105,-0.183105
3761182541,0.01136780,0.00584412,-0.99679565,0.000000,0.122070,-0.122070
3766256708,0.01115417,0.00546265,-0.99665833,0.000000,0.122070,-0.122070
3771343333,0.01115417,0.00546265,-0.99665833,0.000000,0.183105,-0.061035
3776412750,0.01177979,0.00491333,-0.99641418,0.000000,0.183105,-0.061035
3781587166,0.01177979,0.00491333,-0.99641418,0.061035,0.183105,-0.061035
3784157208,0.01243591,0.00419617,-0.99627686,0.061035,0.183105,-0.061035
3791768333,0.01243591,0.00419617,-0.99627686,0.061035,0.183105,-0.122070
3794330458,0.01182556,0.00297546,-0.99731445,0.061035,0.183105,-0.122070
3801934333,0.01182556,0.00297546,-0.99731445,0.061035,0.183105,-0.061035
3804472250,0.01300049,0.00257874,-0.99763489,0.061035,0.183105,-0.061035
3812069541,0.01300049,0.00257874,-0.99763489,-0.061035,0.122070,-0.061035
3814614958,0.01234436,0.00381470,-0.99688721,-0.061035,0.122070,-0.061035
3822201500,0.01234436,0.00381470,-0.99688721,0.000000,0.122070,-0.061035
3824737625,0.01211548,0.00398254,-0.99723816,0.000000,0.122070,-0.061035
3832325333,0.01211548,0.00398254,-0.99723816,0.000000,0.061035,-0.061035
3834869500,0.01159668,0.00410461,-0.99623108,0.000000,0.061035,-0.061035
3842464250,0.01159668,0.00410461,-0.99623108,0.000000,0.183105,-0.061035
3845008791,0.01213074,0.00506592,-0.99665833,0.000000,0.183105,-0.061035
3852447375,0.01213074,0.00506592,-0.99665833,-0.061035,0.061035,-0.061035
3854884875,0.01162720,0.00479126,-0.99621582,-0.061035,0.061035,-0.061035
3862490500,0.01162720,0.00479126,-0.99621582,0.061035,0.183105,-0.061035
3865031458,0.01065063,0.00534058,-0.99645996,0.061035,0.183105,-0.061035
3872615541,0.01065063,0.00534058,-0.99645996,-0.122070,0.122070,-0.122070
3875157291,0.01161194,0.00625610,-0.99642944,-0.122070,0.122070,-0.122070
3882751166,0.01161194,0.00625610,-0.99642944,0.122070,0.183105,0.000000
3885287583,0.01216125,0.00579834,-0.99722290,0.122070,0.183105,0.000000
3892992458,0.01216125,0.00579834,-0.99722290,0.061035,0.122070,-0.183105
3895535083,0.01161194,0.00503540,-0.99684143,0.061035,0.122070,-0.183105
3903130833,0.01161194,0.00503540,-0.99684143,0.061035,0.183105,-0.061035
3905741666,0.01170349,0.00474548,-0.99641418,0.061035,0.183105,-0.061035
3910814708,0.01170349,0.00474548,-0.99641418,0.183105,0.305176,0.000000
3915893416,0.01184082,0.00521851,-0.99679565,0.183105,0.305176,0.000000
3920955291,0.01184082,0.00521851,-0.99679565,0.061035,0.061035,-0.183105
3926028666,0.01325989,0.00442505,-0.99630737,0.061035,0.061035,-0.183105
3931100041,0.01325989,0.00442505,-0.99630737,0.000000,0.122070,-0.061035
3936177583,0.01144409,0.00416565,-0.99720764,0.000000,0.122070,-0.061035
3941235000,0.01144409,0.00416565,-0.99720764,-0.122070,0.061035,0.000000
3946301250,0.01246643,0.00418091,-0.99630737,-0.122070,0.061035,0.000000
3951371833,0.01246643,0.00418091,-0.99630737,0.122070,0.366211,-0.122070
3956435875,0.01191711,0.00386047,-0.99710083,0.122070,0.366211,-0.122070
3961503083,0.01191711,0.00386047,-0.99710083,0.122070,0.122070,-0.122070
3966532875,0.01211548,0.00389099,-0.99681091,0.122070,0.122070,-0.122070
3971605541,0.01211548,0.00389099,-0.99681091,0.000000,0.183105,-0.061035
3976665958,0.01237488,0.00416565,-0.99795532,0.000000,0.183105,-0.061035
3981733375,0.01237488,0.00416565,-0.99795532,0.122070,0.000000,-0.122070
3986808541,0.01199341,0.00471497,-0.99583435,0.122070,0.000000,-0.122070
3991888708,0.01199341,0.00471497,-0.99583435,-0.061035,0.061035,-0.183105
3996960666,0.01144409,0.00508118,-0.99682617,-0.061035,0.061035,-0.183105
4002061250,0.01144409,0.00508118,-0.99682617,0.122070,0.183105,-0.122070
4007144708,0.01167297,0.00561523,-0.99760437,0.122070,0.183105,-0.122070
4012203625,0.01167297,0.00561523,-0.99760437,0.061035,0.183105,-0.061035
4017280125,0.01298523,0.00596619,-0.99641418,0.061035,0.183105,-0.061035
4022350625,0.01298523,0.00596619,-0.99641418,0.183105,0.122070,-0.061035
4024893833,0.01254272,0.00669861,-0.99673462,0.183105,0.122070,-0.061035
4032498625,0.01254272,0.00669861,-0.99673462,0.183105,0.305176,-0.061035
4035040958,0.01210022,0.00486755,-0.99620056,0.183105,0.305176,-0.061035
4042641708,0.01210022,0.00486755,-0.99620056,0.061035,0.061035,-0.061035
4045183708,0.01220703,0.00508118,-0.99755859,0.061035,0.061035,-0.061035
4052780083,0.01220703,0.00508118,-0.99755859,0.183105,0.244141,-0.061035
4055034208,0.01225281,0.00520325,-0.99821472,0.183105,0.244141,-0.061035
4062632708,0.01225281,0.00520325,-0.99821472,0.000000,0.183105,0.000000
4065183625,0.01264954,0.00544739,-0.99597168,0.000000,0.183105,0.000000
4072785458,0.01264954,0.00544739,-0.99597168,0.000000,0.183105,-0.122070
4075326291,0.01310730,0.00457764,-0.99774170,0.000000,0.183105,-0.122070
4082676166,0.01310730,0.00457764,-0.99774170,0.061035,0.183105,-0.122070
4085218416,0.01196289,0.00405884,-0.99737549,0.061035,0.183105,-0.122070
4092811750,0.01196289,0.00405884,-0.99737549,0.061035,0.244141,-0.122070
4095350208,0.01069641,0.00469971,-0.99661255,0.061035,0.244141,-0.122070
4102940625,0.01069641,0.00469971,-0.99661255,0.061035,0.122070,0.000000
4105490625,0.01213074,0.00444031,-0.99624634,0.061035,0.122070,0.000000
4113098208,0.01213074,0.00444031,-0.99624634,0.122070,0.244141,-0.061035
4115649583,0.01208496,0.00512695,-0.99824524,0.122070,0.244141,-0.061035
4123238708,0.01208496,0.00512695,-0.99824524,0.061035,0.244141,-0.122070
4125774083,0.01246643,0.00473022,-0.99681091,0.061035,0.244141,-0.122070
4133386250,0.01246643,0.00473022,-0.99681091,0.061035,0.061035,-0.122070
4135931416,0.01237488,0.00389099,-0.99685669,0.061035,0.061035,-0.122070
4143525000,0.01237488,0.00389099,-0.99685669,-0.122070,-0.061035,-0.183105
4146081708,0.01242065,0.00415039,-0.99676514,-0.122070,-0.061035,-0.183105
4153562416,0.01242065,0.00415039,-0.99676514,0.122070,0.183105,0.061035
4156128583,0.01182556,0.00540161,-0.99784851,0.122070,0.183105,0.061035
4161208708,0.01182556,0.00540161,-0.99784851,0.000000,0.122070,-0.061035
4166101416,0.01200867,0.00590515,-0.99653625,0.000000,0.122070,-0.061035
4171236583,0.01200867,0.00590515,-0.99653625,0.000000,0.244141,-0.122070
4176299666,0.01167297,0.00526428,-0.99624634,0.000000,0.244141,-0.122070
4181360875,0.01167297,0.00526428,-0.99624634,0.061035,0.122070,0.000000
4186425375,0.01261902,0.00502014,-0.99597168,0.061035,0.122070,0.000000
4193698708,0.01261902,0.00502014,-0.99597168,0.061035,0.122070,-0.122070
4196245666,0.01277161,0.00590515,-0.99632263,0.061035,0.122070,-0.122070
4203868791,0.01277161,0.00590515,-0.99632263,0.061035,0.122070,-0.122070
4206411500,0.01194763,0.00466919,-0.99658203,0.061035,0.122070,-0.122070
4214024166,0.01194763,0.00466919,-0.99658203,0.061035,0.244141,-0.061035
4216563333,0.01300049,0.00473022,-0.99679565,0.061035,0.244141,-0.061035
4223857625,0.01300049,0.00473022,-0.99679565,-0.061035,0.244141,-0.183105
4226394125,0.01309204,0.00442505,-0.99626160,-0.061035,0.244141,-0.183105
4233977750,0.01309204,0.00442505,-0.99626160,0.000000,0.183105,0.000000
4236513875,0.01176453,0.00341797,-0.99732971,0.000000,0.183105,0.000000
4244106500,0.01176453,0.00341797,-0.99732971,0.000000,0.000000,-0.122070
4246669458,0.01222229,0.00384521,-0.99645996,0.000000,0.000000,-0.122070
4251778375,0.01222229,0.00384521,-0.99645996,-0.061035,0.122070,-0.122070
4256843083,0.01216125,0.00428772,-0.99774170,-0.061035,0.122070,-0.122070
4261907291,0.01216125,0.00428772,-0.99774170,0.000000,0.183105,-0.061035
4266964333,0.01220703,0.00433350,-0.99815369,0.000000,0.183105,-0.061035
4272051625,0.01220703,0.00433350,-0.99815369,0.061035,0.000000,-0.183105
4277124416,0.01274109,0.00508118,-0.99699402,0.061035,0.000000,-0.183105
4282194041,0.01274109,0.00508118,-0.99699402,0.061035,0.183105,-0.183105
4287271041,0.01148987,0.00524902,-0.99501038,0.061035,0.183105,-0.183105
4292496583,0.01148987,0.00524902,-0.99501038,0.183105,0.061035,-0.183105
4297590041,0.01113892,0.00569153,-0.99633789,0.183105,0.061035,-0.183105
4302660750,0.01113892,0.00569153,-0.99633789,0.122070,0.244141,-0.122070
4307763083,0.01158142,0.00558472,-0.99792480,0.122070,0.244141,-0.122070
4312845500,0.01158142,0.00558472,-0.99792480,0.000000,0.183105,-0.183105
4317912541,0.01245117,0.00572205,-0.99752808,0.000000,0.183105,-0.183105
4322978125,0.01245117,0.00572205,-0.99752808,0.122070,0.244141,-0.061035
4328054916,0.01339722,0.00502014,-0.99658203,0.122070,0.244141,-0.061035
4333130125,0.01339722,0.00502014,-0.99658203,0.061035,0.244141,-0.061035
4338201250,0.01232910,0.00613403,-0.99652100,0.061035,0.244141,-0.061035
4343037875,0.01232910,0.00613403,-0.99652100,0.122070,0.122070,-0.183105
4348096125,0.01208496,0.00500488,-0.99647522,0.122070,0.122070,-0.183105
4353176958,0.01208496,0.00500488,-0.99647522,0.122070,0.183105,0.000000
4358291166,0.01232910,0.00292969,-0.99659729,0.122070,0.183105,0.000000
4363337416,0.01232910,0.00292969,-0.99659729,0.061035,0.183105,-0.122070
4365886958,0.01142883,0.00427246,-0.99565125,0.061035,0.183105,-0.122070
4373480666,0.01142883,0.00427246,-0.99565125,0.000000,0.183105,-0.061035
4376022833,0.01206970,0.00390625,-0.99748230,0.000000,0.183105,-0.061035
4383616541,0.01206970,0.00390625,-0.99748230,0.061035,0.305176,-0.122070
4386165041,0.01214600,0.00479126,-0.99655151,0.061035,0.305176,-0.122070
4393584291,0.01214600,0.00479126,-0.99655151,-0.122070,0.122070,-0.061035
4396143666,0.01187134,0.00479126,-0.99708557,-0.122070,0.122070,-0.061035
4403751708,0.01187134,0.00479126,-0.99708557,0.000000,0.122070,-0.122070
4406315125,0.01213074,0.00477600,-0.99589539,0.000000,0.122070,-0.122070
4413938750,0.01213074,0.00477600,-0.99589539,0.122070,0.244141,-0.244141
4416478750,0.01203918,0.00556946,-0.99635315,0.122070,0.244141,-0.244141
4424110416,0.01203918,0.00556946,-0.99635315,0.061035,0.244141,-0.122070
4426669583,0.01184082,0.00511169,-0.99621582,0.061035,0.244141,-0.122070
4434285416,0.01184082,0.00511169,-0.99621582,0.061035,0.061035,-0.183105
4436824708,0.01065063,0.00505066,-0.99729919,0.061035,0.061035,-0.183105
4444139291,0.01065063,0.00505066,-0.99729919,0.061035,-0.061035,-0.061035
4446686208,0.01205444,0.00550842,-0.99681091,0.061035,-0.061035,-0.061035
4454279625,0.01205444,0.00550842,-0.99681091,0.305176,-0.305176,-0.061035
4456851083,0.01123047,0.00642395,-0.99356079,0.305176,-0.305176,-0.061035
4461912041,0.01123047,0.00642395,-0.99356079,0.183105,0.244141,-0.061035
4466973125,0.01072693,0.00537109,-0.99882507,0.183105,0.244141,-0.061035
4472026625,0.01072693,0.00537109,-0.99882507,0.244141,0.000000,-0.122070
4477104916,0.01205444,0.00547791,-1.00050354,0.244141,0.000000,-0.122070
4483961666,0.01205444,0.00547791,-1.00050354,0.000000,0.061035,-0.244141
4486020375,0.01313782,0.00433350,-0.99324036,0.000000,0.061035,-0.244141
4493167583,0.01313782,0.00433350,-0.99324036,0.061035,0.244141,-0.122070
4498267791,0.01203918,0.00309753,-0.99792480,0.061035,0.244141,-0.122070
4502902166,0.01203918,0.00309753,-0.99792480,0.061035,0.122070,-0.061035
4507979583,0.01272583,0.00199890,-0.99650574,0.061035,0.122070,-0.061035
4513108458,0.01272583,0.00199890,-0.99650574,-0.061035,0.183105,0.000000
4518184833,0.01304626,0.00331116,-0.99707031,-0.061035,0.183105,0.000000
4523262333,0.01304626,0.00331116,-0.99707031,-0.061035,0.244141,-0.122070
4525820416,0.01242065,0.00349426,-0.99795532,-0.061035,0.244141,-0.122070
4533410166,0.01242065,0.00349426,-0.99795532,-0.061035,0.061035,-0.122070
4535947791,0.01138306,0.00439453,-0.99563599,-0.061035,0.061035,-0.122070
4543558958,0.01138306,0.00439453,-0.99563599,-0.061035,0.610352,-0.122070
4548172000,0.00993347,0.00544739,-0.99565125,-0.061035,0.610352,-0.122070
4553261750,0.00993347,0.00544739,-0.99565125,0.000000,0.122070,-0.061035
4558327541,0.01049805,0.00592041,-0.99613953,0.000000,0.122070,-0.061035
4563395250,0.01049805,0.00592041,-0.99613953,0.000000,0.183105,-0.122070
4565952500,0.01119995,0.00598145,-0.99610901,0.000000,0.183105,-0.122070
4573107500,0.01119995,0.00598145,-0.99610901,-0.061035,0.183105,-0.122070
4577698583,0.01152039,0.00659180,-0.99505615,-0.061035,0.183105,-0.122070
4582574041,0.01152039,0.00659180,-0.99505615,0.061035,0.061035,-0.122070
4587650500,0.01220703,0.00596619,-0.99563599,0.061035,0.061035,-0.122070
4592726208,0.01220703,0.00596619,-0.99563599,0.122070,0.122070,-0.122070
4597801375,0.01226807,0.00521851,-0.99856567,0.122070,0.122070,-0.122070
4602869666,0.01226807,0.00521851,-0.99856567,-0.122070,0.183105,-0.122070
4607957791,0.01210022,0.00363159,-0.99458313,-0.122070,0.183105,-0.122070
4613028125,0.01210022,0.00363159,-0.99458313,0.061035,0.183105,-0.061035
4617604708,0.01342773,0.00244141,-0.99790955,0.061035,0.183105,-0.061035
4625243208,0.01342773,0.00244141,-0.99790955,0.061035,0.122070,-0.061035
4627786041,0.01271057,0.00283813,-0.99703979,0.061035,0.122070,-0.061035
4632887375,0.01271057,0.00283813,-0.99703979,0.061035,0.183105,-0.183105
4637961208,0.01260376,0.00326538,-0.99659729,0.061035,0.183105,-0.183105
4643048375,0.01260376,0.00326538,-0.99659729,0.061035,0.122070,-0.122070
4648138541,0.01176453,0.00436401,-0.99723816,0.061035,0.122070,-0.122070
4652774875,0.01176453,0.00436401,-0.99723816,0.061035,0.183105,-0.061035
4657850708,0.01148987,0.00555420,-0.99627686,0.061035,0.183105,-0.061035
4662942916,0.01148987,0.00555420,-0.99627686,0.488281,0.183105,0.000000
4668026458,0.01232910,0.00733948,-0.99285889,0.488281,0.183105,0.000000
4673104166,0.01232910,0.00733948,-0.99285889,-0.061035,0.183105,-0.122070
4678195125,0.01261902,0.00650024,-0.99101257,-0.061035,0.183105,-0.122070
4683272416,0.01261902,0.00650024,-0.99101257,0.183105,0.244141,-0.061035
4688360791,0.01295471,0.00607300,-1.00906372,0.183105,0.244141,-0.061035
4693431041,0.01295471,0.00607300,-1.00906372,0.183105,0.183105,-0.061035
4698500291,0.01321411,0.00704956,-0.98902893,0.183105,0.183105,-0.061035
4703586583,0.01321411,0.00704956,-0.98902893,-0.183105,0.305176,0.000000
4708660250,0.01162720,0.00668335,-0.99885559,-0.183105,0.305176,0.000000
4713744500,0.01162720,0.00668335,-0.99885559,0.061035,0.183105,-0.061035
4716286000,0.01152039,0.00531006,-0.99942017,0.061035,0.183105,-0.061035
4723714958,0.01152039,0.00531006,-0.99942017,-0.122070,0.122070,0.000000
4728803708,0.01182556,0.00502014,-0.99317932,-0.122070,0.122070,0.000000
4733875958,0.01182556,0.00502014,-0.99317932,0.061035,0.183105,-0.061035
4738812875,0.01289368,0.00477600,-0.99942017,0.061035,0.183105,-0.061035
4743889125,0.01289368,0.00477600,-0.99942017,-0.122070,0.183105,0.061035
4748977333,0.01237488,0.00404358,-0.99359131,-0.122070,0.183105,0.061035
4754040833,0.01237488,0.00404358,-0.99359131,0.061035,0.061035,-0.061035
4759109291,0.01232910,0.00354004,-0.99874878,0.061035,0.061035,-0.061035
4764208416,0.01232910,0.00354004,-0.99874878,-0.061035,0.244141,0.000000
4766759541,0.01258850,0.00408936,-0.99351501,-0.061035,0.244141,0.000000
4774370083,0.01258850,0.00408936,-0.99351501,0.244141,0.122070,0.000000
4776908791,0.01235962,0.00421143,-1.00068665,0.244141,0.122070,0.000000
4784505416,0.01235962,0.00421143,-1.00068665,-0.061035,0.183105,-0.183105
4787051500,0.01268005,0.00480652,-0.99649048,-0.061035,0.183105,-0.183105
4794639625,0.01268005,0.00480652,-0.99649048,0.000000,0.122070,-0.122070
4797186708,0.01106262,0.00639343,-0.99420166,0.000000,0.122070,-0.122070
4804789875,0.01106262,0.00639343,-0.99420166,0.061035,0.122070,-0.061035
4807329958,0.01031494,0.00709534,-0.99958801,0.061035,0.122070,-0.061035
4814956208,0.01031494,0.00709534,-0.99958801,0.000000,0.061035,-0.183105
4817506125,0.01158142,0.00611877,-0.99545288,0.000000,0.061035,-0.183105
4825139500,0.01158142,0.00611877,-0.99545288,0.000000,0.183105,0.000000
4827704083,0.01136780,0.00527954,-0.99719238,0.000000,0.183105,0.000000
4832793916,0.01136780,0.00527954,-0.99719238,0.122070,0.122070,-0.122070
4837876708,0.01155090,0.00350952,-0.99617004,0.122070,0.122070,-0.122070
4842944458,0.01155090,0.00350952,-0.99617004,0.000000,0.183105,0.000000
4848010833,0.01296997,0.00305176,-0.99658203,0.000000,0.183105,0.000000
4853081166,0.01296997,0.00305176,-0.99658203,0.183105,0.061035,-0.183105
4858157875,0.01153564,0.00480652,-0.99610901,0.183105,0.061035,-0.183105
4863235666,0.01153564,0.00480652,-0.99610901,0.061035,0.122070,-0.061035
4868301875,0.01213074,0.00416565,-0.99551392,0.061035,0.122070,-0.061035
4873369791,0.01213074,0.00416565,-0.99551392,0.122070,0.122070,-0.061035
4878445958,0.01240540,0.00386047,-0.99575806,0.122070,0.122070,-0.061035
4883514916,0.01240540,0.00386047,-0.99575806,0.061035,0.244141,-0.122070
4888572875,0.01309204,0.00457764,-0.99548340,0.061035,0.244141,-0.122070
4893632291,0.01309204,0.00457764,-0.99548340,0.122070,0.244141,-0.061035
4898708291,0.01258850,0.00340271,-0.99604797,0.122070,0.244141,-0.061035
4903785875,0.01258850,0.00340271,-0.99604797,0.122070,0.122070,-0.305176
4908391208,0.01231384,0.00357056,-0.99633789,0.122070,0.122070,-0.305176
4913463750,0.01231384,0.00357056,-0.99633789,0.244141,0.244141,-0.122070
4918530416,0.01145935,0.00314331,-0.99645996,0.244141,0.244141,-0.122070
4923590750,0.01145935,0.00314331,-0.99645996,0.061035,0.122070,-0.122070
4928653791,0.01164246,0.00373840,-0.99661255,0.061035,0.122070,-0.122070
4933724166,0.01164246,0.00373840,-0.99661255,0.061035,0.122070,-0.061035
4938691083,0.01171875,0.00454712,-0.99668884,0.061035,0.122070,-0.061035
4943762041,0.01171875,0.00454712,-0.99668884,0.122070,0.244141,-0.061035
4948860333,0.01136780,0.00515747,-0.99723816,0.122070,0.244141,-0.061035
4953561291,0.01136780,0.00515747,-0.99723816,0.122070,0.000000,0.000000
4958630583,0.01170349,0.00596619,-0.99533081,0.122070,0.000000,0.000000
4963706041,0.01170349,0.00596619,-0.99533081,0.122070,0.183105,0.000000
4968795875,0.01235962,0.00645447,-0.99740601,0.122070,0.183105,0.000000
4973889916,0.01235962,0.00645447,-0.99740601,0.061035,0.244141,0.061035
4978975666,0.01220703,0.00704956,-0.99662781,0.061035,0.244141,0.061035
4984050500,0.01220703,0.00704956,-0.99662781,0.183105,-0.366211,-0.061035
4989109875,0.01171875,0.00614929,-0.99810791,0.183105,-0.366211,-0.061035
4994163375,0.01171875,0.00614929,-0.99810791,-0.610352,0.427246,-0.244141
4999029208,0.01208496,0.00592041,-0.99214172,-0.610352,0.427246,-0.244141
5004127625,0.01208496,0.00592041,-0.99214172,0.427246,0.000000,-0.061035
5009204833,0.01072693,0.00547791,-1.00233459,0.427246,0.000000,-0.061035
5014035958,0.01072693,0.00547791,-1.00233459,-0.183105,0.122070,-0.061035
5019113083,0.01245117,0.00381470,-0.99232483,-0.183105,0.122070,-0.061035
5024202416,0.01245117,0.00381470,-0.99232483,-0.061035,0.244141,-0.122070
5029304041,0.01210022,0.00350952,-1.00129700,-0.061035,0.244141,-0.122070
5034380833,0.01210022,0.00350952,-1.00129700,-0.122070,0.122070,-0.122070
5039140833,0.01264954,0.00270081,-0.99278259,-0.122070,0.122070,-0.122070
5044207416,0.01264954,0.00270081,-0.99278259,0.061035,0.183105,-0.183105
5049265708,0.01327515,0.00186157,-0.99879456,0.061035,0.183105,-0.183105
5054328041,0.01327515,0.00186157,-0.99879456,-0.549316,0.488281,-0.183105
5059405791,0.01365662,0.00282288,-0.99330139,-0.549316,0.488281,-0.183105
5064490250,0.01365662,0.00282288,-0.99330139,0.549316,-0.061035,-0.244141
5067083708,0.01274109,0.00328064,-1.00430298,0.549316,-0.061035,-0.244141
5074680500,0.01274109,0.00328064,-1.00430298,-0.305176,0.183105,-0.061035
5077222375,0.01206970,0.00477600,-0.98800659,-0.305176,0.183105,-0.061035
5084819666,0.01206970,0.00477600,-0.98800659,0.061035,0.183105,-0.061035
5087356541,0.01181030,0.00654602,-1.00039673,0.061035,0.183105,-0.061035
5094962458,0.01181030,0.00654602,-1.00039673,0.061035,0.244141,-0.122070
5099636583,0.01063538,0.00685120,-0.99386597,0.061035,0.244141,-0.122070
5104703291,0.01063538,0.00685120,-0.99386597,0.244141,0.244141,-0.061035
5107268958,0.01084900,0.00752258,-0.99777222,0.244141,0.244141,-0.061035
5114807000,0.01084900,0.00752258,-0.99777222,0.061035,0.183105,-0.061035
5117346666,0.01087952,0.00831604,-0.99584961,0.061035,0.183105,-0.061035
5124935000,0.01087952,0.00831604,-0.99584961,0.000000,0.183105,-0.122070
5129553583,0.01071167,0.00796509,-0.99766541,0.000000,0.183105,-0.122070
5134643708,0.01071167,0.00796509,-0.99766541,0.183105,0.244141,-0.122070
5139663541,0.01316833,0.00570679,-0.99540710,0.183105,0.244141,-0.122070
5144736791,0.01316833,0.00570679,-0.99540710,0.000000,0.183105,-0.061035
5147285916,0.01306152,0.00459290,-0.99778748,0.000000,0.183105,-0.061035
5154916166,0.01306152,0.00459290,-0.99778748,0.122070,0.122070,-0.244141
5159984500,0.01312256,0.00242615,-0.99719238,0.122070,0.122070,-0.244141
5165032666,0.01312256,0.00242615,-0.99719238,0.061035,0.000000,-0.061035
5170128291,0.01257324,0.00167847,-0.99656677,0.061035,0.000000,-0.061035
5175242541,0.01257324,0.00167847,-0.99656677,0.122070,0.244141,-0.061035
5180336833,0.01310730,0.00289917,-0.99458313,0.122070,0.244141,-0.061035
5185423708,0.01310730,0.00289917,-0.99458313,0.427246,0.183105,-0.061035
5187968875,0.01139832,0.00315857,-0.99485779,0.427246,0.183105,-0.061035
5195572291,0.01139832,0.00315857,-0.99485779,0.000000,0.061035,-0.183105
5198110291,0.01167297,0.00502014,-1.00016785,0.000000,0.061035,-0.183105
5205724958,0.01167297,0.00502014,-1.00016785,0.671387,0.183105,-0.183105
5208290750,0.01136780,0.00633240,-0.99844360,0.671387,0.183105,-0.183105
5215912250,0.01136780,0.00633240,-0.99844360,-0.366211,0.122070,0.000000
5218475208,0.01113892,0.00613403,-0.99185181,-0.366211,0.122070,0.000000
5226125541,0.01113892,0.00613403,-0.99185181,0.000000,0.244141,-0.061035
5228689333,0.01194763,0.00738525,-1.00584412,0.000000,0.244141,-0.061035
5233770916,0.01194763,0.00738525,-1.00584412,-0.061035,0.000000,-0.061035
5238853250,0.01248169,0.00718689,-0.98881531,-0.061035,0.000000,-0.061035
5243923541,0.01248169,0.00718689,-0.98881531,0.061035,0.122070,-0.061035
5249011291,0.01171875,0.00758362,-1.00207520,0.061035,0.122070,-0.061035
5254097125,0.01171875,0.00758362,-1.00207520,-0.061035,0.244141,-0.061035
5259175291,0.01261902,0.00628662,-0.99243164,-0.061035,0.244141,-0.061035
5264315000,0.01261902,0.00628662,-0.99243164,-0.061035,0.244141,-0.183105
5269395791,0.01344299,0.00511169,-1.00003052,-0.061035,0.244141,-0.183105
5274473916,0.01344299,0.00511169,-1.00003052,0.183105,0.244141,0.000000
5279554208,0.01287842,0.00408936,-0.99563599,0.183105,0.244141,0.000000
5284617166,0.01287842,0.00408936,-0.99563599,-0.976562,0.122070,-0.244141
5289708583,0.01205444,0.00407410,-0.99443054,-0.976562,0.122070,-0.244141
5294787375,0.01205444,0.00407410,-0.99443054,0.061035,0.183105,-0.244141
5299858875,0.01148987,0.00424194,-1.00376892,0.061035,0.183105,-0.244141
5304790291,0.01148987,0.00424194,-1.00376892,-0.061035,-0.061035,-0.061035
5309864583,0.01039124,0.00457764,-0.98796082,-0.061035,-0.061035,-0.061035
5314938208,0.01039124,0.00457764,-0.98796082,0.122070,0.061035,-0.061035
5320012208,0.01173401,0.00491333,-1.00212097,0.122070,0.061035,-0.061035
5325106083,0.01173401,0.00491333,-1.00212097,-0.061035,0.183105,-0.061035
5327703291,0.01135254,0.00518799,-0.99243164,-0.061035,0.183105,-0.061035
5335026916,0.01135254,0.00518799,-0.99243164,0.000000,0.305176,-0.122070
5340139333,0.01165771,0.00576782,-0.99784851,0.000000,0.305176,-0.122070
5345222291,0.01165771,0.00576782,-0.99784851,0.122070,0.122070,-0.122070
5347769875,0.01258850,0.00439453,-0.99504089,0.122070,0.122070,-0.122070
5355358166,0.01258850,0.00439453,-0.99504089,0.122070,0.122070,-0.183105
5357898750,0.01289368,0.00476074,-0.99639893,0.122070,0.122070,-0.183105
5365095833,0.01289368,0.00476074,-0.99639893,0.122070,0.244141,-0.122070
5370182750,0.01196289,0.00593567,-0.99606323,0.122070,0.244141,-0.122070
5375272291,0.01196289,0.00593567,-0.99606323,0.061035,0.061035,-0.122070
5380237791,0.01173401,0.00527954,-0.99566650,0.061035,0.061035,-0.122070
5385318000,0.01173401,0.00527954,-0.99566650,-0.061035,0.183105,-0.122070
5387861416,0.01211548,0.00596619,-0.99647522,-0.061035,0.183105,-0.122070
5395467708,0.01211548,0.00596619,-0.99647522,-0.061035,0.000000,-0.061035
5398001833,0.01213074,0.00572205,-0.99581909,-0.061035,0.000000,-0.061035
5405611791,0.01213074,0.00572205,-0.99581909,0.061035,0.122070,0.061035
5408163166,0.01248169,0.00399780,-0.99783325,0.061035,0.122070,0.061035
5415773541,0.01248169,0.00399780,-0.99783325,0.061035,0.244141,-0.061035
5418311708,0.01290894,0.00413513,-0.99539185,0.061035,0.244141,-0.061035
5425412625,0.01290894,0.00413513,-0.99539185,0.061035,0.183105,-0.122070
5427945750,0.01347351,0.00482178,-0.99565125,0.061035,0.183105,-0.122070
5435537083,0.01347351,0.00482178,-0.99565125,0.122070,0.122070,-0.122070
5438073500,0.01319885,0.00462341,-0.99606323,0.122070,0.122070,-0.122070
5445678833,0.01319885,0.00462341,-0.99606323,0.122070,0.244141,-0.244141
5448241291,0.01208496,0.00462341,-0.99595642,0.122070,0.244141,-0.244141
5455829375,0.01208496,0.00462341,-0.99595642,0.061035,0.122070,-0.061035
5458371083,0.01286316,0.00407410,-0.99713135,0.061035,0.122070,-0.061035
5465952958,0.01286316,0.00407410,-0.99713135,0.122070,0.122070,-0.122070
5468344083,0.01239014,0.00442505,-0.99549866,0.122070,0.122070,-0.122070
5475935458,0.01239014,0.00442505,-0.99549866,0.000000,0.183105,-0.061035
5478478458,0.01168823,0.00469971,-0.99684143,0.000000,0.183105,-0.061035
5486076916,0.01168823,0.00469971,-0.99684143,0.183105,0.183105,-0.061035
5488617916,0.01158142,0.00453186,-0.99703979,0.183105,0.183105,-0.061035
5495788250,0.01158142,0.00453186,-0.99703979,0.000000,0.061035,-0.183105
5498327375,0.01165771,0.00585938,-0.99673462,0.000000,0.061035,-0.183105
5505932083,0.01165771,0.00585938,-0.99673462,0.061035,0.183105,-0.122070
5508475916,0.01258850,0.00517273,-0.99644470,0.061035,0.183105,-0.122070
5516057875,0.01258850,0.00517273,-0.99644470,0.061035,0.122070,-0.122070
5518600291,0.01194763,0.00416565,-0.99664307,0.061035,0.122070,-0.122070
5526200083,0.01194763,0.00416565,-0.99664307,0.122070,0.244141,-0.061035
5528735250,0.01336670,0.00462341,-0.99626160,0.122070,0.244141,-0.061035
5536307500,0.01336670,0.00462341,-0.99626160,0.122070,0.244141,-0.244141
5538842791,0.01289368,0.00512695,-0.99760437,0.122070,0.244141,-0.244141
5546439666,0.01289368,0.00512695,-0.99760437,0.061035,0.122070,-0.061035
5548986291,0.01283264,0.00466919,-0.99487305,0.061035,0.122070,-0.061035
5556223666,0.01283264,0.00466919,-0.99487305,0.305176,0.061035,-0.183105
5558775875,0.01206970,0.00579834,-0.99560547,0.305176,0.061035,-0.183105
5566396916,0.01206970,0.00579834,-0.99560547,-0.183105,0.000000,-0.061035
5568768250,0.01283264,0.00511169,-0.99461365,-0.183105,0.000000,-0.061035
5576380250,0.01283264,0.00511169,-0.99461365,-0.122070,0.000000,-0.122070
5578917333,0.01187134,0.00480652,-1.00350952,-0.122070,0.000000,-0.122070
5586552250,0.01187134,0.00480652,-1.00350952,0.183105,0.305176,-0.061035
5589103958,0.01187134,0.00514221,-0.99455261,0.183105,0.305176,-0.061035
5596701166,0.01187134,0.00514221,-0.99455261,0.122070,0.305176,-0.061035
5599261916,0.01141357,0.00428772,-0.99836731,0.122070,0.305176,-0.061035
5606868416,0.01141357,0.00428772,-0.99836731,0.000000,0.122070,-0.061035
5609423375,0.01162720,0.00361633,-0.99702454,0.000000,0.122070,-0.061035
5617148458,0.01162720,0.00361633,-0.99702454,0.000000,0.183105,0.000000
5619701458,0.01144409,0.00433350,-0.99795532,0.000000,0.183105,0.000000
5624773041,0.01144409,0.00433350,-0.99795532,-0.061035,0.183105,0.000000
5629838750,0.01249695,0.00462341,-0.99627686,-0.061035,0.183105,0.000000
5634910958,0.01249695,0.00462341,-0.99627686,0.122070,0.305176,-0.183105
5639982833,0.01206970,0.00558472,-0.99691772,0.122070,0.305176,-0.183105
5645058041,0.01206970,0.00558472,-0.99691772,0.183105,0.122070,-0.122070
5649626416,0.01190186,0.00642395,-0.99681091,0.183105,0.122070,-0.122070
5654696583,0.01190186,0.00642395,-0.99681091,0.183105,-0.122070,-0.122070
5659756625,0.01242065,0.00762939,-0.99642944,0.183105,-0.122070,-0.122070
5664830041,0.01242065,0.00762939,-0.99642944,-0.061035,0.183105,-0.061035
5669925041,0.01205444,0.00611877,-0.99565125,-0.061035,0.183105,-0.061035
5674992250,0.01205444,0.00611877,-0.99565125,0.061035,0.183105,-0.122070
5679809583,0.01205444,0.00531006,-0.99963379,0.061035,0.183105,-0.122070
5684868583,0.01205444,0.00531006,-0.99963379,0.183105,0.244141,0.000000
5689554125,0.01213074,0.00503540,-0.99395752,0.183105,0.244141,0.000000
5694712791,0.01213074,0.00503540,-0.99395752,0.061035,0.183105,-0.122070
5699771500,0.01217651,0.00384521,-0.99655151,0.061035,0.183105,-0.122070
5704832375,0.01217651,0.00384521,-0.99655151,0.061035,0.305176,0.000000
5709922875,0.01248169,0.00415039,-0.99559021,0.061035,0.305176,0.000000
5714994708,0.01248169,0.00415039,-0.99559021,0.061035,0.244141,-0.061035
5720053958,0.01193237,0.00463867,-0.99731445,0.061035,0.244141,-0.061035
5725112500,0.01193237,0.00463867,-0.99731445,-0.061035,0.122070,-0.061035
5729703416,0.01243591,0.00529480,-0.99655151,-0.061035,0.122070,-0.061035
5734840708,0.01243591,0.00529480,-0.99655151,-0.061035,0.122070,0.000000
5739906666,0.01153564,0.00491333,-0.99649048,-0.061035,0.122070,0.000000
5744991375,0.01153564,0.00491333,-0.99649048,0.122070,0.061035,-0.122070
5750051625,0.01107788,0.00549316,-0.99606323,0.122070,0.061035,-0.122070
5755111541,0.01107788,0.00549316,-0.99606323,-0.061035,0.183105,-0.122070
5760214166,0.01185608,0.00619507,-0.99703979,-0.061035,0.183105,-0.122070
5765293583,0.01185608,0.00619507,-0.99703979,-0.061035,0.244141,-0.061035
5770363625,0.01161194,0.00575256,-0.99693298,-0.061035,0.244141,-0.061035
5775429000,0.01161194,0.00575256,-0.99693298,-0.061035,-0.488281,-0.183105
5780491208,0.01129150,0.00451660,-0.99620056,-0.061035,-0.488281,-0.183105
5785550416,0.01129150,0.00451660,-0.99620056,0.793457,0.976562,-0.122070
5790621791,0.01113892,0.00355530,-0.98233032,0.793457,0.976562,-0.122070
5795679208,0.01113892,0.00355530,-0.98233032,0.366211,0.000000,-0.122070
5800745375,0.01065063,0.00090027,-1.01274109,0.366211,0.000000,-0.122070
5805814750,0.01065063,0.00090027,-1.01274109,-0.427246,0.183105,-0.122070
5810897041,0.01348877,0.00248718,-1.00112915,-0.427246,0.183105,-0.122070
5816012416,0.01348877,0.00248718,-1.00112915,0.122070,0.366211,-0.183105
5821079416,0.01295471,0.00228882,-0.99238586,0.122070,0.366211,-0.183105
5825843125,0.01295471,0.00228882,-0.99238586,-0.244141,0.305176,-0.183105
5830978250,0.01290894,0.00173950,-0.99383545,-0.244141,0.305176,-0.183105
5836060666,0.01290894,0.00173950,-0.99383545,0.061035,0.183105,-0.061035
5841129333,0.01351929,0.00363159,-1.00135803,0.061035,0.183105,-0.061035
5846197666,0.01351929,0.00363159,-1.00135803,-0.122070,0.183105,0.000000
5851274250,0.01234436,0.00692749,-0.99420166,-0.122070,0.183105,0.000000
5856337083,0.01234436,0.00692749,-0.99420166,0.305176,0.244141,-0.061035
5861464333,0.01029968,0.00709534,-0.99858093,0.305176,0.244141,-0.061035
5866522291,0.01029968,0.00709534,-0.99858093,0.244141,0.488281,-0.061035
5869050958,0.00880432,0.00830078,-0.99118042,0.244141,0.488281,-0.061035
5876478291,0.00880432,0.00830078,-0.99118042,0.305176,0.244141,-0.061035
5879014625,0.00895691,0.01232910,-1.00315857,0.305176,0.244141,-0.061035
5886624083,0.00895691,0.01232910,-1.00315857,0.061035,0.061035,0.061035
5889157916,0.01037598,0.01028442,-0.99307251,0.061035,0.061035,0.061035
5896516125,0.01037598,0.01028442,-0.99307251,0.061035,0.061035,0.000000
5899056666,0.01045227,0.00863647,-0.99693298,0.061035,0.061035,0.000000
5906671541,0.01045227,0.00863647,-0.99693298,0.061035,0.183105,0.061035
5909228625,0.01293945,0.00811768,-0.99700928,0.061035,0.183105,0.061035
5916356125,0.01293945,0.00811768,-0.99700928,0.000000,0.183105,0.000000
5921438500,0.01367188,0.00538635,-0.99768066,0.000000,0.183105,0.000000
5926525625,0.01367188,0.00538635,-0.99768066,0.000000,0.244141,-0.122070
5929103666,0.01318359,0.00248718,-0.99768066,0.000000,0.244141,-0.122070
5936707791,0.01318359,0.00248718,-0.99768066,-0.061035,0.183105,-0.122070
5939244583,0.01377869,-0.00057983,-0.99504089,-0.061035,0.183105,-0.122070
5946835250,0.01377869,-0.00057983,-0.99504089,-0.061035,0.183105,-0.061035
5949391250,0.01252747,-0.00135803,-0.99732971,-0.061035,0.183105,-0.061035
5957247666,0.01252747,-0.00135803,-0.99732971,0.000000,0.244141,-0.183105
5959792875,0.01213074,-0.00109863,-0.99778748,0.000000,0.244141,-0.183105
5967386208,0.01213074,-0.00109863,-0.99778748,0.122070,0.000000,-0.183105
5969921875,0.01139832,-0.00120544,-0.99736023,0.122070,0.000000,-0.183105
5977512416,0.01139832,-0.00120544,-0.99736023,0.183105,0.122070,-0.122070
5980058583,0.01069641,0.00096130,-0.99526978,0.183105,0.122070,-0.122070
5987662291,0.01069641,0.00096130,-0.99526978,0.061035,0.183105,-0.122070
5990208625,0.01026917,0.00489807,-0.99746704,0.061035,0.183105,-0.122070
5997799208,0.01026917,0.00489807,-0.99746704,0.122070,0.244141,-0.122070
6000338583,0.00978088,0.00691223,-0.99699402,0.122070,0.244141,-0.122070
6007957916,0.00978088,0.00691223,-0.99699402,0.122070,0.061035,-0.183105
6010497708,0.01040649,0.00799561,-0.99597168,0.122070,0.061035,-0.183105
6018106916,0.01040649,0.00799561,-0.99597168,0.122070,0.183105,0.000000
6020642666,0.01307678,0.01033020,-0.99708557,0.122070,0.183105,0.000000
6028280041,0.01307678,0.01033020,-0.99708557,0.122070,0.183105,-0.061035
6030818583,0.01454163,0.01014709,-0.99755859,0.122070,0.183105,-0.061035
6035916583,0.01454163,0.01014709,-0.99755859,0.000000,-0.366211,-0.122070
6041002333,0.01342773,0.00851440,-0.99720764,0.000000,-0.366211,-0.122070
6046061083,0.01342773,0.00851440,-0.99720764,0.061035,0.183105,-0.122070
6051126583,0.01380920,0.00605774,-0.98912048,0.061035,0.183105,-0.122070
6056195833,0.01380920,0.00605774,-0.98912048,0.000000,-0.061035,-0.305176
6061280083,0.01380920,0.00564575,-1.00613403,0.000000,-0.061035,-0.305176
6066344458,0.01380920,0.00564575,-1.00613403,0.000000,0.244141,0.000000
6071411541,0.01208496,0.00682068,-0.99441528,0.000000,0.244141,0.000000
6076482333,0.01208496,0.00682068,-0.99441528,0.061035,0.244141,0.000000
6081553208,0.00955200,0.00480652,-0.99725342,0.061035,0.244141,0.000000
6086642458,0.00955200,0.00480652,-0.99725342,-0.061035,0.244141,-0.061035
6091710416,0.01023865,0.00251770,-0.99624634,-0.061035,0.244141,-0.061035
6096799166,0.01023865,0.00251770,-0.99624634,0.000000,0.061035,-0.183105
6101880333,0.01028442,0.00332642,-0.99909973,0.000000,0.061035,-0.183105
6106952750,0.01028442,0.00332642,-0.99909973,-0.183105,0.061035,-0.122070
6112015583,0.01277161,0.00418091,-0.99400330,-0.183105,0.061035,-0.122070
6117083875,0.01277161,0.00418091,-0.99400330,0.061035,0.366211,-0.061035
6122156208,0.01287842,0.00442505,-1.00019836,0.061035,0.366211,-0.061035
6127248291,0.01287842,0.00442505,-1.00019836,0.061035,0.305176,-0.061035
6129833125,0.01217651,0.00489807,-0.99433899,0.061035,0.305176,-0.061035
6137436416,0.01217651,0.00489807,-0.99433899,-0.061035,-0.305176,-0.061035
6139985041,0.01159668,0.00534058,-0.99740601,-0.061035,-0.305176,-0.061035
6147587833,0.01159668,0.00534058,-0.99740601,-0.122070,0.305176,-0.122070
6150136500,0.01177979,0.00544739,-0.99507141,-0.122070,0.305176,-0.122070
6157743416,0.01177979,0.00544739,-0.99507141,0.122070,0.244141,-0.061035
6160285916,0.01176453,0.00427246,-0.99975586,0.122070,0.244141,-0.061035
6167888833,0.01176453,0.00427246,-0.99975586,0.244141,0.122070,0.000000
6170428000,0.01196289,0.00354004,-0.99266052,0.244141,0.122070,0.000000
6177792041,0.01196289,0.00354004,-0.99266052,0.061035,0.183105,-0.122070
6180336625,0.01249695,0.00323486,-0.99612427,0.061035,0.183105,-0.122070
6187936000,0.01249695,0.00323486,-0.99612427,0.122070,0.183105,-0.122070
6190474958,0.01226807,0.00297546,-0.99856567,0.122070,0.183105,-0.122070
6198063333,0.01226807,0.00297546,-0.99856567,-0.183105,0.122070,-0.122070
6200603583,0.01197815,0.00523376,-0.99732971,-0.183105,0.122070,-0.122070
6208207166,0.01197815,0.00523376,-0.99732971,0.000000,0.122070,-0.061035
6210769750,0.01264954,0.00663757,-0.99696350,0.000000,0.122070,-0.061035
6218364375,0.01264954,0.00663757,-0.99696350,-0.061035,0.122070,-0.061035
6220906166,0.01182556,0.00648499,-0.99575806,-0.061035,0.122070,-0.061035
6226055583,0.01182556,0.00648499,-0.99575806,0.122070,0.183105,-0.061035
6231149875,0.01124573,0.00608826,-0.99748230,0.122070,0.183105,-0.061035
6236242541,0.01124573,0.00608826,-0.99748230,0.183105,0.244141,-0.122070
6241324125,0.01060486,0.00558472,-0.99652100,0.183105,0.244141,-0.122070
6246392875,0.01060486,0.00558472,-0.99652100,0.000000,0.122070,-0.061035
6251464708,0.01194763,0.00372314,-0.99839783,0.000000,0.122070,-0.061035
6256522416,0.01194763,0.00372314,-0.99839783,0.122070,0.183105,-0.061035
6261580708,0.01251221,0.00256348,-0.99522400,0.122070,0.183105,-0.061035
6266647041,0.01251221,0.00256348,-0.99522400,0.183105,0.122070,-0.183105
6271716083,0.01156616,0.00253296,-0.99765015,0.183105,0.122070,-0.183105
6276786083,0.01156616,0.00253296,-0.99765015,0.061035,0.122070,-0.122070
6281847791,0.01191711,0.00282288,-0.99662781,0.061035,0.122070,-0.122070
6286936166,0.01191711,0.00282288,-0.99662781,0.061035,0.061035,-0.122070
6292001958,0.01098633,0.00347900,-0.99678040,0.061035,0.061035,-0.122070
6297073000,0.01098633,0.00347900,-0.99678040,0.061035,0.366211,-0.061035
6302170708,0.01110840,0.00502014,-0.99778748,0.061035,0.366211,-0.061035
6307240416,0.01110840,0.00502014,-0.99778748,0.061035,0.244141,-0.122070
6312324333,0.01292419,0.00617981,-0.99720764,0.061035,0.244141,-0.122070
6317384458,0.01292419,0.00617981,-0.99720764,0.061035,0.061035,-0.061035
6322450541,0.01391602,0.00762939,-0.99769592,0.061035,0.061035,-0.061035
6327529500,0.01391602,0.00762939,-0.99769592,0.061035,0.183105,-0.061035
6330069875,0.01289368,0.00801086,-0.99705505,0.061035,0.183105,-0.061035
6337682583,0.01289368,0.00801086,-0.99705505,0.000000,0.183105,-0.122070
6340223166,0.01312256,0.00621033,-0.99644470,0.000000,0.183105,-0.122070
6347806416,0.01312256,0.00621033,-0.99644470,0.061035,0.244141,0.061035
6350344625,0.01347351,0.00682068,-0.99581909,0.061035,0.244141,0.061035
6357931041,0.01347351,0.00682068,-0.99581909,0.061035,0.122070,0.000000
6360470375,0.01141357,0.00564575,-0.99589539,0.061035,0.122070,0.000000
6368058583,0.01141357,0.00564575,-0.99589539,0.000000,0.244141,-0.061035
6370597375,0.01165771,0.00457764,-0.99511719,0.000000,0.244141,-0.061035
6378178125,0.01165771,0.00457764,-0.99511719,0.061035,0.183105,-0.122070
6380712625,0.01222229,0.00312805,-0.99588013,0.061035,0.183105,-0.122070
6388308750,0.01222229,0.00312805,-0.99588013,-0.061035,0.122070,-0.122070
6390867708,0.01264954,0.00308228,-0.99691772,-0.061035,0.122070,-0.122070
6398473875,0.01264954,0.00308228,-0.99691772,-0.061035,0.122070,-0.061035
6401017416,0.01171875,0.00315857,-0.99613953,-0.061035,0.122070,-0.061035
6408613666,0.01171875,0.00315857,-0.99613953,0.061035,0.183105,-0.183105
6411153500,0.01274109,0.00242615,-0.99700928,0.061035,0.183105,-0.183105
6418783083,0.01274109,0.00242615,-0.99700928,0.122070,0.244141,-0.183105
6421359416,0.01290894,0.00381470,-0.99574280,0.122070,0.244141,-0.183105
6429000041,0.01290894,0.00381470,-0.99574280,0.122070,0.061035,-0.183105
6431555166,0.01130676,0.00492859,-0.99644470,0.122070,0.061035,-0.183105
6438771083,0.01130676,0.00492859,-0.99644470,0.122070,0.061035,0.000000
6441342166,0.01188660,0.00660706,-0.99510193,0.122070,0.061035,0.000000
6448958875,0.01188660,0.00660706,-0.99510193,-0.061035,0.122070,-0.061035
6451509333,0.01176453,0.00689697,-0.99679565,-0.061035,0.122070,-0.061035
6459094375,0.01176453,0.00689697,-0.99679565,0.000000,0.244141,-0.061035
6461649041,0.01118469,0.00665283,-0.99621582,0.000000,0.244141,-0.061035
6469268458,0.01118469,0.00665283,-0.99621582,0.000000,0.000000,-0.061035
6471805458,0.01251221,0.00541687,-0.99638367,0.000000,0.000000,-0.061035
6476898750,0.01251221,0.00541687,-0.99638367,0.183105,0.122070,-0.183105
6481969583,0.01336670,0.00405884,-0.99594116,0.183105,0.122070,-0.183105
6489199375,0.01336670,0.00405884,-0.99594116,0.061035,0.122070,-0.122070
6491738083,0.01208496,0.00285339,-0.99557495,0.061035,0.122070,-0.122070
6496822791,0.01208496,0.00285339,-0.99557495,0.000000,0.183105,-0.061035
6501891458,0.01208496,0.00256348,-0.99783325,0.000000,0.183105,-0.061035
6506959000,0.01208496,0.00256348,-0.99783325,0.122070,0.244141,-0.122070
6512030958,0.01196289,0.00279236,-0.99757385,0.122070,0.244141,-0.122070
6517092458,0.01196289,0.00279236,-0.99757385,0.183105,0.183105,-0.122070
6522150583,0.01310730,0.00282288,-0.99645996,0.183105,0.183105,-0.122070
6527209833,0.01310730,0.00282288,-0.99645996,0.061035,0.122070,-0.244141
6532274708,0.01313782,0.00378418,-0.99630737,0.061035,0.122070,-0.244141
6537332916,0.01313782,0.00378418,-0.99630737,0.122070,0.427246,0.000000
6542389208,0.01206970,0.00514221,-0.99670410,0.122070,0.427246,0.000000
6547447083,0.01206970,0.00514221,-0.99670410,-0.061035,-0.183105,-0.183105
6552518666,0.01177979,0.00653076,-0.99151611,-0.061035,-0.183105,-0.183105
6557592166,0.01177979,0.00653076,-0.99151611,0.061035,0.366211,0.000000
6562647000,0.01150513,0.00737000,-1.00067139,0.061035,0.366211,0.000000
6567712916,0.01150513,0.00737000,-1.00067139,-0.244141,0.183105,-0.061035
6572380125,0.01188660,0.00628662,-0.99356079,-0.244141,0.183105,-0.061035
6577464916,0.01188660,0.00628662,-0.99356079,0.061035,0.061035,0.061035
6582232458,0.01339722,0.00573730,-1.00537109,0.061035,0.061035,0.061035
6587312000,0.01339722,0.00573730,-1.00537109,0.000000,0.305176,-0.122070
6592402125,0.01300049,0.00636292,-0.99287415,0.000000,0.305176,-0.122070
6597489625,0.01300049,0.00636292,-0.99287415,-0.122070,0.061035,-0.061035
6602580666,0.01148987,0.00645447,-0.99496460,-0.122070,0.061035,-0.061035
6607793833,0.01148987,0.00645447,-0.99496460,0.061035,0.183105,-0.061035
6612978500,0.01119995,0.00668335,-0.99961853,0.061035,0.183105,-0.061035
6617856000,0.01119995,0.00668335,-0.99961853,0.000000,0.122070,0.061035
6622842541,0.01293945,0.00646973,-0.99334717,0.000000,0.122070,0.061035
6627900500,0.01293945,0.00646973,-0.99334717,0.000000,0.122070,-0.061035
6632961083,0.01263428,0.00479126,-0.99745178,0.000000,0.122070,-0.061035
6638012583,0.01263428,0.00479126,-0.99745178,0.122070,0.244141,-0.122070
6643124708,0.01153564,0.00349426,-0.99533081,0.122070,0.244141,-0.122070
6648000666,0.01153564,0.00349426,-0.99533081,0.244141,0.183105,0.000000
6653087750,0.01089478,0.00387573,-0.99784851,0.244141,0.183105,0.000000
6658422541,0.01089478,0.00387573,-0.99784851,0.061035,0.244141,-0.122070
6660998750,0.01239014,0.00341797,-0.99588013,0.061035,0.244141,-0.122070
6668390083,0.01239014,0.00341797,-0.99588013,0.122070,0.183105,0.000000
6670949583,0.01142883,0.00326538,-0.99627686,0.122070,0.183105,0.000000
6678773666,0.01142883,0.00326538,-0.99627686,0.244141,0.244141,-0.122070
6681345791,0.01245117,0.00346375,-0.99751282,0.244141,0.244141,-0.122070
6688493291,0.01245117,0.00346375,-0.99751282,0.183105,0.122070,-0.183105
6691041125,0.01240540,0.00398254,-0.99598694,0.183105,0.122070,-0.183105
6698664708,0.01240540,0.00398254,-0.99598694,0.122070,0.122070,-0.061035
6701213208,0.01141357,0.00366211,-0.99742126,0.122070,0.122070,-0.061035
6709404083,0.01141357,0.00366211,-0.99742126,0.061035,0.305176,-0.122070
6712056083,0.01155090,0.00396729,-0.99545288,0.061035,0.305176,-0.122070
6717193750,0.01155090,0.00396729,-0.99545288,0.122070,0.122070,-0.061035
6721903208,0.01152039,0.00503540,-0.99685669,0.122070,0.122070,-0.061035
6727219541,0.01152039,0.00503540,-0.99685669,0.000000,0.122070,-0.183105
6732410541,0.01141357,0.00520325,-0.99794006,0.000000,0.122070,-0.183105
6742401333,0.01240540,0.00558472,-0.99639893,0.061035,0.183105,-0.122070
6747515083,0.01240540,0.00558472,-0.99639893,0.122070,0.122070,-0.122070
6752390250,0.01167297,0.00665283,-0.99662781,0.122070,0.122070,-0.122070
6757450833,0.01167297,0.00665283,-0.99662781,0.061035,0.244141,-0.122070
6762500291,0.01202393,0.00665283,-0.99639893,0.061035,0.244141,-0.122070
6767564458,0.01202393,0.00665283,-0.99639893,0.061035,0.305176,0.000000
6772686333,0.01217651,0.00639343,-0.99729919,0.061035,0.305176,0.000000
6780118541,0.01217651,0.00639343,-0.99729919,0.061035,0.183105,-0.061035
6782700333,0.01245117,0.00627136,-0.99610901,0.061035,0.183105,-0.061035
6787918500,0.01245117,0.00627136,-0.99610901,0.061035,0.122070,0.061035
6792898875,0.01272583,0.00584412,-0.99615479,0.061035,0.122070,0.061035
6798002625,0.01272583,0.00584412,-0.99615479,0.000000,0.305176,-0.122070
6802786000,0.01245117,0.00566101,-0.99627686,0.000000,0.305176,-0.122070
6807938500,0.01245117,0.00566101,-0.99627686,0.122070,0.122070,-0.061035
6813126416,0.01200867,0.00396729,-0.99588013,0.122070,0.122070,-0.061035
6818714583,0.01200867,0.00396729,-0.99588013,0.122070,0.183105,-0.122070
6821431333,0.01196289,0.00231934,-0.99734497,0.122070,0.183105,-0.122070
6829027208,0.01196289,0.00231934,-0.99734497,0.122070,0.122070,-0.183105
6831747708,0.01193237,0.00199890,-0.99653625,0.122070,0.122070,-0.183105
6839298375,0.01193237,0.00199890,-0.99653625,0.000000,0.183105,-0.244141
6841939666,0.01234436,0.00210571,-0.99760437,0.000000,0.183105,-0.244141
6849373291,0.01234436,0.00210571,-0.99760437,0.000000,0.122070,-0.183105
6852084458,0.01342773,0.00315857,-0.99612427,0.000000,0.122070,-0.183105
6860151041,0.01342773,0.00315857,-0.99612427,-0.061035,0.183105,-0.183105
6862741583,0.01104736,0.00512695,-0.99818420,-0.061035,0.183105,-0.183105
6867813875,0.01104736,0.00512695,-0.99818420,0.122070,0.122070,-0.183105
6872908708,0.01106262,0.00645447,-0.99671936,0.122070,0.122070,-0.183105
6880063041,0.01106262,0.00645447,-0.99671936,0.122070,0.061035,-0.061035
6882616083,0.01293945,0.00744629,-0.99638367,0.122070,0.061035,-0.061035
6887718500,0.01293945,0.00744629,-0.99638367,0.061035,0.183105,0.061035
6892788375,0.01223755,0.00778198,-0.99624634,0.061035,0.183105,0.061035
6900008958,0.01223755,0.00778198,-0.99624634,0.061035,0.183105,-0.183105
6902562208,0.01130676,0.00657654,-0.99691772,0.061035,0.183105,-0.183105
6910221541,0.01130676,0.00657654,-0.99691772,0.122070,0.183105,-0.061035
6912771333,0.01213074,0.00578308,-0.99601746,0.122070,0.183105,-0.061035
6917829458,0.01213074,0.00578308,-0.99601746,0.122070,0.183105,-0.061035
6922918833,0.01194763,0.00538635,-0.99571228,0.122070,0.183105,-0.061035
6927997625,0.01194763,0.00538635,-0.99571228,0.122070,0.244141,-0.061035
6933071666,0.01245117,0.00404358,-0.99586487,0.122070,0.244141,-0.061035
6938152458,0.01245117,0.00404358,-0.99586487,0.000000,0.000000,-0.122070
6943229000,0.01242065,0.00390625,-0.99696350,0.000000,0.000000,-0.122070
6948307250,0.01242065,0.00390625,-0.99696350,-0.183105,0.061035,-0.122070
6953452041,0.01271057,0.00302124,-0.99615479,-0.183105,0.061035,-0.122070
6958525708,0.01271057,0.00302124,-0.99615479,0.000000,0.244141,-0.061035
6963596208,0.01168823,0.00282288,-0.99797058,0.000000,0.244141,-0.061035
6968661166,0.01168823,0.00282288,-0.99797058,-0.061035,0.122070,-0.122070
6973735708,0.01171875,0.00425720,-0.99731445,-0.061035,0.122070,-0.122070
6978111500,0.01171875,0.00425720,-0.99731445,0.122070,0.183105,0.000000
6982997875,0.01133728,0.00531006,-0.99720764,0.122070,0.183105,0.000000
6988069583,0.01133728,0.00531006,-0.99720764,0.000000,0.000000,-0.183105
6993133166,0.01123047,0.00541687,-0.99496460,0.000000,0.000000,-0.183105
6998216250,0.01123047,0.00541687,-0.99496460,0.061035,0.122070,-0.061035
7003274625,0.01191711,0.00588989,-0.99760437,0.061035,0.122070,-0.061035
7008338083,0.01191711,0.00588989,-0.99760437,0.000000,0.244141,-0.122070
7013414291,0.01087952,0.00512695,-0.99647522,0.000000,0.244141,-0.122070
7018481166,0.01087952,0.00512695,-0.99647522,0.122070,0.122070,-0.061035
7023550625,0.01132202,0.00631714,-0.99714661,0.122070,0.122070,-0.061035
7028636291,0.01132202,0.00631714,-0.99714661,0.183105,0.183105,-0.122070
7033554416,0.01170349,0.00544739,-0.99691772,0.183105,0.183105,-0.122070
7038544166,0.01170349,0.00544739,-0.99691772,0.061035,0.244141,-0.183105
7043619958,0.01113892,0.00366211,-0.99732971,0.061035,0.244141,-0.183105
7048685291,0.01113892,0.00366211,-0.99732971,0.000000,0.061035,-0.122070
7053758583,0.01174927,0.00344849,-0.99566650,0.000000,0.061035,-0.122070
7058844541,0.01174927,0.00344849,-0.99566650,0.000000,0.122070,-0.122070
7063909625,0.01144409,0.00381470,-0.99639893,0.000000,0.122070,-0.122070
7069054208,0.01144409,0.00381470,-0.99639893,-0.122070,0.244141,-0.183105
7074155083,0.01329041,0.00497437,-0.99641418,-0.122070,0.244141,-0.183105
7079223791,0.01329041,0.00497437,-0.99641418,0.122070,0.122070,-0.122070
7081796083,0.01292419,0.00424194,-0.99664307,0.122070,0.122070,-0.122070
7089411458,0.01292419,0.00424194,-0.99664307,-0.061035,0.000000,-0.061035
7091969333,0.01147461,0.00427246,-0.99708557,-0.061035,0.000000,-0.061035
7099587958,0.01147461,0.00427246,-0.99708557,0.122070,0.183105,-0.061035
7102126750,0.01286316,0.00495911,-0.99711609,0.122070,0.183105,-0.061035
7109750208,0.01286316,0.00495911,-0.99711609,0.061035,0.061035,-0.061035
7114831625,0.01263428,0.00491333,-0.99601746,0.061035,0.061035,-0.061035
7119903541,0.01263428,0.00491333,-0.99601746,0.122070,0.244141,-0.061035
7122451291,0.01179504,0.00488281,-0.99667358,0.122070,0.244141,-0.061035
7130064583,0.01179504,0.00488281,-0.99667358,-0.061035,0.183105,0.000000
7132600083,0.01145935,0.00456238,-0.99717712,-0.061035,0.183105,0.000000
7140200416,0.01145935,0.00456238,-0.99717712,0.061035,0.122070,-0.122070
7142649333,0.01210022,0.00457764,-0.99737549,0.061035,0.122070,-0.122070
7150318166,0.01210022,0.00457764,-0.99737549,0.000000,0.183105,-0.061035
7152861625,0.01243591,0.00454712,-0.99595642,0.000000,0.183105,-0.061035
7160452791,0.01243591,0.00454712,-0.99595642,0.122070,0.244141,-0.122070
7162996083,0.01242065,0.00521851,-0.99639893,0.122070,0.244141,-0.122070
7170616000,0.01242065,0.00521851,-0.99639893,0.122070,0.183105,-0.122070
7173156416,0.01293945,0.00503540,-0.99574280,0.122070,0.183105,-0.122070
7178249291,0.01293945,0.00503540,-0.99574280,0.122070,0.244141,-0.122070
7183309791,0.01071167,0.00509644,-0.99700928,0.122070,0.244141,-0.122070
7188388250,0.01071167,0.00509644,-0.99700928,0.061035,0.122070,-0.122070
7193453958,0.01068115,0.00579834,-0.99581909,0.061035,0.122070,-0.122070
7198523666,0.01068115,0.00579834,-0.99581909,0.061035,0.061035,-0.061035
7203620833,0.01162720,0.00608826,-0.99632263,0.061035,0.061035,-0.061035
7211250083,0.01162720,0.00608826,-0.99632263,0.122070,0.183105,-0.183105
7213790208,0.01142883,0.00498962,-0.99610901,0.122070,0.183105,-0.183105
7218787916,0.01142883,0.00498962,-0.99610901,0.183105,0.244141,-0.061035
7223853333,0.01155090,0.00524902,-0.99749756,0.183105,0.244141,-0.061035
7228929625,0.01155090,0.00524902,-0.99749756,0.061035,0.244141,0.000000
7234001208,0.01188660,0.00474548,-0.99673462,0.061035,0.244141,0.000000
7239066875,0.01188660,0.00474548,-0.99673462,0.122070,0.305176,-0.061035
7244127041,0.01281738,0.00361633,-0.99594116,0.122070,0.305176,-0.061035
7249206958,0.01281738,0.00361633,-0.99594116,0.061035,0.244141,-0.061035
7254287375,0.01296997,0.00392151,-0.99577332,0.061035,0.244141,-0.061035
7259382000,0.01296997,0.00392151,-0.99577332,0.061035,0.122070,-0.244141
7264452250,0.01199341,0.00384521,-0.99649048,0.061035,0.122070,-0.244141
7269534083,0.01199341,0.00384521,-0.99649048,0.061035,0.061035,-0.183105
7274562833,0.01211548,0.00341797,-0.99543762,0.061035,0.061035,-0.183105
7279637458,0.01211548,0.00341797,-0.99543762,0.183105,0.244141,-0.122070
7284743125,0.01261902,0.00408936,-0.99560547,0.183105,0.244141,-0.122070
7289551125,0.01261902,0.00408936,-0.99560547,0.122070,0.183105,-0.061035
7294641583,0.01324463,0.00514221,-0.99732971,0.122070,0.183105,-0.061035
7299726291,0.01324463,0.00514221,-0.99732971,0.061035,0.183105,-0.122070
7302264791,0.01284790,0.00466919,-0.99674988,0.061035,0.183105,-0.122070
7309858125,0.01284790,0.00466919,-0.99674988,0.000000,0.244141,-0.061035
7314933041,0.01138306,0.00613403,-0.99652100,0.000000,0.244141,-0.061035
7319770416,0.01138306,0.00613403,-0.99652100,-0.061035,0.305176,-0.122070
7324847833,0.01187134,0.00624084,-0.99746704,-0.061035,0.305176,-0.122070
7329693791,0.01187134,0.00624084,-0.99746704,0.061035,0.183105,-0.122070
7334778250,0.01109314,0.00546265,-0.99655151,0.061035,0.183105,-0.122070
7339856083,0.01109314,0.00546265,-0.99655151,0.122070,0.183105,-0.061035
7344922541,0.01190186,0.00604248,-0.99597168,0.122070,0.183105,-0.061035
7349603708,0.01190186,0.00604248,-0.99597168,0.122070,0.122070,-0.061035
7354671916,0.01222229,0.00476074,-0.99719238,0.122070,0.122070,-0.061035
7359742416,0.01222229,0.00476074,-0.99719238,0.061035,0.183105,0.061035
7364822708,0.01202393,0.00489807,-0.99769592,0.061035,0.183105,0.061035
7369900833,0.01202393,0.00489807,-0.99769592,0.000000,0.183105,-0.122070
7374969583,0.01206970,0.00364685,-0.99668884,0.000000,0.183105,-0.122070
7380037041,0.01206970,0.00364685,-0.99668884,0.183105,0.305176,-0.061035
7385114000,0.01179504,0.00343323,-0.99664307,0.183105,0.305176,-0.061035
7389901166,0.01179504,0.00343323,-0.99664307,-0.061035,0.305176,-0.061035
7394978666,0.01225281,0.00279236,-0.99784851,-0.061035,0.305176,-0.061035
7400055250,0.01225281,0.00279236,-0.99784851,0.000000,0.244141,-0.122070
7405129333,0.01248169,0.00416565,-0.99606323,0.000000,0.244141,-0.122070
7410206916,0.01248169,0.00416565,-0.99606323,0.122070,0.061035,-0.061035
7415022833,0.01176453,0.00485229,-0.99763489,0.122070,0.061035,-0.061035
7420089333,0.01176453,0.00485229,-0.99763489,0.000000,0.122070,-0.061035
7425151333,0.01106262,0.00592041,-0.99696350,0.000000,0.122070,-0.061035
7430233666,0.01106262,0.00592041,-0.99696350,0.122070,0.122070,-0.061035
7432797958,0.01058960,0.00596619,-0.99568176,0.122070,0.122070,-0.061035
7440426083,0.01058960,0.00596619,-0.99568176,0.122070,0.061035,-0.061035
7442968666,0.01074219,0.00646973,-0.99679565,0.122070,0.061035,-0.061035
7450593916,0.01074219,0.00646973,-0.99679565,0.061035,0.183105,-0.122070
7453133250,0.01229858,0.00596619,-0.99632263,0.061035,0.183105,-0.122070
7460738291,0.01229858,0.00596619,-0.99632263,0.244141,0.183105,-0.183105
7463281500,0.01345825,0.00546265,-0.99645996,0.244141,0.183105,-0.183105
7470876791,0.01345825,0.00546265,-0.99645996,-0.061035,0.000000,-0.122070
7473421041,0.01206970,0.00567627,-0.99752808,-0.061035,0.000000,-0.122070
7481078166,0.01206970,0.00567627,-0.99752808,0.061035,0.244141,-0.122070
7483617916,0.01171875,0.00395203,-0.99668884,0.061035,0.244141,-0.122070
7491051583,0.01171875,0.00395203,-0.99668884,0.000000,0.061035,-0.122070
7493596666,0.01271057,0.00376892,-0.99577332,0.000000,0.061035,-0.122070
7501187458,0.01271057,0.00376892,-0.99577332,0.122070,0.244141,-0.061035
7503725000,0.01260376,0.00347900,-0.99571228,0.122070,0.244141,-0.061035
7511336375,0.01260376,0.00347900,-0.99571228,0.000000,0.122070,-0.183105
7513885500,0.01239014,0.00315857,-0.99658203,0.000000,0.122070,-0.183105
7519013833,0.01239014,0.00315857,-0.99658203,0.061035,0.244141,-0.061035
7524098916,0.01116943,0.00404358,-0.99723816,0.061035,0.244141,-0.061035
7529176500,0.01116943,0.00404358,-0.99723816,0.061035,0.183105,-0.122070
7534268625,0.01126099,0.00582886,-0.99665833,0.061035,0.183105,-0.122070
7539336541,0.01126099,0.00582886,-0.99665833,0.122070,0.122070,-0.061035
7544411833,0.01240540,0.00549316,-0.99671936,0.122070,0.122070,-0.061035
7549484750,0.01240540,0.00549316,-0.99671936,0.000000,0.061035,0.000000
7554550791,0.01226807,0.00633240,-0.99783325,0.000000,0.061035,0.000000
7559616750,0.01226807,0.00633240,-0.99783325,0.000000,0.183105,0.061035
7564681708,0.01156616,0.00735474,-0.99636841,0.000000,0.183105,0.061035
7569763458,0.01156616,0.00735474,-0.99636841,0.061035,0.305176,0.000000
7574849791,0.01152039,0.00709534,-0.99653625,0.061035,0.305176,0.000000
7579987500,0.01152039,0.00709534,-0.99653625,0.000000,0.122070,0.000000
7585055458,0.01181030,0.00621033,-0.99597168,0.000000,0.122070,0.000000
7590135666,0.01181030,0.00621033,-0.99597168,0.061035,0.244141,-0.061035
7595208750,0.01268005,0.00596619,-0.99565125,0.061035,0.244141,-0.061035
7600274958,0.01268005,0.00596619,-0.99565125,0.183105,0.244141,-0.061035
7605389166,0.01255798,0.00428772,-0.99653625,0.183105,0.244141,-0.061035
7610464083,0.01255798,0.00428772,-0.99653625,0.000000,0.305176,0.061035
7612999458,0.01231384,0.00430298,-0.99757385,0.000000,0.305176,0.061035
7620438208,0.01231384,0.00430298,-0.99757385,0.061035,0.183105,-0.122070
7625533875,0.01211548,0.00393677,-0.99734497,0.061035,0.183105,-0.122070
7630608958,0.01211548,0.00393677,-0.99734497,0.000000,0.000000,-0.122070
7633162416,0.01167297,0.00357056,-0.99641418,0.000000,0.000000,-0.122070
7640780375,0.01167297,0.00357056,-0.99641418,0.183105,0.183105,-0.122070
7643331791,0.01341248,0.00456238,-0.99650574,0.183105,0.183105,-0.122070
7650944166,0.01341248,0.00456238,-0.99650574,0.000000,0.000000,0.000000
7653484291,0.01261902,0.00427246,-0.99678040,0.000000,0.000000,0.000000
7661090041,0.01261902,0.00427246,-0.99678040,0.183105,0.061035,-0.061035
7663629291,0.01245117,0.00410461,-0.99647522,0.183105,0.061035,-0.061035
7671222375,0.01245117,0.00410461,-0.99647522,0.061035,0.122070,-0.122070
7673772041,0.01193237,0.00416565,-0.99688721,0.061035,0.122070,-0.122070
7681380958,0.01193237,0.00416565,-0.99688721,-0.061035,0.183105,0.000000
7683921375,0.01158142,0.00502014,-0.99635315,-0.061035,0.183105,0.000000
7691115791,0.01158142,0.00502014,-0.99635315,0.122070,0.244141,-0.061035
7693653291,0.01246643,0.00482178,-0.99740601,0.122070,0.244141,-0.061035
7701270750,0.01246643,0.00482178,-0.99740601,0.000000,0.061035,-0.122070
7703814375,0.01202393,0.00428772,-0.99722290,0.000000,0.061035,-0.122070
7711419583,0.01202393,0.00428772,-0.99722290,0.000000,0.122070,-0.061035
7713965291,0.01147461,0.00450134,-0.99851990,0.000000,0.122070,-0.061035
7721147541,0.01147461,0.00450134,-0.99851990,0.122070,0.122070,0.000000
7723774541,0.01145935,0.00477600,-0.99583435,0.122070,0.122070,0.000000
7731387833,0.01145935,0.00477600,-0.99583435,0.061035,0.244141,0.000000
7733920166,0.01219177,0.00622559,-0.99595642,0.061035,0.244141,0.000000
7741056875,0.01219177,0.00622559,-0.99595642,0.000000,0.244141,-0.122070
7743586916,0.01126099,0.00582886,-0.99600220,0.000000,0.244141,-0.122070
7751174291,0.01126099,0.00582886,-0.99600220,0.061035,0.244141,-0.122070
7756243291,0.01162720,0.00592041,-0.99678040,0.061035,0.244141,-0.122070
7761334500,0.01162720,0.00592041,-0.99678040,0.061035,0.183105,-0.061035
7763880708,0.01089478,0.00588989,-0.99592590,0.061035,0.183105,-0.061035
7771476625,0.01089478,0.00588989,-0.99592590,0.000000,0.244141,-0.122070
7774023625,0.01139832,0.00605774,-0.99621582,0.000000,0.244141,-0.122070
7781646208,0.01139832,0.00605774,-0.99621582,0.000000,0.061035,-0.061035
7784187000,0.01266479,0.00556946,-0.99629211,0.000000,0.061035,-0.061035
7791797250,0.01266479,0.00556946,-0.99629211,0.000000,0.305176,-0.061035
7794349291,0.01281738,0.00559998,-0.99620056,0.000000,0.305176,-0.061035
7801556958,0.01281738,0.00559998,-0.99620056,0.122070,0.183105,-0.061035
7804054708,0.01275635,0.00498962,-0.99734497,0.122070,0.183105,-0.061035
7811657625,0.01275635,0.00498962,-0.99734497,0.061035,0.244141,-0.061035
7814200208,0.01158142,0.00402832,-0.99700928,0.061035,0.244141,-0.061035
7821827000,0.01158142,0.00402832,-0.99700928,0.061035,0.122070,-0.122070
7824366500,0.01190186,0.00340271,-0.99777222,0.061035,0.122070,-0.122070
7831964416,0.01190186,0.00340271,-0.99777222,0.122070,0.244141,-0.061035
7834516833,0.01260376,0.00421143,-0.99743652,0.122070,0.244141,-0.061035
7842105625,0.01260376,0.00421143,-0.99743652,0.000000,0.183105,-0.122070
7844644541,0.01081848,0.00459290,-0.99665833,0.000000,0.183105,-0.122070
7852143708,0.01081848,0.00459290,-0.99665833,0.061035,0.061035,-0.122070
7854708041,0.01145935,0.00488281,-0.99768066,0.061035,0.061035,-0.122070
7859845750,0.01145935,0.00488281,-0.99768066,0.061035,0.122070,-0.061035
7864929166,0.01257324,0.00466919,-0.99682617,0.061035,0.122070,-0.061035
7869998083,0.01257324,0.00466919,-0.99682617,0.000000,0.122070,0.061035
7875062583,0.01318359,0.00492859,-0.99722290,0.000000,0.122070,0.061035
7880132791,0.01318359,0.00492859,-0.99722290,0.122070,0.183105,-0.061035
7885222916,0.01251221,0.00555420,-0.99604797,0.122070,0.183105,-0.061035
7890309750,0.01251221,0.00555420,-0.99604797,0.122070,0.183105,-0.061035
7895391416,0.01312256,0.00498962,-0.99729919,0.122070,0.183105,-0.061035
7900452333,0.01312256,0.00498962,-0.99729919,0.000000,0.122070,-0.061035
7905513958,0.01345825,0.00505066,-0.99574280,0.000000,0.122070,-0.061035
7910592625,0.01345825,0.00505066,-0.99574280,0.061035,0.183105,-0.122070
7915686875,0.01188660,0.00329590,-0.99667358,0.061035,0.183105,-0.122070
7920754458,0.01188660,0.00329590,-0.99667358,0.122070,0.305176,0.000000
7925846083,0.01129150,0.00267029,-0.99594116,0.122070,0.305176,0.000000
7930911125,0.01129150,0.00267029,-0.99594116,0.000000,0.061035,-0.183105
7935972500,0.01210022,0.00308228,-0.99545288,0.000000,0.061035,-0.183105
7941037708,0.01210022,0.00308228,-0.99545288,0.000000,0.183105,-0.244141
7946107208,0.01171875,0.00314331,-0.99615479,0.000000,0.183105,-0.244141
7950903833,0.01171875,0.00314331,-0.99615479,0.061035,0.183105,-0.183105
7955980541,0.01246643,0.00361633,-0.99580383,0.061035,0.183105,-0.183105
7961078666,0.01246643,0.00361633,-0.99580383,0.244141,0.122070,-0.183105
7966172750,0.01264954,0.00418091,-0.99534607,0.244141,0.122070,-0.183105
7971346125,0.01264954,0.00418091,-0.99534607,0.122070,0.122070,-0.061035
7973896791,0.01167297,0.00555420,-0.99691772,0.122070,0.122070,-0.061035
7981502541,0.01167297,0.00555420,-0.99691772,0.122070,0.183105,-0.122070
7984041833,0.01058960,0.00547791,-0.99699402,0.122070,0.183105,-0.122070
7991639958,0.01058960,0.00547791,-0.99699402,0.061035,0.122070,-0.061035
7994176666,0.01222229,0.00613403,-0.99617004,0.061035,0.122070,-0.061035
8001759041,0.01222229,0.00613403,-0.99617004,0.061035,0.244141,-0.061035
8004307583,0.01237488,0.00614929,-0.99754333,0.061035,0.244141,-0.061035
8011920875,0.01237488,0.00614929,-0.99754333,0.122070,0.244141,-0.061035
8014461958,0.01179504,0.00566101,-0.99714661,0.122070,0.244141,-0.061035
8022055583,0.01179504,0.00566101,-0.99714661,0.122070,0.366211,-0.122070
8024600791,0.01089478,0.00631714,-0.99589539,0.122070,0.366211,-0.122070
8032216125,0.01089478,0.00631714,-0.99589539,0.000000,0.122070,-0.061035
8034758958,0.01022339,0.00630188,-0.99594116,0.000000,0.122070,-0.061035
8042362291,0.01022339,0.00630188,-0.99594116,0.061035,0.122070,-0.061035
8044908291,0.01049805,0.00564575,-0.99563599,0.061035,0.122070,-0.061035
8052494791,0.01049805,0.00564575,-0.99563599,-0.061035,0.061035,-0.061035
8055043500,0.01094055,0.00483704,-0.99668884,-0.061035,0.061035,-0.061035
8062674375,0.01094055,0.00483704,-0.99668884,0.061035,0.122070,-0.061035
8065227916,0.01274109,0.00425720,-0.99543762,0.061035,0.122070,-0.061035
8072840958,0.01274109,0.00425720,-0.99543762,0.061035,0.122070,-0.061035
8075387500,0.01168823,0.00392151,-0.99703979,0.061035,0.122070,-0.061035
8083004416,0.01168823,0.00392151,-0.99703979,0.000000,0.122070,-0.061035
8085540291,0.01248169,0.00413513,-0.99620056,0.000000,0.122070,-0.061035
8093163041,0.01248169,0.00413513,-0.99620056,0.183105,0.244141,-0.122070
8095719666,0.01269531,0.00439453,-0.99612427,0.183105,0.244141,-0.122070
8100790333,0.01269531,0.00439453,-0.99612427,-0.061035,0.183105,-0.183105
8105872500,0.01240540,0.00386047,-0.99536133,-0.061035,0.183105,-0.183105
8110893750,0.01240540,0.00386047,-0.99536133,0.061035,0.244141,-0.244141
8115973208,0.01231384,0.00370789,-0.99607849,0.061035,0.244141,-0.244141
8121051125,0.01231384,0.00370789,-0.99607849,0.000000,0.183105,-0.061035
8126126416,0.01124573,0.00425720,-0.99668884,0.000000,0.183105,-0.061035
8131223625,0.01124573,0.00425720,-0.99668884,0.122070,0.305176,-0.061035
8136282750,0.01101685,0.00502014,-0.99636841,0.122070,0.305176,-0.061035
8141356041,0.01101685,0.00502014,-0.99636841,-0.061035,0.183105,-0.061035
8146425208,0.01060486,0.00537109,-0.99853516,-0.061035,0.183105,-0.061035
8151487208,0.01060486,0.00537109,-0.99853516,0.183105,0.183105,0.000000
8156370708,0.01310730,0.00585938,-0.99678040,0.183105,0.183105,0.000000
8161388166,0.01310730,0.00585938,-0.99678040,0.061035,0.122070,-0.122070
8166464083,0.01193237,0.00515747,-0.99635315,0.061035,0.122070,-0.122070
8171537458,0.01193237,0.00515747,-0.99635315,0.122070,0.061035,-0.122070
8176630750,0.01185608,0.00503540,-0.99575806,0.122070,0.061035,-0.122070
8181703625,0.01185608,0.00503540,-0.99575806,0.061035,0.183105,-0.122070
8186791125,0.01246643,0.00543213,-0.99742126,0.061035,0.183105,-0.122070
8191871416,0.01246643,0.00543213,-0.99742126,0.000000,0.122070,-0.061035
8196938291,0.01254272,0.00555420,-0.99623108,0.000000,0.122070,-0.061035
8201999583,0.01254272,0.00555420,-0.99623108,0.122070,0.183105,-0.061035
8207061250,0.01266479,0.00537109,-0.99644470,0.122070,0.183105,-0.061035
8212144916,0.01266479,0.00537109,-0.99644470,0.061035,0.305176,-0.122070
8214703458,0.01153564,0.00448608,-0.99652100,0.061035,0.305176,-0.122070
8222319916,0.01153564,0.00448608,-0.99652100,0.000000,0.183105,-0.122070
8224858750,0.01202393,0.00486755,-0.99566650,0.000000,0.183105,-0.122070
