timestamp_ns,accel_x,accel_y,accel_z,gyro_x,gyro_y,gyro_z
137567500,0.00418091,0.00878906,-0.99238586,0.061035,0.244141,-0.061035
137572083,0.00454712,0.00927734,-0.99288940,0.061035,0.061035,-0.122070
140130791,0.00517273,0.00851440,-0.99180603,0.183105,0.122070,-0.061035
147838791,0.00434875,0.00851440,-0.99298096,0.183105,0.122070,-0.061035
152256208,0.00434875,0.00851440,-0.99298096,0.183105,0.244141,-0.122070
156839416,0.00434875,0.00851440,-0.99298096,0.122070,0.183105,0.000000
160676750,0.00468445,0.00859070,-0.99118042,0.122070,0.183105,0.000000
178082291,0.00529480,0.00859070,-0.99372864,0.000000,0.122070,-0.061035
180975208,0.00584412,0.00836182,-0.99261475,0.000000,0.183105,0.000000
189837875,0.00642395,0.00802612,-0.99392700,0.061035,0.183105,-0.122070
198800916,0.00611877,0.00848389,-0.99290466,0.183105,0.244141,-0.061035
210646208,0.00468445,0.00857544,-0.99397278,0.183105,0.244141,-0.061035
214432916,0.00468445,0.00857544,-0.99397278,0.061035,0.183105,-0.122070
217448250,0.00453186,0.00822449,-0.99269104,0.122070,0.244141,-0.122070
226126708,0.00556946,0.00758362,-0.99285889,0.122070,0.244141,-0.122070
228643916,0.00556946,0.00758362,-0.99285889,0.122070,0.183105,-0.122070
236210750,0.00508118,0.00819397,-0.99359131,0.122070,0.183105,-0.122070
238756375,0.00508118,0.00819397,-0.99359131,0.244141,0.122070,-0.122070
246316958,0.00549316,0.00769043,-0.99211121,0.244141,0.122070,-0.122070
248836541,0.00549316,0.00769043,-0.99211121,0.305176,0.183105,-0.122070
256365000,0.00592041,0.00726318,-0.99287415,0.305176,0.183105,-0.122070
258917291,0.00592041,0.00726318,-0.99287415,0.488281,0.244141,-0.061035
266479250,0.00701904,0.00680542,-0.99145508,0.488281,0.244141,-0.061035
269018083,0.00701904,0.00680542,-0.99145508,0.366211,0.244141,-0.183105
276619250,0.00685120,0.00607300,-0.99154663,0.366211,0.244141,-0.183105
279173791,0.00685120,0.00607300,-0.99154663,0.366211,0.183105,-0.244141
286763666,0.00579834,0.00564575,-0.99311829,0.366211,0.183105,-0.244141
289297125,0.00579834,0.00564575,-0.99311829,0.305176,0.305176,-0.122070
296865833,0.00424194,0.00827026,-0.99249268,0.244141,0.183105,-0.183105
306932541,0.00338745,0.01022339,-0.99682617,0.122070,0.061035,-0.061035
316976333,0.00181580,0.01173401,-0.99458313,0.183105,0.183105,-0.183105
327029250,0.00062561,0.01229858,-0.99224854,0.183105,0.122070,-0.122070
337076083,0.00186157,0.01202393,-0.99127197,0.244141,0.244141,-0.061035
347122083,0.00303650,0.01133728,-0.99481201,0.000000,0.183105,-0.061035
357188500,0.00350952,0.01129150,-0.99304199,0.061035,0.183105,0.061035
367281458,0.00468445,0.00933838,-0.99298096,0.000000,0.366211,0.000000
377371916,0.00564575,0.00634766,-0.99401855,0.122070,0.183105,0.000000
387445541,0.00633240,0.00502014,-0.99220276,0.061035,0.122070,-0.122070
397540666,0.00776672,0.00459290,-0.99301147,0.183105,0.366211,0.000000
407614041,0.00813293,0.00456238,-0.99414062,0.183105,0.183105,0.000000
417696500,0.00828552,0.00520325,-0.99378967,0.244141,0.122070,-0.061035
427767375,0.00837708,0.00587463,-0.99290466,0.122070,0.244141,-0.122070
437832625,0.00531006,0.00617981,-0.99465942,0.122070,0.183105,-0.183105
447928125,0.00311279,0.00674438,-0.99411011,0.000000,0.244141,-0.305176
458023291,0.00413513,0.00683594,-0.99456787,0.061035,0.183105,-0.183105
468237625,0.00363159,0.00711060,-0.99435425,0.000000,0.183105,-0.122070
478448583,0.00456238,0.00846863,-0.99464417,0.122070,0.183105,-0.061035
486057416,0.00492859,0.00912476,-0.99438477,0.122070,0.183105,-0.061035
488601000,0.00492859,0.00912476,-0.99438477,0.000000,0.244141,-0.061035
496188875,0.00466919,0.00897217,-0.99368286,0.000000,0.244141,-0.061035
498722875,0.00466919,0.00897217,-0.99368286,0.061035,0.183105,0.000000
508367083,0.00503540,0.00910950,-0.99386597,0.183105,0.122070,-0.061035
517969125,0.00424194,0.00837708,-0.99288940,0.244141,0.122070,-0.061035
527880625,0.00259399,0.00881958,-0.99296570,0.061035,0.305176,-0.061035
537656125,0.00390625,0.00820923,-0.99380493,0.183105,0.122070,-0.122070
547812500,0.00440979,0.00912476,-0.99293518,0.244141,0.122070,0.000000
557988666,0.00321960,0.00895691,-0.99421692,0.183105,0.183105,-0.061035
568093250,0.00382996,0.00825500,-0.99217224,0.183105,0.305176,-0.061035
578199708,0.00512695,0.00764465,-0.99497986,0.000000,0.122070,0.000000
587957375,0.00523376,0.00755310,-0.99293518,-0.061035,0.122070,0.000000
597847500,0.00595093,0.00762939,-0.99382019,-0.061035,0.122070,0.000000
600404000,0.00595093,0.00762939,-0.99382019,-0.061035,0.244141,0.000000
607992458,0.00689697,0.00653076,-0.99305725,-0.061035,0.244141,-0.183105
617930291,0.00572205,0.00671387,-0.99313354,0.000000,0.183105,-0.061035
628070291,0.00575256,0.00785828,-0.99406433,0.000000,0.122070,-0.061035
638138416,0.00576782,0.00888062,-0.99224854,0.122070,0.183105,0.061035
648296875,0.00521851,0.00897217,-0.99366760,0.122070,0.183105,0.000000
658054250,0.00450134,0.00872803,-0.99298096,0.000000,0.122070,0.000000
668199750,0.00427246,0.00831604,-0.99449158,0.061035,0.183105,-0.061035
678250000,0.00360107,0.00825500,-0.99424744,0.122070,0.183105,-0.061035
688097375,0.00413513,0.00769043,-0.99308777,0.122070,0.183105,-0.122070
698202750,0.00466919,0.00709534,-0.99417114,0.000000,0.244141,-0.122070
708274750,0.00601196,0.00698853,-0.99372864,0.183105,0.122070,-0.061035
717978333,0.00633240,0.00668335,-0.99401855,0.122070,0.183105,-0.122070
727788500,0.00588989,0.00582886,-0.99282837,0.122070,0.183105,-0.122070
730323208,0.00588989,0.00582886,-0.99282837,0.061035,0.183105,0.000000
737902250,0.00590515,0.00634766,-0.99433899,0.061035,0.183105,0.000000
748014000,0.00503540,0.00669861,-0.99209595,0.122070,0.366211,0.000000
757874875,0.00491333,0.00729370,-0.99311829,0.000000,0.244141,-0.244141
767647375,0.00489807,0.00842285,-0.99235535,0.000000,0.244141,-0.244141
770193333,0.00489807,0.00842285,-0.99235535,0.244141,0.244141,-0.061035
777810208,0.00511169,0.00842285,-0.99392700,0.244141,0.244141,-0.061035
780062666,0.00511169,0.00842285,-0.99392700,-0.061035,0.122070,0.061035
787691583,0.00503540,0.00978088,-0.99291992,-0.061035,0.122070,0.061035
790291708,0.00503540,0.00978088,-0.99291992,0.000000,0.122070,-0.122070
797957125,0.00457764,0.00975037,-0.99270630,0.122070,0.244141,0.000000
808120791,0.00360107,0.00866699,-0.99386597,-0.061035,0.183105,-0.061035
818282750,0.00384521,0.00790405,-0.99250793,0.122070,0.305176,0.061035
828414750,0.00567627,0.00804138,-0.99548340,0.061035,0.305176,-0.122070
838197375,0.00686646,0.00700378,-0.99403381,0.000000,0.183105,-0.122070
848337208,0.00593567,0.00675964,-0.99339294,-0.061035,0.244141,-0.122070
858401750,0.00602722,0.00523376,-0.99397278,0.061035,0.244141,-0.122070
868553750,0.00544739,0.00598145,-0.99266052,0.000000,0.183105,-0.183105
878651208,0.00523376,0.00715637,-0.99415588,0.122070,0.305176,-0.122070
888480166,0.00547791,0.00720215,-0.99290466,0.183105,0.366211,0.000000
897864583,0.00460815,0.00718689,-0.99372864,0.183105,0.366211,0.000000
900027666,0.00460815,0.00718689,-0.99372864,0.183105,0.122070,-0.183105
907547416,0.00521851,0.00769043,-0.99440002,0.183105,0.122070,-0.183105
910090250,0.00521851,0.00769043,-0.99440002,0.122070,0.244141,-0.061035
917711208,0.00468445,0.00845337,-0.99488831,0.122070,0.244141,-0.061035
920267583,0.00468445,0.00845337,-0.99488831,0.122070,0.183105,-0.122070
927876708,0.00375366,0.01007080,-0.99496460,0.122070,0.183105,-0.122070
929945625,0.00375366,0.01007080,-0.99496460,-0.061035,0.122070,-0.183105
937557875,0.00477600,0.00897217,-0.99453735,-0.061035,0.122070,-0.183105
940102875,0.00477600,0.00897217,-0.99453735,0.061035,0.244141,-0.061035
947707708,0.00466919,0.00869751,-0.99374390,0.061035,0.244141,-0.061035
950263166,0.00466919,0.00869751,-0.99374390,0.122070,0.244141,-0.183105
957893375,0.00479126,0.00923157,-0.99223328,0.122070,0.244141,-0.183105
960439250,0.00479126,0.00923157,-0.99223328,-0.061035,0.061035,-0.183105
967401458,0.00529480,0.00802612,-0.99375916,-0.061035,0.061035,-0.183105
969942458,0.00529480,0.00802612,-0.99375916,0.000000,0.122070,-0.061035
977203875,0.00540161,0.00703430,-0.99320984,0.000000,0.122070,-0.061035
979765916,0.00540161,0.00703430,-0.99320984,0.000000,0.122070,0.000000
987461166,0.00466919,0.00697327,-0.99308777,0.000000,0.122070,0.000000
990033791,0.00466919,0.00697327,-0.99308777,0.000000,0.183105,-0.122070
997639208,0.00477600,0.00836182,-0.99349976,0.000000,0.183105,-0.122070
1000198333,0.00477600,0.00836182,-0.99349976,-0.061035,0.244141,-0.122070
1007470625,0.00462341,0.00791931,-0.99252319,-0.061035,0.244141,-0.122070
1010017041,0.00462341,0.00791931,-0.99252319,0.122070,0.183105,0.000000
1017617333,0.00578308,0.00762939,-0.99391174,0.122070,0.183105,0.000000
1019737666,0.00578308,0.00762939,-0.99391174,0.000000,0.305176,-0.061035
1027305708,0.00476074,0.00689697,-0.99427795,0.000000,0.305176,-0.061035
1029837833,0.00476074,0.00689697,-0.99427795,0.061035,0.305176,-0.061035
1037382125,0.00579834,0.00749207,-0.99569702,0.061035,0.305176,-0.061035
1039929833,0.00579834,0.00749207,-0.99569702,0.122070,0.244141,0.000000
1047520375,0.00498962,0.00823975,-0.99234009,0.122070,0.244141,0.000000
1050088000,0.00498962,0.00823975,-0.99234009,0.061035,0.244141,-0.061035
1057675958,0.00576782,0.00767517,-0.99409485,0.061035,0.244141,-0.061035
1060216500,0.00576782,0.00767517,-0.99409485,0.061035,0.244141,-0.122070
1067802583,0.00508118,0.00759888,-0.99356079,0.061035,0.244141,-0.122070
1070331500,0.00508118,0.00759888,-0.99356079,0.061035,0.183105,-0.061035
1077928708,0.00410461,0.00825500,-0.99346924,0.061035,0.183105,-0.061035
1080507166,0.00410461,0.00825500,-0.99346924,0.122070,0.061035,-0.183105
1088135541,0.00535583,0.00769043,-0.99389648,0.122070,0.061035,-0.183105
1090614500,0.00535583,0.00769043,-0.99389648,0.122070,0.305176,0.000000
1098200041,0.00489807,0.00772095,-0.99433899,0.122070,0.305176,0.000000
1100746583,0.00489807,0.00772095,-0.99433899,0.000000,0.122070,-0.183105
1108008833,0.00445557,0.00737000,-0.99369812,0.000000,0.122070,-0.183105
1110551791,0.00445557,0.00737000,-0.99369812,0.000000,0.122070,-0.122070
1118168166,0.00480652,0.00753784,-0.99374390,0.000000,0.122070,-0.122070
1120716125,0.00480652,0.00753784,-0.99374390,0.061035,0.183105,-0.183105
1130334166,0.00535583,0.00717163,-0.99360657,0.000000,0.183105,-0.122070
1139729000,0.00540161,0.00744629,-0.99305725,0.122070,0.122070,-0.122070
1149916125,0.00549316,0.00819397,-0.99301147,0.061035,0.122070,-0.244141
1160090958,0.00531006,0.00785828,-0.99337769,0.061035,0.183105,-0.061035
1170176041,0.00524902,0.00868225,-0.99319458,0.000000,0.366211,-0.183105
1180116083,0.00480652,0.00869751,-0.99502563,0.061035,0.122070,-0.061035
1187681291,0.00448608,0.00782776,-0.99383545,0.061035,0.122070,-0.061035
1190226666,0.00448608,0.00782776,-0.99383545,0.000000,0.244141,-0.183105
1200365500,0.00451660,0.00753784,-0.99374390,0.061035,0.305176,-0.061035
1207995458,0.00495911,0.00801086,-0.99426270,0.061035,0.305176,-0.061035
1210523250,0.00495911,0.00801086,-0.99426270,0.061035,0.183105,-0.061035
1218099708,0.00442505,0.00779724,-0.99502563,0.061035,0.183105,-0.061035
1220641625,0.00442505,0.00779724,-0.99502563,-0.061035,0.122070,-0.183105
1228229458,0.00445557,0.00732422,-0.99276733,-0.061035,0.122070,-0.183105
1230773500,0.00445557,0.00732422,-0.99276733,0.000000,0.122070,-0.122070
1238057416,0.00401306,0.00776672,-0.99241638,0.000000,0.122070,-0.122070
1240598458,0.00401306,0.00776672,-0.99241638,0.000000,0.183105,-0.122070
1248200541,0.00541687,0.00759888,-0.99389648,0.000000,0.183105,-0.122070
1250644833,0.00541687,0.00759888,-0.99389648,0.000000,0.244141,-0.061035
1260511875,0.00596619,0.00820923,-0.99328613,0.122070,0.122070,-0.122070
1268136500,0.00570679,0.00773621,-0.99372864,0.122070,0.122070,-0.122070
1270691250,0.00570679,0.00773621,-0.99372864,0.061035,0.061035,-0.061035
1278294708,0.00505066,0.00770569,-0.99282837,0.061035,0.061035,-0.061035
1280394291,0.00505066,0.00770569,-0.99282837,0.183105,0.305176,-0.122070
1290364166,0.00521851,0.00738525,-0.99388123,0.122070,0.305176,-0.122070
1300384458,0.00413513,0.00733948,-0.99272156,0.000000,0.122070,-0.122070
1310382000,0.00518799,0.00714111,-0.99392700,0.000000,0.183105,-0.122070
1317997416,0.00538635,0.00648499,-0.99330139,0.000000,0.183105,-0.122070
1320545916,0.00538635,0.00648499,-0.99330139,0.244141,0.122070,-0.244141
1328013625,0.00529480,0.00787354,-0.99427795,0.244141,0.122070,-0.244141
1330563708,0.00529480,0.00787354,-0.99427795,0.061035,0.183105,-0.122070
1338150125,0.00505066,0.00755310,-0.99487305,0.061035,0.183105,-0.122070
1340596666,0.00505066,0.00755310,-0.99487305,0.061035,0.061035,-0.183105
1347944208,0.00546265,0.00727844,-0.99392700,0.061035,0.061035,-0.183105
1350494333,0.00546265,0.00727844,-0.99392700,-0.122070,0.061035,-0.122070
1358073041,0.00527954,0.00784302,-0.99229431,-0.122070,0.061035,-0.122070
1360602750,0.00527954,0.00784302,-0.99229431,0.061035,0.244141,-0.061035
1368191416,0.00451660,0.00895691,-0.99319458,0.061035,0.244141,-0.061035
1370616291,0.00451660,0.00895691,-0.99319458,0.061035,0.244141,-0.061035
1378231541,0.00489807,0.00892639,-0.99372864,0.061035,0.244141,-0.061035
1380766000,0.00489807,0.00892639,-0.99372864,0.122070,0.122070,-0.122070
1388357875,0.00506592,0.00874329,-0.99385071,0.122070,0.122070,-0.122070
1390909041,0.00506592,0.00874329,-0.99385071,-0.061035,0.122070,-0.122070
1398532791,0.00534058,0.00914001,-0.99395752,-0.061035,0.122070,-0.122070
1401083000,0.00534058,0.00914001,-0.99395752,0.122070,0.244141,-0.122070
1408422875,0.00393677,0.00862122,-0.99375916,0.122070,0.244141,-0.122070
1410966000,0.00393677,0.00862122,-0.99375916,-0.061035,0.183105,-0.122070
1418313416,0.00480652,0.00793457,-0.99360657,-0.061035,0.183105,-0.122070
1420769583,0.00480652,0.00793457,-0.99360657,0.122070,0.244141,-0.122070
1428221500,0.00515747,0.00865173,-0.99404907,0.122070,0.244141,-0.122070
1430766083,0.00515747,0.00865173,-0.99404907,0.061035,0.122070,-0.183105
1438372375,0.00587463,0.00831604,-0.99313354,0.061035,0.122070,-0.183105
1440919541,0.00587463,0.00831604,-0.99313354,0.122070,0.122070,-0.122070
1448494708,0.00559998,0.00697327,-0.99499512,0.122070,0.122070,-0.122070
1451039625,0.00559998,0.00697327,-0.99499512,0.061035,0.183105,-0.122070
1458633000,0.00642395,0.00682068,-0.99171448,0.061035,0.183105,-0.122070
1461180833,0.00642395,0.00682068,-0.99171448,0.000000,0.244141,-0.061035
1468923958,0.00553894,0.00682068,-0.99342346,0.000000,0.244141,-0.061035
1471353333,0.00553894,0.00682068,-0.99342346,-0.061035,0.244141,-0.122070
1478573666,0.00491333,0.00791931,-0.99281311,-0.061035,0.244141,-0.122070
1481102875,0.00491333,0.00791931,-0.99281311,0.000000,0.305176,-0.061035
1488446000,0.00509644,0.00764465,-0.99328613,0.000000,0.305176,-0.061035
1490987791,0.00509644,0.00764465,-0.99328613,0.061035,0.183105,-0.122070
1500604333,0.00498962,0.00819397,-0.99444580,-0.122070,0.183105,-0.183105
1510365291,0.00527954,0.00794983,-0.99166870,-0.061035,0.122070,-0.122070
1520143000,0.00382996,0.00793457,-0.99296570,-0.061035,0.183105,-0.183105
1530201958,0.00491333,0.00808716,-0.99479675,0.000000,0.244141,0.000000
1540338916,0.00517273,0.00781250,-0.99424744,0.122070,0.000000,-0.061035
1550373916,0.00532532,0.00755310,-0.99276733,0.122070,0.183105,-0.061035
1560516000,0.00523376,0.00886536,-0.99371338,0.000000,0.183105,0.000000
1570027291,0.00486755,0.00904846,-0.99433899,0.183105,0.244141,-0.061035
1579874666,0.00491333,0.00930786,-0.99259949,0.000000,0.183105,-0.122070
1590007875,0.00556946,0.00822449,-0.99360657,0.061035,0.122070,-0.183105
1600139833,0.00498962,0.00854492,-0.99440002,0.061035,0.122070,0.061035
1610294208,0.00563049,0.00831604,-0.99392700,0.183105,0.244141,-0.061035
1620441875,0.00474548,0.00807190,-0.99348450,0.061035,0.183105,-0.061035
1630646375,0.00457764,0.00802612,-0.99388123,0.061035,0.122070,0.061035
1640813000,0.00402832,0.00741577,-0.99369812,0.061035,0.305176,-0.061035
1650465875,0.00428772,0.00799561,-0.99285889,0.061035,0.122070,-0.061035
1660092666,0.00546265,0.00886536,-0.99545288,0.122070,0.183105,-0.122070
1670234958,0.00590515,0.00820923,-0.99285889,0.061035,0.122070,0.061035
1680334791,0.00567627,0.00718689,-0.99264526,-0.244141,0.549316,-0.122070
1690195666,0.00717163,0.00709534,-0.99635315,-0.244141,0.183105,-0.244141
1699765541,0.00759888,0.00709534,-0.99171448,-0.244141,0.183105,-0.244141
1711097958,0.00567627,0.00715637,-0.99783325,0.000000,-0.061035,-0.122070
1711134291,0.00567627,0.00715637,-0.99783325,0.000000,0.244141,0.000000
1721068166,0.00500488,0.00924683,-0.99188232,0.305176,0.183105,-0.122070
1731151041,0.00267029,0.00892639,-0.99458313,0.000000,0.366211,-0.122070
1740764375,0.00286865,0.00930786,-0.99223328,0.061035,0.244141,0.000000
1750554083,0.00393677,0.00949097,-0.99414062,-0.061035,0.305176,-0.061035
1760705708,0.00440979,0.00895691,-0.99339294,0.183105,0.366211,-0.061035
1771047041,0.00576782,0.00756836,-0.99240112,0.061035,0.122070,-0.061035
1780965750,0.00721741,0.00717163,-0.99655151,0.122070,0.122070,-0.183105
1790939958,0.00613403,0.00743103,-0.98982239,0.061035,0.183105,-0.061035
1800997666,0.00585938,0.00685120,-0.99270630,0.183105,0.244141,0.000000
1811052833,0.00584412,0.00634766,-0.99424744,0.061035,0.183105,-0.183105
1821002166,0.00434875,0.00827026,-0.99511719,0.061035,0.122070,-0.122070
1831146083,0.00477600,0.00877380,-0.99212646,0.061035,0.122070,-0.061035
1841275375,0.00462341,0.00921631,-0.99415588,0.061035,0.122070,-0.122070
1851392541,0.00440979,0.01005554,-0.99339294,0.183105,0.183105,-0.061035
1861549000,0.00418091,0.00970459,-0.99385071,0.061035,0.366211,-0.122070
1871229083,0.00451660,0.00971985,-0.99374390,0.000000,0.244141,0.000000
1881338708,0.00463867,0.00912476,-0.99446106,0.061035,0.122070,-0.061035
1891546875,0.00476074,0.00830078,-0.99267578,0.183105,0.183105,-0.183105
1901710125,0.00640869,0.00836182,-0.99386597,0.061035,0.244141,-0.061035
1909334541,0.00712585,0.00686646,-0.99487305,0.061035,0.244141,-0.061035
1911898833,0.00712585,0.00686646,-0.99487305,0.000000,0.183105,-0.061035
1921834125,0.00677490,0.00614929,-0.99191284,0.183105,0.061035,-0.183105
1931597916,0.00637817,0.00674438,-0.99324036,0.061035,0.244141,-0.122070
1941771208,0.00485229,0.00595093,-0.99450684,-0.122070,0.183105,-0.061035
1951603916,0.00329590,0.00718689,-0.99269104,0.000000,0.122070,-0.122070
1960895583,0.00357056,0.00924683,-0.99293518,0.000000,0.183105,0.000000
1970979166,0.00300598,0.01040649,-0.99349976,0.183105,0.305176,-0.061035
1981079833,0.00257874,0.01087952,-0.99435425,0.183105,0.183105,-0.122070
1991209291,0.00357056,0.01042175,-0.99374390,0.183105,0.244141,0.000000
2001383958,0.00503540,0.01037598,-0.99487305,0.061035,0.244141,-0.122070
2011524750,0.00524902,0.00791931,-0.99281311,0.061035,0.244141,-0.061035
2021600250,0.00633240,0.00711060,-0.99360657,0.061035,0.244141,-0.183105
2031690083,0.00630188,0.00643921,-0.99359131,0.122070,0.061035,-0.122070
2041790625,0.00599670,0.00549316,-0.99392700,0.122070,0.305176,-0.122070
2051926458,0.00619507,0.00559998,-0.99421692,0.000000,0.122070,-0.061035
2062101958,0.00465393,0.00715637,-0.99282837,0.061035,0.183105,-0.122070
2072239083,0.00445557,0.00825500,-0.99385071,0.000000,0.061035,-0.122070
2079940541,0.00454712,0.00834656,-0.99258423,0.000000,0.061035,-0.122070
2082575125,0.00454712,0.00834656,-0.99258423,0.122070,0.183105,-0.061035
2090220875,0.00495911,0.00851440,-0.99305725,0.122070,0.183105,-0.061035
2092809041,0.00495911,0.00851440,-0.99305725,0.000000,0.244141,-0.183105
2100103083,0.00393677,0.00920105,-0.99406433,0.000000,0.244141,-0.183105
2102685166,0.00393677,0.00920105,-0.99406433,0.183105,0.244141,-0.061035
2110330666,0.00370789,0.01000977,-0.99285889,0.183105,0.244141,-0.061035
2112928416,0.00370789,0.01000977,-0.99285889,0.000000,0.244141,-0.061035
2120473291,0.00427246,0.00886536,-0.99395752,0.000000,0.244141,-0.061035
2123073000,0.00427246,0.00886536,-0.99395752,0.061035,0.122070,-0.244141
2131040083,0.00445557,0.00891113,-0.99357605,0.000000,0.183105,-0.122070
2141454291,0.00540161,0.00727844,-0.99401855,0.000000,0.305176,-0.183105
2151581250,0.00614929,0.00761414,-0.99247742,0.061035,0.122070,-0.183105
2161440791,0.00610352,0.00682068,-0.99441528,0.122070,0.183105,-0.061035
2171568291,0.00578308,0.00622559,-0.99366760,0.183105,0.000000,-0.061035
2181689541,0.00555420,0.00683594,-0.99378967,0.000000,0.244141,-0.122070
2191850416,0.00511169,0.00782776,-0.99311829,0.122070,0.061035,0.000000
2201998875,0.00485229,0.00816345,-0.99354553,0.000000,0.244141,-0.122070
2212160541,0.00532532,0.00827026,-0.99386597,0.122070,0.244141,-0.183105
2222340333,0.00376892,0.00799561,-0.99319458,0.122070,0.366211,-0.061035
2229975625,0.00416565,0.00878906,-0.99269104,0.122070,0.366211,-0.061035
2232501500,0.00416565,0.00878906,-0.99269104,0.183105,0.122070,-0.061035
2240084875,0.00547791,0.00785828,-0.99293518,0.183105,0.122070,-0.061035
2242627625,0.00547791,0.00785828,-0.99293518,0.000000,0.061035,-0.122070
2250209666,0.00469971,0.00910950,-0.99470520,0.000000,0.061035,-0.122070
2252753541,0.00469971,0.00910950,-0.99470520,0.061035,0.183105,-0.183105
2260362750,0.00570679,0.00863647,-0.99359131,0.061035,0.183105,-0.183105
2262888916,0.00570679,0.00863647,-0.99359131,0.122070,0.244141,0.000000
2270459875,0.00558472,0.00779724,-0.99382019,0.122070,0.244141,0.000000
2273008875,0.00558472,0.00779724,-0.99382019,0.000000,0.122070,-0.122070
2280580041,0.00439453,0.00724792,-0.99417114,0.000000,0.122070,-0.122070
2283108541,0.00439453,0.00724792,-0.99417114,0.122070,0.244141,-0.183105
2290686833,0.00524902,0.00740051,-0.99430847,0.122070,0.244141,-0.183105
2293221458,0.00524902,0.00740051,-0.99430847,0.183105,0.244141,-0.061035
2300573208,0.00570679,0.00767517,-0.99452209,0.183105,0.244141,-0.061035
2303120166,0.00570679,0.00767517,-0.99452209,0.061035,0.122070,-0.244141
2310726916,0.00521851,0.00753784,-0.99293518,0.061035,0.122070,-0.244141
2313275750,0.00521851,0.00753784,-0.99293518,0.000000,0.122070,-0.122070
2320896791,0.00505066,0.00805664,-0.99327087,0.000000,0.122070,-0.122070
2323458333,0.00505066,0.00805664,-0.99327087,0.183105,0.183105,-0.122070
2331082208,0.00595093,0.00782776,-0.99316406,0.183105,0.183105,-0.122070
2333545250,0.00595093,0.00782776,-0.99316406,-0.061035,0.061035,-0.183105
2341140958,0.00488281,0.00778198,-0.99427795,-0.061035,0.061035,-0.183105
2343688625,0.00488281,0.00778198,-0.99427795,0.183105,0.183105,0.000000
2351288166,0.00440979,0.00755310,-0.99336243,0.183105,0.183105,0.000000
2353832666,0.00440979,0.00755310,-0.99336243,0.122070,0.183105,-0.061035
2361455000,0.00489807,0.00714111,-0.99322510,0.122070,0.183105,-0.061035
2364011375,0.00489807,0.00714111,-0.99322510,-0.061035,0.305176,-0.061035
2371521833,0.00393677,0.00764465,-0.99285889,-0.061035,0.305176,-0.061035
2374066291,0.00393677,0.00764465,-0.99285889,0.183105,0.244141,-0.061035
2381658000,0.00427246,0.00820923,-0.99267578,0.183105,0.244141,-0.061035
2384207625,0.00427246,0.00820923,-0.99267578,0.061035,0.122070,-0.122070
2391852750,0.00350952,0.00915527,-0.99424744,0.061035,0.183105,-0.183105
2401996000,0.00399780,0.00950623,-0.99324036,0.061035,0.183105,-0.122070
2412148333,0.00445557,0.00836182,-0.99511719,0.061035,0.122070,-0.183105
2422268375,0.00398254,0.00778198,-0.99340820,0.000000,0.122070,-0.122070
2432262000,0.00482178,0.00764465,-0.99345398,0.061035,0.122070,0.000000
2441952750,0.00512695,0.00752258,-0.99398804,0.061035,0.183105,-0.244141
2452091083,0.00581360,0.00743103,-0.99348450,0.061035,0.183105,0.061035
2462206083,0.00552368,0.00726318,-0.99417114,0.122070,0.244141,0.000000
2472341166,0.00650024,0.00650024,-0.99322510,-0.061035,0.122070,-0.122070
2482277708,0.00605774,0.00732422,-0.99377441,-0.061035,0.122070,-0.122070
2492403833,0.00578308,0.00752258,-0.99382019,0.000000,0.183105,-0.183105
2502563875,0.00553894,0.00732422,-0.99304199,0.000000,0.366211,-0.122070
2512729083,0.00379944,0.00781250,-0.99438477,0.122070,0.122070,-0.244141
2522800333,0.00262451,0.00804138,-0.99464417,0.061035,0.122070,0.000000
2532793250,0.00411987,0.00817871,-0.99415588,0.000000,0.183105,-0.122070
2542682416,0.00531006,0.00888062,-0.99172974,0.183105,0.122070,-0.061035
2552766541,0.00442505,0.00903320,-0.99415588,0.000000,0.183105,-0.183105
2562896291,0.00505066,0.00837708,-0.99473572,0.061035,0.244141,-0.183105
2573016333,0.00495911,0.00907898,-0.99510193,0.061035,0.061035,-0.122070
2583142291,0.00523376,0.00926208,-0.99334717,0.061035,0.183105,-0.122070
2593285916,0.00491333,0.00788879,-0.99478149,-0.061035,0.122070,-0.183105
2603391791,0.00607300,0.00798035,-0.99351501,0.061035,0.244141,-0.061035
2611034666,0.00520325,0.00698853,-0.99276733,0.061035,0.244141,-0.061035
2613578750,0.00520325,0.00698853,-0.99276733,0.061035,0.000000,-0.183105
2620981125,0.00389099,0.00697327,-0.99424744,0.061035,0.000000,-0.183105
2623537750,0.00389099,0.00697327,-0.99424744,0.122070,0.183105,-0.122070
2631178833,0.00439453,0.00737000,-0.99462891,0.122070,0.183105,-0.122070
2633593791,0.00439453,0.00737000,-0.99462891,-0.061035,0.244141,-0.061035
2641204791,0.00463867,0.00703430,-0.99345398,-0.061035,0.244141,-0.061035
2643761291,0.00463867,0.00703430,-0.99345398,0.061035,0.244141,-0.061035
2650964916,0.00502014,0.00794983,-0.99435425,0.061035,0.244141,-0.061035
2653513041,0.00502014,0.00794983,-0.99435425,0.183105,0.122070,-0.183105
2661110041,0.00503540,0.00798035,-0.99345398,0.183105,0.122070,-0.183105
2663657958,0.00503540,0.00798035,-0.99345398,0.122070,0.122070,0.000000
2671249125,0.00367737,0.00794983,-0.99452209,0.122070,0.122070,0.000000
2673361750,0.00367737,0.00794983,-0.99452209,0.122070,0.366211,-0.061035
2683206833,0.00427246,0.00863647,-0.99328613,0.122070,0.244141,-0.183105
2691289125,0.00411987,0.00857544,-0.99380493,0.122070,0.244141,-0.183105
2694051666,0.00411987,0.00857544,-0.99380493,0.122070,0.244141,-0.122070
2701203458,0.00506592,0.00788879,-0.99249268,0.122070,0.244141,-0.122070
2703537916,0.00506592,0.00788879,-0.99249268,0.122070,0.244141,-0.244141
2712802708,0.00628662,0.00656128,-0.99345398,0.122070,0.244141,0.000000
2722949708,0.00572205,0.00755310,-0.99316406,0.000000,0.122070,-0.061035
2732665083,0.00601196,0.00732422,-0.99372864,0.122070,0.122070,-0.183105
2742540291,0.00529480,0.00637817,-0.99331665,0.122070,0.122070,-0.122070
2752676666,0.00440979,0.00654602,-0.99378967,-0.061035,0.244141,-0.244141
2762802541,0.00572205,0.00849915,-0.99411011,0.000000,0.061035,-0.122070
2772596000,0.00588989,0.00753784,-0.99377441,0.122070,0.183105,-0.183105
2782405583,0.00521851,0.00791931,-0.99418640,0.122070,0.183105,-0.183105
2784909375,0.00521851,0.00791931,-0.99418640,0.000000,0.122070,0.000000
2792516500,0.00550842,0.00868225,-0.99270630,0.000000,0.122070,0.000000
2795085333,0.00550842,0.00868225,-0.99270630,0.122070,0.183105,-0.061035
2802715208,0.00486755,0.00822449,-0.99345398,0.122070,0.183105,-0.061035
2805262625,0.00486755,0.00822449,-0.99345398,0.000000,0.122070,-0.244141
2812538708,0.00451660,0.00834656,-0.99346924,0.000000,0.122070,-0.244141
2815072291,0.00451660,0.00834656,-0.99346924,0.183105,0.244141,-0.122070
2822647000,0.00308228,0.00875854,-0.99272156,0.183105,0.244141,-0.122070
2825192583,0.00308228,0.00875854,-0.99272156,0.061035,0.244141,-0.061035
2832326583,0.00477600,0.00807190,-0.99411011,0.061035,0.244141,-0.061035
2834870708,0.00477600,0.00807190,-0.99411011,-0.061035,0.183105,-0.183105
2842199083,0.00517273,0.00682068,-0.99243164,-0.061035,0.183105,-0.183105
2844746666,0.00517273,0.00682068,-0.99243164,0.061035,0.183105,-0.122070
2852211958,0.00494385,0.00787354,-0.99356079,0.061035,0.183105,-0.122070
2854758500,0.00494385,0.00787354,-0.99356079,0.122070,0.122070,-0.061035
2862351166,0.00497437,0.00791931,-0.99336243,0.122070,0.122070,-0.061035
2864899833,0.00497437,0.00791931,-0.99336243,0.122070,0.244141,-0.061035
2872541625,0.00553894,0.00706482,-0.99406433,0.122070,0.244141,-0.061035
2875131708,0.00553894,0.00706482,-0.99406433,0.183105,0.183105,-0.122070
2882102666,0.00634766,0.00700378,-0.99307251,0.183105,0.183105,-0.122070
2884651750,0.00634766,0.00700378,-0.99307251,0.000000,0.061035,-0.061035
2891991000,0.00491333,0.00723267,-0.99380493,0.000000,0.061035,-0.061035
2894525791,0.00491333,0.00723267,-0.99380493,0.183105,0.244141,-0.183105
2902138833,0.00518799,0.00799561,-0.99406433,0.183105,0.244141,-0.183105
2904688708,0.00518799,0.00799561,-0.99406433,0.122070,0.244141,-0.122070
2914815958,0.00462341,0.00799561,-0.99345398,0.061035,0.061035,-0.122070
2922433750,0.00457764,0.00849915,-0.99478149,0.061035,0.061035,-0.122070
2924986875,0.00457764,0.00849915,-0.99478149,0.061035,0.244141,-0.122070
2932586958,0.00482178,0.00833130,-0.99272156,0.061035,0.244141,-0.122070
2935213000,0.00482178,0.00833130,-0.99272156,0.000000,0.122070,-0.061035
2942797750,0.00421143,0.00827026,-0.99388123,0.000000,0.122070,-0.061035
2945394250,0.00421143,0.00827026,-0.99388123,0.061035,0.305176,-0.061035
2952979250,0.00480652,0.00794983,-0.99349976,0.000000,0.244141,0.061035
2963103916,0.00526428,0.00791931,-0.99320984,0.122070,0.244141,0.000000
2972799833,0.00494385,0.00743103,-0.99244690,0.122070,0.244141,0.000000
2975350041,0.00494385,0.00743103,-0.99244690,0.061035,0.061035,-0.122070
2982960708,0.00457764,0.00732422,-0.99407959,0.000000,0.244141,-0.061035
2992792041,0.00486755,0.00772095,-0.99377441,0.000000,0.244141,-0.061035
2995365125,0.00486755,0.00772095,-0.99377441,0.061035,0.122070,0.000000
3003022041,0.00544739,0.00726318,-0.99382019,0.061035,0.183105,-0.061035
3012730750,0.00488281,0.00732422,-0.99491882,0.061035,0.183105,-0.061035
3015277666,0.00488281,0.00732422,-0.99491882,0.122070,0.061035,-0.122070
3022733208,0.00447083,0.00791931,-0.99412537,0.122070,0.061035,-0.122070
3025280000,0.00447083,0.00791931,-0.99412537,0.122070,0.305176,-0.061035
3032708916,0.00563049,0.00793457,-0.99374390,0.122070,0.305176,-0.061035
3035254208,0.00563049,0.00793457,-0.99374390,0.061035,0.183105,-0.183105
3042503916,0.00465393,0.00900269,-0.99388123,0.061035,0.183105,-0.183105
3044841416,0.00465393,0.00900269,-0.99388123,-0.061035,0.122070,0.000000
3052397625,0.00500488,0.00822449,-0.99395752,-0.061035,0.122070,0.000000
3054951250,0.00500488,0.00822449,-0.99395752,0.061035,0.183105,-0.122070
3062560666,0.00532532,0.00827026,-0.99404907,0.061035,0.183105,-0.122070
3065094375,0.00532532,0.00827026,-0.99404907,0.061035,0.244141,-0.122070
3072529125,0.00463867,0.00770569,-0.99371338,0.061035,0.244141,-0.122070
3075077875,0.00463867,0.00770569,-0.99371338,0.061035,0.000000,-0.122070
3082282791,0.00598145,0.00723267,-0.99444580,0.061035,0.000000,-0.122070
3084836041,0.00598145,0.00723267,-0.99444580,0.122070,0.183105,-0.122070
3092129833,0.00515747,0.00778198,-0.99284363,0.122070,0.183105,-0.122070
3094685666,0.00515747,0.00778198,-0.99284363,0.061035,0.244141,-0.183105
3102278833,0.00486755,0.00846863,-0.99388123,0.061035,0.244141,-0.183105
3104819625,0.00486755,0.00846863,-0.99388123,0.061035,0.244141,-0.122070
3112419000,0.00544739,0.00831604,-0.99317932,0.061035,0.244141,-0.122070
3114966333,0.00544739,0.00831604,-0.99317932,0.061035,0.244141,0.000000
3122434375,0.00564575,0.00820923,-0.99330139,0.061035,0.244141,0.000000
3124919333,0.00564575,0.00820923,-0.99330139,0.061035,0.122070,-0.061035
3132510833,0.00526428,0.00827026,-0.99217224,0.061035,0.122070,-0.061035
3135065375,0.00526428,0.00827026,-0.99217224,0.061035,0.122070,-0.183105
3142688000,0.00621033,0.00776672,-0.99287415,0.061035,0.122070,-0.183105
3145229208,0.00621033,0.00776672,-0.99287415,0.000000,0.183105,0.000000
3152450166,0.00599670,0.00828552,-0.99371338,0.000000,0.183105,0.000000
3154736500,0.00599670,0.00828552,-0.99371338,0.122070,0.061035,-0.122070
3164405708,0.00479126,0.00834656,-0.99342346,0.061035,0.305176,0.000000
3174289208,0.00422668,0.00798035,-0.99383545,0.122070,0.183105,-0.122070
3183452541,0.00410461,0.00730896,-0.99325562,0.061035,0.122070,-0.061035
3193400500,0.00535583,0.00733948,-0.99342346,0.000000,0.183105,-0.183105
3203274875,0.00453186,0.00709534,-0.99327087,0.000000,0.183105,-0.183105
3205835666,0.00453186,0.00709534,-0.99327087,0.183105,0.183105,-0.061035
3213436708,0.00500488,0.00765991,-0.99284363,0.061035,0.244141,0.000000
3223109083,0.00447083,0.00825500,-0.99324036,0.061035,0.244141,0.000000
3225656458,0.00447083,0.00825500,-0.99324036,0.061035,0.244141,-0.061035
3233244291,0.00494385,0.00787354,-0.99243164,0.061035,0.244141,-0.061035
3235789500,0.00494385,0.00787354,-0.99243164,0.061035,0.244141,-0.061035
3243135875,0.00483704,0.00816345,-0.99478149,0.061035,0.244141,-0.061035
3245679125,0.00483704,0.00816345,-0.99478149,0.000000,0.122070,-0.122070
3252926708,0.00424194,0.00833130,-0.99304199,0.000000,0.122070,-0.122070
3255452583,0.00424194,0.00833130,-0.99304199,0.061035,0.244141,-0.061035
3263044083,0.00521851,0.00796509,-0.99420166,0.061035,0.244141,-0.061035
3265599000,0.00521851,0.00796509,-0.99420166,0.122070,0.183105,0.000000
3272784958,0.00454712,0.00823975,-0.99246216,0.122070,0.183105,0.000000
3275324416,0.00454712,0.00823975,-0.99246216,0.122070,0.183105,-0.061035
3282902875,0.00450134,0.00856018,-0.99281311,0.122070,0.183105,-0.061035
3285447125,0.00450134,0.00856018,-0.99281311,0.061035,0.061035,-0.122070
3293000708,0.00497437,0.00849915,-0.99324036,0.061035,0.061035,-0.122070
3295526708,0.00497437,0.00849915,-0.99324036,0.183105,0.183105,-0.244141
3303122291,0.00497437,0.00823975,-0.99417114,0.183105,0.183105,-0.244141
3305694500,0.00497437,0.00823975,-0.99417114,0.061035,0.183105,-0.122070
3313308875,0.00514221,0.00770569,-0.99266052,0.061035,0.183105,-0.122070
3315866083,0.00514221,0.00770569,-0.99266052,0.061035,0.244141,-0.183105
3323508250,0.00515747,0.00762939,-0.99263000,0.061035,0.244141,-0.183105
3326073541,0.00515747,0.00762939,-0.99263000,0.061035,0.122070,-0.061035
3333441666,0.00520325,0.00752258,-0.99421692,0.061035,0.122070,-0.061035
3336002875,0.00520325,0.00752258,-0.99421692,0.061035,0.122070,-0.122070
3343619708,0.00535583,0.00762939,-0.99481201,0.061035,0.122070,-0.122070
3346160875,0.00535583,0.00762939,-0.99481201,0.183105,0.122070,-0.244141
3353742333,0.00538635,0.00836182,-0.99371338,0.183105,0.122070,-0.244141
3356268125,0.00538635,0.00836182,-0.99371338,0.061035,0.183105,-0.061035
3363823000,0.00552368,0.00793457,-0.99394226,0.061035,0.183105,-0.061035
3366358041,0.00552368,0.00793457,-0.99394226,0.000000,0.183105,-0.061035
3373927000,0.00582886,0.00866699,-0.99386597,0.000000,0.122070,-0.122070
3383861791,0.00506592,0.00885010,-0.99423218,0.000000,0.183105,-0.122070
3393477541,0.00427246,0.00857544,-0.99296570,0.000000,0.183105,-0.122070
3396037500,0.00427246,0.00857544,-0.99296570,0.122070,0.122070,-0.061035
3403061791,0.00485229,0.00828552,-0.99386597,0.122070,0.122070,-0.061035
3405600083,0.00485229,0.00828552,-0.99386597,0.061035,0.183105,0.061035
3415316416,0.00491333,0.00851440,-0.99263000,0.000000,0.183105,-0.061035
3422934416,0.00459290,0.00743103,-0.99430847,0.000000,0.183105,-0.061035
3425487208,0.00459290,0.00743103,-0.99430847,0.183105,0.122070,-0.061035
3433092208,0.00582886,0.00759888,-0.99337769,0.183105,0.122070,-0.061035
3435633750,0.00582886,0.00759888,-0.99337769,0.122070,0.305176,-0.183105
3443303166,0.00611877,0.00762939,-0.99424744,0.122070,0.305176,-0.183105
3445858583,0.00611877,0.00762939,-0.99424744,-0.061035,0.183105,-0.183105
3455350250,0.00465393,0.00735474,-0.99418640,0.061035,0.244141,-0.244141
3462969416,0.00569153,0.00733948,-0.99340820,0.061035,0.244141,-0.244141
3465525250,0.00569153,0.00733948,-0.99340820,0.122070,0.183105,-0.122070
3473142916,0.00643921,0.00752258,-0.99372864,0.122070,0.183105,-0.122070
3475693833,0.00643921,0.00752258,-0.99372864,0.061035,0.244141,-0.122070
3483150708,0.00511169,0.00727844,-0.99264526,0.061035,0.244141,-0.122070
3485694666,0.00511169,0.00727844,-0.99264526,0.183105,0.244141,-0.122070
3493287875,0.00419617,0.00730896,-0.99345398,0.183105,0.244141,-0.122070
3495816250,0.00419617,0.00730896,-0.99345398,0.061035,0.183105,-0.061035
3503371875,0.00566101,0.00746155,-0.99276733,0.061035,0.183105,-0.061035
3505894000,0.00566101,0.00746155,-0.99276733,0.061035,0.000000,-0.061035
3513439291,0.00529480,0.00772095,-0.99345398,0.061035,0.000000,-0.061035
3515971541,0.00529480,0.00772095,-0.99345398,-0.061035,0.122070,-0.244141
3523563083,0.00538635,0.00837708,-0.99398804,-0.061035,0.122070,-0.244141
3525858333,0.00538635,0.00837708,-0.99398804,0.000000,0.183105,-0.061035
3533415125,0.00477600,0.00810242,-0.99426270,0.000000,0.183105,-0.061035
3535842541,0.00477600,0.00810242,-0.99426270,-0.061035,0.122070,-0.183105
3543412041,0.00520325,0.00785828,-0.99411011,-0.061035,0.122070,-0.183105
3545947583,0.00520325,0.00785828,-0.99411011,0.122070,0.305176,-0.061035
3553424208,0.00498962,0.00860596,-0.99285889,0.122070,0.305176,-0.061035
3555963458,0.00498962,0.00860596,-0.99285889,0.061035,0.244141,-0.122070
3563539583,0.00477600,0.00805664,-0.99366760,0.061035,0.244141,-0.122070
3565699375,0.00477600,0.00805664,-0.99366760,0.000000,0.000000,-0.061035
3573319000,0.00538635,0.00837708,-0.99330139,0.000000,0.000000,-0.061035
3575860125,0.00538635,0.00837708,-0.99330139,0.000000,0.183105,-0.122070
3583154958,0.00648499,0.00883484,-0.99351501,0.000000,0.183105,-0.122070
3585702958,0.00648499,0.00883484,-0.99351501,-0.061035,0.183105,-0.122070
3593330541,0.00463867,0.00791931,-0.99349976,-0.061035,0.183105,-0.122070
3595786041,0.00463867,0.00791931,-0.99349976,0.000000,0.183105,-0.061035
3603399250,0.00447083,0.00744629,-0.99389648,0.000000,0.183105,-0.061035
3605941250,0.00447083,0.00744629,-0.99389648,0.122070,0.244141,-0.183105
3613460416,0.00506592,0.00714111,-0.99348450,0.122070,0.244141,-0.183105
3615894041,0.00506592,0.00714111,-0.99348450,0.061035,0.122070,-0.183105
3623494375,0.00486755,0.00712585,-0.99438477,0.061035,0.122070,-0.183105
3626037125,0.00486755,0.00712585,-0.99438477,0.000000,0.122070,-0.122070
3633159875,0.00617981,0.00761414,-0.99417114,0.000000,0.122070,-0.122070
3635729375,0.00617981,0.00761414,-0.99417114,0.061035,0.183105,-0.183105
3643336250,0.00431824,0.00793457,-0.99369812,0.061035,0.183105,-0.183105
3645882625,0.00431824,0.00793457,-0.99369812,0.122070,0.061035,-0.122070
3655312666,0.00436401,0.00787354,-0.99443054,0.061035,0.122070,-0.122070
3665406125,0.00469971,0.00779724,-0.99291992,0.061035,0.183105,-0.122070
3675516166,0.00398254,0.00823975,-0.99359131,0.000000,0.061035,-0.183105
3685639000,0.00498962,0.00810242,-0.99302673,0.061035,0.183105,-0.061035
3694928583,0.00572205,0.00804138,-0.99301147,0.061035,0.183105,-0.183105
3705028125,0.00576782,0.00856018,-0.99378967,0.122070,0.244141,-0.122070
3715159000,0.00517273,0.00801086,-0.99449158,0.122070,0.122070,-0.061035
3725268958,0.00534058,0.00828552,-0.99412537,0.122070,0.244141,-0.122070
3735121833,0.00469971,0.00830078,-0.99368286,0.000000,0.244141,-0.122070
3744918916,0.00439453,0.00852966,-0.99314880,0.000000,0.122070,-0.122070
3754921500,0.00552368,0.00749207,-0.99353027,0.061035,0.122070,-0.122070
3764598416,0.00508118,0.00714111,-0.99348450,0.061035,0.122070,-0.122070
3767155500,0.00508118,0.00714111,-0.99348450,0.061035,0.061035,-0.122070
3774896250,0.00630188,0.00708008,-0.99330139,0.061035,0.061035,-0.122070
3777451208,0.00630188,0.00708008,-0.99330139,-0.061035,0.244141,-0.061035
3785062708,0.00596619,0.00741577,-0.99404907,0.000000,0.244141,-0.183105
3795221208,0.00547791,0.00733948,-0.99359131,0.183105,0.183105,-0.061035
3805345958,0.00445557,0.00735474,-0.99308777,0.122070,0.366211,-0.122070
3815363583,0.00505066,0.00744629,-0.99417114,0.122070,0.244141,-0.061035
3825343000,0.00535583,0.00857544,-0.99389648,0.061035,0.122070,-0.061035
3834993000,0.00442505,0.00843811,-0.99366760,0.061035,0.122070,-0.122070
3844870666,0.00439453,0.00810242,-0.99316406,0.061035,0.122070,-0.244141
3854987958,0.00506592,0.00825500,-0.99365234,0.061035,0.244141,-0.122070
3865104000,0.00538635,0.00898743,-0.99237061,0.122070,0.183105,0.000000
3874922708,0.00471497,0.00756836,-0.99284363,0.000000,0.183105,-0.122070
3884356416,0.00474548,0.00791931,-0.99346924,0.000000,0.183105,-0.122070
3886903000,0.00474548,0.00791931,-0.99346924,0.061035,0.061035,-0.244141
3894175250,0.00500488,0.00904846,-0.99224854,0.061035,0.061035,-0.244141
3896719625,0.00500488,0.00904846,-0.99224854,0.000000,0.122070,0.000000
3906358125,0.00561523,0.00831604,-0.99327087,0.122070,0.244141,-0.183105
3913974666,0.00529480,0.00724792,-0.99331665,0.122070,0.244141,-0.183105
3916518791,0.00529480,0.00724792,-0.99331665,0.000000,0.122070,0.000000
3924214000,0.00556946,0.00701904,-0.99311829,0.000000,0.122070,0.000000
3926764666,0.00556946,0.00701904,-0.99311829,0.000000,0.305176,-0.122070
3934374500,0.00532532,0.00686646,-0.99459839,0.000000,0.305176,-0.122070
3936919541,0.00532532,0.00686646,-0.99459839,0.000000,0.183105,-0.061035
3944514500,0.00465393,0.00816345,-0.99320984,0.000000,0.183105,-0.061035
3947077083,0.00465393,0.00816345,-0.99320984,0.061035,0.305176,0.000000
3954699250,0.00498962,0.00753784,-0.99423218,0.061035,0.305176,0.000000
3957248708,0.00498962,0.00753784,-0.99423218,0.061035,0.061035,-0.244141
3964588833,0.00529480,0.00823975,-0.99255371,0.061035,0.061035,-0.244141
3967124458,0.00529480,0.00823975,-0.99255371,0.122070,0.122070,0.000000
3974351833,0.00416565,0.00756836,-0.99380493,0.122070,0.122070,0.000000
3976464333,0.00416565,0.00756836,-0.99380493,0.183105,0.244141,-0.244141
3984043041,0.00451660,0.00765991,-0.99383545,0.183105,0.244141,-0.244141
3986587666,0.00451660,0.00765991,-0.99383545,0.122070,0.305176,-0.122070
3994156916,0.00382996,0.00830078,-0.99412537,0.122070,0.305176,-0.122070
3996699041,0.00382996,0.00830078,-0.99412537,-0.061035,0.244141,-0.122070
4006353333,0.00401306,0.00781250,-0.99275208,0.061035,0.244141,-0.183105
4014038583,0.00495911,0.00811768,-0.99404907,0.061035,0.244141,-0.183105
4016584958,0.00495911,0.00811768,-0.99404907,-0.061035,0.244141,0.000000
4024188833,0.00434875,0.00776672,-0.99311829,-0.061035,0.244141,0.000000
4026729541,0.00434875,0.00776672,-0.99311829,0.061035,0.183105,-0.122070
4034345458,0.00494385,0.00854492,-0.99337769,0.061035,0.183105,-0.122070
4036894416,0.00494385,0.00854492,-0.99337769,0.122070,0.183105,-0.061035
4044486541,0.00601196,0.00904846,-0.99403381,0.122070,0.183105,-0.061035
4047024958,0.00601196,0.00904846,-0.99403381,0.183105,0.122070,-0.122070
4054642833,0.00602722,0.00791931,-0.99325562,0.183105,0.122070,-0.122070
4057185791,0.00602722,0.00791931,-0.99325562,0.000000,0.122070,-0.061035
4064807833,0.00601196,0.00680542,-0.99365234,0.000000,0.122070,-0.061035
4067362916,0.00601196,0.00680542,-0.99365234,0.000000,0.244141,-0.122070
4074969750,0.00538635,0.00726318,-0.99336243,0.000000,0.244141,-0.122070
4077502166,0.00538635,0.00726318,-0.99336243,-0.061035,0.244141,-0.061035
4085086916,0.00561523,0.00735474,-0.99359131,-0.061035,0.244141,-0.061035
4087621875,0.00561523,0.00735474,-0.99359131,0.122070,0.244141,0.000000
4095297000,0.00506592,0.00769043,-0.99438477,0.122070,0.244141,0.000000
4097846125,0.00506592,0.00769043,-0.99438477,0.122070,0.122070,-0.061035
4105212791,0.00367737,0.00778198,-0.99325562,0.122070,0.122070,-0.061035
4107756708,0.00367737,0.00778198,-0.99325562,0.000000,0.183105,-0.061035
4114862500,0.00457764,0.00753784,-0.99328613,0.000000,0.183105,-0.061035
4117389958,0.00457764,0.00753784,-0.99328613,0.183105,0.305176,-0.061035
4124546416,0.00549316,0.00854492,-0.99194336,0.183105,0.305176,-0.061035
4127089208,0.00549316,0.00854492,-0.99194336,0.061035,0.122070,-0.061035
4134685166,0.00556946,0.00715637,-0.99472046,0.061035,0.122070,-0.061035
4137227541,0.00556946,0.00715637,-0.99472046,0.000000,0.244141,-0.061035
4144801291,0.00477600,0.00765991,-0.99252319,0.000000,0.244141,-0.061035
4147333833,0.00477600,0.00765991,-0.99252319,0.122070,0.122070,-0.244141
4154905333,0.00395203,0.00895691,-0.99313354,0.122070,0.122070,-0.244141
4157443375,0.00395203,0.00895691,-0.99313354,0.122070,0.183105,-0.183105
4164554000,0.00537109,0.00798035,-0.99452209,0.122070,0.183105,-0.183105
4167106833,0.00537109,0.00798035,-0.99452209,0.061035,0.183105,-0.122070
4174520875,0.00482178,0.00711060,-0.99375916,0.061035,0.183105,-0.122070
4177050125,0.00482178,0.00711060,-0.99375916,0.122070,0.244141,-0.061035
4184654208,0.00535583,0.00782776,-0.99473572,0.122070,0.244141,-0.061035
4187147083,0.00535583,0.00782776,-0.99473572,0.000000,0.183105,-0.061035
4194490791,0.00483704,0.00784302,-0.99346924,0.000000,0.183105,-0.061035
4197042208,0.00483704,0.00784302,-0.99346924,0.122070,0.244141,-0.061035
4204650666,0.00544739,0.00804138,-0.99348450,0.122070,0.244141,-0.061035
4207203875,0.00544739,0.00804138,-0.99348450,0.000000,0.244141,-0.122070
4217443875,0.00514221,0.00822449,-0.99247742,0.000000,0.183105,-0.244141
4225039750,0.00469971,0.00765991,-0.99244690,0.000000,0.183105,-0.244141
4227588708,0.00469971,0.00765991,-0.99244690,0.122070,0.061035,-0.061035
4235194666,0.00482178,0.00823975,-0.99404907,0.122070,0.061035,-0.061035
4237761166,0.00482178,0.00823975,-0.99404907,0.183105,0.244141,-0.122070
4245326166,0.00494385,0.00831604,-0.99391174,0.183105,0.244141,-0.122070
4247870416,0.00494385,0.00831604,-0.99391174,-0.061035,0.305176,-0.122070
4255247041,0.00570679,0.00827026,-0.99461365,-0.061035,0.305176,-0.122070
4257790250,0.00570679,0.00827026,-0.99461365,0.183105,0.244141,0.000000
4265332958,0.00505066,0.00767517,-0.99453735,0.183105,0.244141,0.000000
4267882000,0.00505066,0.00767517,-0.99453735,0.122070,0.183105,-0.183105
4275331458,0.00451660,0.00804138,-0.99328613,0.122070,0.183105,-0.183105
4277864750,0.00451660,0.00804138,-0.99328613,0.122070,0.244141,0.000000
4285181458,0.00508118,0.00878906,-0.99400330,0.122070,0.244141,0.000000
4287247208,0.00508118,0.00878906,-0.99400330,0.000000,0.061035,-0.183105
4297408208,0.00485229,0.00830078,-0.99470520,0.000000,0.122070,-0.183105
4307190291,0.00503540,0.00827026,-0.99363708,-0.061035,0.122070,0.000000
4317317916,0.00495911,0.00804138,-0.99406433,0.061035,0.183105,-0.183105
4327025541,0.00497437,0.00741577,-0.99517822,0.061035,0.183105,-0.061035
4337180791,0.00505066,0.00752258,-0.99432373,0.122070,0.122070,-0.122070
4347328708,0.00514221,0.00720215,-0.99371338,0.061035,0.183105,-0.183105
4354944625,0.00599670,0.00723267,-0.99314880,0.061035,0.183105,-0.183105
4357499916,0.00599670,0.00723267,-0.99314880,0.061035,0.061035,-0.244141
4367376500,0.00541687,0.00816345,-0.99481201,0.122070,0.244141,-0.122070
4377281333,0.00451660,0.00775146,-0.99310303,0.061035,0.122070,-0.122070
4387219291,0.00413513,0.00753784,-0.99464417,0.000000,0.183105,0.061035
4394875875,0.00480652,0.00840759,-0.99360657,0.000000,0.183105,0.061035
4397430416,0.00480652,0.00840759,-0.99360657,0.000000,0.183105,-0.183105
4404975041,0.00439453,0.00700378,-0.99409485,0.000000,0.183105,-0.183105
4407531208,0.00439453,0.00700378,-0.99409485,0.000000,0.244141,-0.061035
4415134375,0.00561523,0.00805664,-0.99305725,0.000000,0.244141,-0.061035
4417680166,0.00561523,0.00805664,-0.99305725,0.061035,0.183105,-0.061035
4425255666,0.00593567,0.00773621,-0.99348450,0.061035,0.183105,-0.061035
4427783666,0.00593567,0.00773621,-0.99348450,0.000000,0.122070,-0.061035
4435142000,0.00566101,0.00849915,-0.99220276,0.000000,0.122070,-0.061035
4437680458,0.00566101,0.00849915,-0.99220276,0.122070,0.244141,-0.183105
4445276916,0.00469971,0.00886536,-0.99235535,0.122070,0.244141,-0.183105
4447803000,0.00469971,0.00886536,-0.99235535,0.000000,0.305176,-0.061035
4455390416,0.00466919,0.00793457,-0.99415588,0.000000,0.305176,-0.061035
4457928916,0.00466919,0.00793457,-0.99415588,0.061035,0.122070,-0.061035
4465503166,0.00593567,0.00820923,-0.99377441,0.061035,0.122070,-0.061035
4468038166,0.00593567,0.00820923,-0.99377441,0.000000,0.183105,-0.061035
4475642125,0.00592041,0.00781250,-0.99211121,0.000000,0.183105,-0.061035
4478193333,0.00592041,0.00781250,-0.99211121,-0.183105,0.366211,-0.183105
4485825250,0.00541687,0.00765991,-0.99372864,-0.183105,0.366211,-0.183105
4488405291,0.00541687,0.00765991,-0.99372864,0.061035,0.244141,-0.061035
4495323583,0.00543213,0.00852966,-0.99281311,0.061035,0.244141,-0.061035
4497922166,0.00543213,0.00852966,-0.99281311,0.061035,0.061035,-0.061035
4505232375,0.00483704,0.00749207,-0.99401855,0.061035,0.061035,-0.061035
4507775208,0.00483704,0.00749207,-0.99401855,0.000000,0.122070,-0.183105
4515365500,0.00590515,0.00845337,-0.99301147,0.000000,0.122070,-0.183105
4517909666,0.00590515,0.00845337,-0.99301147,0.061035,0.183105,-0.122070
4525524083,0.00523376,0.00814819,-0.99462891,0.061035,0.183105,-0.122070
4528069791,0.00523376,0.00814819,-0.99462891,0.122070,0.183105,0.000000
4535667166,0.00624084,0.00828552,-0.99440002,0.122070,0.183105,0.000000
4538193875,0.00624084,0.00828552,-0.99440002,0.061035,0.183105,-0.061035
4545333208,0.00563049,0.00883484,-0.99313354,0.061035,0.183105,-0.061035
4547876583,0.00563049,0.00883484,-0.99313354,0.122070,0.122070,0.000000
4555480500,0.00494385,0.00842285,-0.99331665,0.122070,0.122070,0.000000
4558026125,0.00494385,0.00842285,-0.99331665,0.000000,0.305176,-0.122070
4565309083,0.00361633,0.00811768,-0.99327087,0.000000,0.305176,-0.122070
4567866541,0.00361633,0.00811768,-0.99327087,0.000000,0.244141,-0.122070
4575267333,0.00386047,0.00857544,-0.99412537,0.000000,0.244141,-0.122070
4577604583,0.00386047,0.00857544,-0.99412537,0.061035,0.183105,-0.122070
4587718791,0.00477600,0.00798035,-0.99411011,0.000000,0.183105,-0.122070
4595401708,0.00529480,0.00860596,-0.99423218,0.000000,0.183105,-0.122070
4597953666,0.00529480,0.00860596,-0.99423218,0.122070,0.122070,0.000000
4607605375,0.00532532,0.00759888,-0.99478149,0.183105,0.122070,0.000000
4617743791,0.00463867,0.00836182,-0.99415588,0.000000,0.183105,-0.061035
4625376333,0.00488281,0.00764465,-0.99319458,0.000000,0.183105,-0.061035
4627708500,0.00488281,0.00764465,-0.99319458,0.061035,0.183105,-0.061035
4637500041,0.00584412,0.00828552,-0.99325562,0.000000,0.061035,-0.122070
4647392458,0.00553894,0.00741577,-0.99456787,0.061035,0.122070,-0.061035
4657550541,0.00515747,0.00738525,-0.99253845,0.061035,0.183105,-0.183105
4667133000,0.00488281,0.00737000,-0.99340820,0.061035,0.183105,0.000000
4677263833,0.00550842,0.00779724,-0.99324036,0.061035,0.305176,-0.122070
4687376625,0.00404358,0.00804138,-0.99447632,0.122070,0.366211,-0.244141
4697243541,0.00479126,0.00845337,-0.99267578,0.061035,0.305176,0.061035
4707403708,0.00415039,0.00759888,-0.99322510,0.061035,0.305176,-0.061035
4717576208,0.00410461,0.00842285,-0.99244690,0.061035,0.122070,-0.061035
4727699125,0.00473022,0.00833130,-0.99368286,0.000000,0.122070,-0.183105
4737269833,0.00421143,0.00787354,-0.99470520,0.061035,0.244141,-0.122070
4747381708,0.00483704,0.00756836,-0.99301147,-0.061035,0.183105,-0.122070
4757522125,0.00601196,0.00711060,-0.99334717,-0.061035,0.061035,-0.061035
4767604333,0.00601196,0.00614929,-0.99356079,0.000000,0.305176,-0.122070
4777699750,0.00613403,0.00630188,-0.99267578,0.122070,0.244141,-0.183105
4787805583,0.00547791,0.00730896,-0.99380493,0.183105,0.305176,-0.122070
4797950333,0.00486755,0.00785828,-0.99397278,0.061035,0.305176,-0.122070
4808117750,0.00465393,0.00856018,-0.99482727,0.122070,0.122070,-0.122070
4817851500,0.00407410,0.00871277,-0.99356079,0.061035,0.244141,-0.061035
4827601750,0.00387573,0.00881958,-0.99378967,0.122070,0.122070,-0.122070
4837745416,0.00436401,0.00979614,-0.99348450,0.061035,0.183105,-0.061035
4847294625,0.00483704,0.01019287,-0.99298096,0.061035,0.183105,-0.122070
4857001375,0.00505066,0.00973511,-0.99314880,0.061035,0.183105,-0.122070
4859548250,0.00505066,0.00973511,-0.99314880,0.061035,0.244141,0.000000
4867191166,0.00517273,0.00830078,-0.99383545,0.061035,0.305176,-0.305176
4877309958,0.00633240,0.00776672,-0.99417114,0.061035,0.122070,-0.122070
4887108750,0.00628662,0.00706482,-0.99220276,0.061035,0.122070,-0.122070
4889682166,0.00628662,0.00706482,-0.99220276,0.000000,0.244141,-0.122070
4897091416,0.00657654,0.00505066,-0.99356079,0.000000,0.244141,-0.122070
4899630541,0.00657654,0.00505066,-0.99356079,0.061035,0.244141,-0.183105
4906835625,0.00602722,0.00634766,-0.99340820,0.061035,0.244141,-0.183105
4909388875,0.00602722,0.00634766,-0.99340820,0.122070,0.305176,-0.122070
4916630583,0.00593567,0.00654602,-0.99395752,0.122070,0.305176,-0.122070
4919177708,0.00593567,0.00654602,-0.99395752,0.122070,0.183105,-0.183105
4926779625,0.00592041,0.00642395,-0.99327087,0.122070,0.183105,-0.183105
4929331250,0.00592041,0.00642395,-0.99327087,0.122070,0.122070,-0.183105
4936929875,0.00614929,0.00808716,-0.99378967,0.122070,0.122070,-0.183105
4939463166,0.00614929,0.00808716,-0.99378967,0.000000,0.244141,-0.183105
4947040875,0.00578308,0.00834656,-0.99325562,0.000000,0.244141,-0.183105
4949591666,0.00578308,0.00834656,-0.99325562,0.000000,0.061035,-0.183105
4957200041,0.00549316,0.00830078,-0.99458313,0.000000,0.061035,-0.183105
4959752916,0.00549316,0.00830078,-0.99458313,0.366211,0.000000,-0.122070
4967394250,0.00459290,0.00787354,-0.98855591,0.000000,0.122070,-0.061035
4977515666,0.00321960,0.00900269,-0.99815369,0.183105,0.122070,-0.061035
4987669708,0.00450134,0.00968933,-0.99711609,0.183105,0.122070,-0.061035
4990214375,0.00450134,0.00968933,-0.99711609,0.061035,0.061035,-0.122070
4997841125,0.00541687,0.00871277,-0.99249268,0.061035,0.061035,-0.122070
5000398208,0.00541687,0.00871277,-0.99249268,-0.122070,0.488281,-0.061035
5007992583,0.00602722,0.00895691,-0.98942566,0.244141,0.244141,-0.183105
5018125791,0.00498962,0.01020813,-1.00061035,0.061035,0.305176,-0.061035
5027986166,0.00401306,0.00801086,-0.98991394,0.061035,0.305176,0.000000
5038135833,0.00407410,0.00738525,-0.99433899,0.061035,0.061035,-0.061035
5047997291,0.00376892,0.00834656,-0.99314880,0.000000,0.122070,-0.061035
5058101875,0.00411987,0.00848389,-0.99490356,0.122070,0.244141,0.000000
5068201791,0.00547791,0.00750732,-0.99357605,-0.061035,0.183105,-0.122070
5078311083,0.00624084,0.00566101,-0.99324036,-0.122070,0.366211,-0.122070
5088486083,0.00761414,0.00604248,-0.99247742,0.183105,0.244141,-0.122070
5098340208,0.00679016,0.00619507,-0.99615479,0.000000,0.305176,0.000000
5108252916,0.00640869,0.00701904,-0.99043274,0.122070,0.183105,-0.061035
5118192458,0.00523376,0.00770569,-0.99362183,0.122070,0.183105,-0.244141
5127896958,0.00358582,0.00938416,-0.99342346,0.122070,0.183105,-0.244141
5130446208,0.00358582,0.00938416,-0.99342346,0.061035,0.244141,-0.061035
5137869916,0.00306702,0.01036072,-0.99337769,0.061035,0.244141,-0.061035
5140419083,0.00306702,0.01036072,-0.99337769,-0.122070,0.244141,-0.061035
5148038500,0.00314331,0.00990295,-0.99334717,0.061035,0.244141,0.000000
5157694875,0.00381470,0.00903320,-0.99386597,0.061035,0.244141,0.000000
5160252083,0.00381470,0.00903320,-0.99386597,0.122070,0.183105,-0.122070
5167598291,0.00401306,0.00942993,-0.99397278,0.122070,0.183105,-0.122070
5170155916,0.00401306,0.00942993,-0.99397278,-0.122070,0.000000,-0.183105
5177747958,0.00515747,0.00785828,-0.99331665,-0.122070,0.000000,-0.183105
5179812041,0.00515747,0.00785828,-0.99331665,0.000000,0.122070,-0.061035
5187430041,0.00581360,0.00709534,-0.99183655,0.000000,0.122070,-0.061035
5189554375,0.00581360,0.00709534,-0.99183655,0.000000,0.183105,-0.061035
5197140458,0.00588989,0.00602722,-0.99526978,0.000000,0.183105,-0.061035
5199679708,0.00588989,0.00602722,-0.99526978,0.244141,0.183105,-0.061035
5207245541,0.00607300,0.00579834,-0.99380493,0.244141,0.183105,-0.061035
5209349875,0.00607300,0.00579834,-0.99380493,0.122070,0.122070,-0.061035
5216932250,0.00645447,0.00630188,-0.99365234,0.122070,0.122070,-0.061035
5219491083,0.00645447,0.00630188,-0.99365234,0.061035,0.183105,-0.122070
5227078291,0.00703430,0.00613403,-0.99269104,0.061035,0.183105,-0.122070
5229629541,0.00703430,0.00613403,-0.99269104,0.061035,0.244141,-0.183105
5237220291,0.00588989,0.00601196,-0.99467468,0.061035,0.244141,-0.183105
5239773375,0.00588989,0.00601196,-0.99467468,0.183105,0.244141,-0.061035
5246980125,0.00521851,0.00709534,-0.99223328,0.183105,0.244141,-0.061035
5249114666,0.00521851,0.00709534,-0.99223328,0.061035,0.244141,-0.183105
5258883958,0.00404358,0.00843811,-0.99357605,0.122070,0.061035,-0.183105
5268580625,0.00364685,0.01037598,-0.99420166,0.061035,0.122070,-0.122070
5278641375,0.00317383,0.00984192,-0.99414062,0.061035,0.305176,-0.122070
5288783000,0.00367737,0.01071167,-0.99450684,0.183105,0.244141,0.000000
5298500750,0.00303650,0.01016235,-0.99339294,0.061035,0.183105,-0.122070
5308648958,0.00411987,0.00889587,-0.99363708,0.122070,0.244141,-0.061035
5318551041,0.00535583,0.00874329,-0.99371338,0.183105,0.183105,-0.122070
5328364333,0.00552368,0.00738525,-0.99450684,0.061035,0.122070,-0.061035
5338195333,0.00563049,0.00659180,-0.99432373,-0.061035,0.061035,0.000000
5347856583,0.00636292,0.00637817,-0.99302673,-0.061035,0.061035,0.000000
5350472416,0.00636292,0.00637817,-0.99302673,0.000000,0.122070,-0.183105
5358056750,0.00611877,0.00631714,-0.99499512,0.000000,0.122070,-0.183105
5360592333,0.00611877,0.00631714,-0.99499512,0.000000,0.183105,0.000000
5368195625,0.00630188,0.00688171,-0.99015808,0.000000,0.183105,0.000000
5370726750,0.00630188,0.00688171,-0.99015808,-0.122070,0.183105,-0.122070
5378348791,0.00590515,0.00845337,-0.99334717,0.061035,0.122070,-0.061035
5388456750,0.00549316,0.00753784,-0.99488831,0.122070,0.061035,-0.061035
5398267541,0.00405884,0.00753784,-0.99211121,0.122070,0.061035,-0.061035
5400675083,0.00405884,0.00753784,-0.99211121,0.122070,0.183105,-0.061035
5407846583,0.00457764,0.00869751,-0.99411011,0.122070,0.183105,-0.061035
5409919125,0.00457764,0.00869751,-0.99411011,0.000000,0.122070,-0.061035
5417517833,0.00572205,0.00904846,-0.99588013,0.000000,0.122070,-0.061035
5420064833,0.00572205,0.00904846,-0.99588013,-0.183105,0.122070,-0.122070
5427655500,0.00360107,0.00891113,-0.99339294,-0.183105,0.122070,-0.122070
5430197500,0.00360107,0.00891113,-0.99339294,0.061035,0.183105,0.000000
5437788875,0.00445557,0.00932312,-0.99093628,0.061035,0.183105,0.000000
5440329333,0.00445557,0.00932312,-0.99093628,0.061035,0.183105,-0.183105
5447932875,0.00572205,0.00939941,-0.99345398,0.061035,0.183105,-0.183105
5450498125,0.00572205,0.00939941,-0.99345398,0.061035,0.244141,0.122070
5458052291,0.00590515,0.00910950,-0.99340820,0.061035,0.244141,0.122070
5460601958,0.00590515,0.00910950,-0.99340820,0.122070,0.244141,-0.061035
5467854125,0.00566101,0.00810242,-0.99458313,0.122070,0.244141,-0.061035
5470397000,0.00566101,0.00810242,-0.99458313,0.122070,0.061035,-0.183105
5477855625,0.00491333,0.00714111,-0.99290466,0.122070,0.061035,-0.183105
5480412791,0.00491333,0.00714111,-0.99290466,-0.061035,0.122070,0.000000
5487626000,0.00512695,0.00730896,-0.99282837,-0.061035,0.122070,0.000000
5490169208,0.00512695,0.00730896,-0.99282837,0.000000,0.122070,-0.122070
5497781166,0.00500488,0.00787354,-0.99380493,0.000000,0.122070,-0.122070
5500326875,0.00500488,0.00787354,-0.99380493,-0.122070,0.183105,-0.061035
5507652916,0.00483704,0.00811768,-0.99368286,-0.122070,0.183105,-0.061035
5510200708,0.00483704,0.00811768,-0.99368286,0.122070,0.183105,-0.061035
5517780083,0.00471497,0.00805664,-0.99465942,0.122070,0.183105,-0.061035
5520303583,0.00471497,0.00805664,-0.99465942,0.122070,0.244141,-0.122070
5527645791,0.00469971,0.00743103,-0.99276733,0.122070,0.244141,-0.122070
5530209708,0.00469971,0.00743103,-0.99276733,0.183105,0.183105,0.000000
5537824375,0.00431824,0.00798035,-0.99240112,0.183105,0.183105,0.000000
5540372416,0.00431824,0.00798035,-0.99240112,0.183105,0.244141,0.000000
5547974041,0.00491333,0.00836182,-0.99372864,0.183105,0.244141,0.000000
5550516833,0.00491333,0.00836182,-0.99372864,0.061035,0.122070,-0.122070
5558092791,0.00527954,0.00833130,-0.99467468,0.061035,0.122070,-0.122070
5560640291,0.00527954,0.00833130,-0.99467468,0.122070,0.305176,-0.122070
5568210666,0.00581360,0.00817871,-0.99327087,0.122070,0.305176,-0.122070
5570743291,0.00581360,0.00817871,-0.99327087,0.183105,0.305176,0.000000
5580142500,0.00564575,0.00758362,-0.99304199,0.122070,0.244141,-0.122070
5590271708,0.00444031,0.00650024,-0.99517822,0.122070,0.183105,-0.183105
5597950833,0.00454712,0.00659180,-0.99447632,0.122070,0.183105,-0.183105
5600495458,0.00454712,0.00659180,-0.99447632,-0.122070,0.183105,-0.122070
5610337208,0.00440979,0.00639343,-0.99501038,-0.122070,0.122070,-0.122070
5620404541,0.00404358,0.00778198,-0.99429321,1.342773,0.061035,-0.122070
5628034833,0.00384521,0.00947571,-0.98692322,1.342773,0.061035,-0.122070
5630580041,0.00384521,0.00947571,-0.98692322,0.183105,0.183105,-0.183105
5638198041,0.00422668,0.01040649,-0.98463440,0.183105,0.183105,-0.183105
5640756583,0.00422668,0.01040649,-0.98463440,0.305176,0.061035,-0.122070
5648076125,0.00535583,0.01039124,-1.01037598,0.305176,0.061035,-0.122070
5650659958,0.00535583,0.01039124,-1.01037598,-0.183105,0.183105,-0.122070
5658269250,0.00477600,0.01049805,-0.98425293,-0.183105,0.183105,-0.122070
5660819375,0.00477600,0.01049805,-0.98425293,0.122070,0.244141,-0.122070
5668284500,0.00418091,0.00904846,-0.99627686,0.122070,0.244141,-0.122070
5670812208,0.00418091,0.00904846,-0.99627686,0.000000,0.244141,-0.122070
5678396833,0.00601196,0.00733948,-0.99337769,0.000000,0.244141,-0.122070
5680929208,0.00601196,0.00733948,-0.99337769,0.122070,0.427246,-0.061035
5688245791,0.00541687,0.00701904,-0.99716187,0.122070,0.427246,-0.061035
5690772833,0.00541687,0.00701904,-0.99716187,0.061035,0.122070,0.000000
5698094083,0.00500488,0.00733948,-0.99322510,0.061035,0.122070,0.000000
5700622833,0.00500488,0.00733948,-0.99322510,-0.183105,0.122070,-0.183105
5708214833,0.00634766,0.00621033,-0.99365234,-0.183105,0.122070,-0.183105
5711017666,0.00634766,0.00621033,-0.99365234,0.000000,0.244141,-0.122070
5718596500,0.00604248,0.00772095,-0.98936462,0.000000,0.244141,-0.122070
5721006458,0.00604248,0.00772095,-0.98936462,0.183105,0.061035,-0.122070
5728630666,0.00575256,0.00767517,-1.00192261,0.183105,0.061035,-0.122070
5731184000,0.00575256,0.00767517,-1.00192261,0.122070,0.183105,-0.244141
5738794541,0.00555420,0.00737000,-0.98550415,0.122070,0.183105,-0.244141
5741337208,0.00555420,0.00737000,-0.98550415,0.183105,0.183105,-0.122070
5748927416,0.00543213,0.00822449,-0.99522400,0.183105,0.183105,-0.122070
5751464208,0.00543213,0.00822449,-0.99522400,0.061035,0.183105,-0.244141
5759080041,0.00581360,0.00834656,-0.99263000,0.061035,0.183105,-0.244141
5761317708,0.00581360,0.00834656,-0.99263000,0.122070,0.366211,0.000000
5768583000,0.00395203,0.00865173,-0.99641418,0.122070,0.366211,0.000000
5771062041,0.00395203,0.00865173,-0.99641418,-0.183105,0.000000,-0.061035
5778583166,0.00396729,0.00886536,-0.99140930,-0.183105,0.000000,-0.061035
5781141791,0.00396729,0.00886536,-0.99140930,2.380371,-0.305176,-0.183105
5788719000,0.00479126,0.00825500,-0.97659302,2.380371,-0.305176,-0.183105
5791273125,0.00479126,0.00825500,-0.97659302,-1.098633,0.305176,-0.061035
5798370250,0.00276184,0.00779724,-1.01568604,-1.098633,0.305176,-0.061035
5800815708,0.00276184,0.00779724,-1.01568604,0.549316,-0.122070,-0.183105
5808242083,0.00486755,0.01052856,-0.99832153,0.549316,-0.122070,-0.183105
5810613541,0.00486755,0.01052856,-0.99832153,-0.793457,0.305176,-0.183105
5818241250,0.00524902,0.00898743,-0.98202515,-0.793457,0.305176,-0.183105
5820301375,0.00524902,0.00898743,-0.98202515,0.061035,0.427246,-0.122070
5830392708,0.00416565,0.00772095,-0.99798584,-0.183105,0.305176,-0.061035
5840492458,0.00407410,0.00874329,-0.99685669,0.000000,0.183105,-0.122070
5850351541,0.00415039,0.00820923,-0.99124146,0.061035,0.183105,0.000000
5860057458,0.00578308,0.00657654,-0.99505615,0.610352,0.061035,-0.122070
5869831125,0.00526428,0.00602722,-0.99147034,0.610352,0.061035,-0.122070
5872392625,0.00526428,0.00602722,-0.99147034,-0.366211,0.366211,-0.061035
5879936875,0.00610352,0.00796509,-0.99665833,0.000000,0.183105,0.061035
5890091458,0.00607300,0.00727844,-0.99291992,-0.061035,0.061035,-0.183105
5900237166,0.00541687,0.00601196,-0.98777771,-0.122070,0.305176,-0.183105
5910381833,0.00503540,0.00642395,-0.99624634,0.000000,0.244141,-0.061035
5920522000,0.00509644,0.00723267,-0.99481201,0.122070,0.183105,-0.061035
5930197916,0.00485229,0.00909424,-0.99343872,0.061035,0.122070,-0.183105
5940341583,0.00538635,0.00886536,-0.99209595,0.061035,0.244141,0.000000
5950316750,0.00575256,0.01039124,-0.99537659,0.000000,0.122070,-0.122070
5960456041,0.00645447,0.01078796,-0.99447632,0.061035,0.183105,0.000000
5970591666,0.00559998,0.00985718,-0.99107361,0.000000,0.122070,-0.122070
5980622333,0.00456238,0.00886536,-0.99438477,0.061035,0.061035,-0.061035
5990416333,0.00456238,0.00848389,-0.99468994,-0.061035,0.061035,-0.122070
6000589250,0.00579834,0.00883484,-0.99462891,0.000000,0.122070,-0.122070
6010541166,0.00616455,0.00685120,-0.98913574,0.305176,0.183105,-0.183105
6019468125,0.00628662,0.00624084,-0.99496460,0.305176,0.183105,-0.183105
6021996541,0.00628662,0.00624084,-0.99496460,0.061035,0.183105,-0.061035
6029595000,0.00521851,0.00576782,-0.99385071,0.061035,0.183105,-0.061035
6032141666,0.00521851,0.00576782,-0.99385071,0.915527,0.122070,-0.122070
6039584666,0.00457764,0.00497437,-0.99717712,0.915527,0.122070,-0.122070
6042126750,0.00457764,0.00497437,-0.99717712,-0.549316,0.183105,0.000000
6049745250,0.00311279,0.00595093,-0.98323059,-0.549316,0.183105,0.000000
6052329083,0.00311279,0.00595093,-0.98323059,-0.061035,0.061035,0.000000
6059954208,0.00367737,0.00753784,-1.00094604,-0.244141,0.244141,-0.244141
6070058708,0.00549316,0.00805664,-0.99263000,0.061035,0.183105,-0.244141
6079443375,0.00729370,0.00894165,-0.99493408,0.061035,0.183105,-0.244141
6081776958,0.00729370,0.00894165,-0.99493408,-0.122070,0.122070,-0.122070
6089372208,0.00630188,0.01060486,-0.99096680,-0.122070,0.122070,-0.122070
6091913708,0.00630188,0.01060486,-0.99096680,0.000000,0.244141,0.000000
6099555791,0.00578308,0.00996399,-0.99522400,0.000000,0.244141,0.000000
6102113416,0.00578308,0.00996399,-0.99522400,-0.061035,0.122070,-0.183105
6109729625,0.00469971,0.00942993,-0.99700928,-0.061035,0.122070,-0.183105
6112276333,0.00469971,0.00942993,-0.99700928,0.732422,0.122070,0.000000
6119403833,0.00280762,0.00845337,-0.99113464,0.732422,0.122070,0.000000
6121474375,0.00280762,0.00845337,-0.99113464,0.122070,0.122070,-0.061035
6129081458,0.00321960,0.00845337,-0.99739075,0.122070,0.122070,-0.061035
6131614500,0.00321960,0.00845337,-0.99739075,-0.061035,0.061035,-0.183105
6139179125,0.00520325,0.00778198,-0.98841858,-0.061035,0.061035,-0.183105
6141703750,0.00520325,0.00778198,-0.98841858,0.061035,0.122070,-0.122070
6149284500,0.00662231,0.00845337,-0.99604797,0.061035,0.122070,-0.122070
6151808958,0.00662231,0.00845337,-0.99604797,0.000000,0.061035,-0.305176
6159388791,0.00654602,0.00834656,-0.99259949,0.000000,0.061035,-0.305176
6161920875,0.00654602,0.00834656,-0.99259949,0.000000,0.122070,-0.061035
6169495041,0.00637817,0.00738525,-0.99505615,0.000000,0.122070,-0.061035
6172037208,0.00637817,0.00738525,-0.99505615,0.000000,0.244141,-0.061035
6179542000,0.00616455,0.00781250,-0.99375916,0.000000,0.244141,-0.061035
6181652541,0.00616455,0.00781250,-0.99375916,0.061035,0.183105,-0.122070
6188993208,0.00508118,0.00711060,-0.99290466,0.061035,0.183105,-0.122070
6191523375,0.00508118,0.00711060,-0.99290466,-0.061035,0.244141,-0.122070
6199131083,0.00431824,0.00718689,-0.99273682,-0.061035,0.244141,-0.122070
6201675125,0.00431824,0.00718689,-0.99273682,-0.061035,0.366211,-0.061035
6209287000,0.00451660,0.00827026,-0.99453735,-0.061035,0.366211,-0.061035
6211839250,0.00451660,0.00827026,-0.99453735,0.000000,0.305176,-0.061035
6219440750,0.00433350,0.00889587,-0.99197388,0.000000,0.305176,-0.061035
6221981583,0.00433350,0.00889587,-0.99197388,0.061035,0.244141,-0.122070
6229578625,0.00347900,0.00950623,-0.99337769,0.061035,0.244141,-0.122070
6232119000,0.00347900,0.00950623,-0.99337769,0.061035,0.183105,-0.122070
6239719208,0.00306702,0.00952148,-0.99345398,0.061035,0.183105,-0.122070
6242270541,0.00306702,0.00952148,-0.99345398,0.061035,0.183105,-0.244141
6249878250,0.00285339,0.01028442,-0.99353027,0.061035,0.183105,-0.244141
6252426541,0.00285339,0.01028442,-0.99353027,0.000000,0.183105,-0.061035
6260019416,0.00309753,0.01033020,-0.99397278,0.000000,0.183105,-0.061035
6262576833,0.00309753,0.01033020,-0.99397278,-0.122070,0.244141,0.000000
6270186333,0.00381470,0.01005554,-0.99238586,-0.122070,0.244141,0.000000
6272735500,0.00381470,0.01005554,-0.99238586,0.061035,0.183105,-0.122070
6280367458,0.00537109,0.00958252,-0.99433899,-0.183105,0.305176,-0.183105
6290455291,0.00694275,0.00762939,-0.99426270,0.000000,0.244141,-0.183105
6300588250,0.00646973,0.00711060,-0.99453735,0.122070,0.061035,-0.183105
6310708125,0.00492859,0.00604248,-0.99267578,0.061035,0.244141,-0.061035
6320394041,0.00422668,0.00566101,-0.99346924,0.061035,0.244141,-0.061035
6322922291,0.00422668,0.00566101,-0.99346924,0.122070,0.244141,-0.183105
6330544083,0.00375366,0.00697327,-0.99319458,0.122070,0.244141,-0.183105
6333095750,0.00375366,0.00697327,-0.99319458,0.061035,0.122070,-0.061035
6340723791,0.00486755,0.00688171,-0.99426270,0.061035,0.122070,-0.061035
6343270083,0.00486755,0.00688171,-0.99426270,0.061035,0.183105,-0.061035
6350559750,0.00547791,0.00828552,-0.99250793,0.061035,0.183105,-0.061035
6352720125,0.00547791,0.00828552,-0.99250793,-0.061035,0.000000,-0.122070
6360332208,0.00415039,0.00880432,-0.99385071,-0.061035,0.000000,-0.122070
6362871416,0.00415039,0.00880432,-0.99385071,0.061035,0.305176,-0.183105
6370044375,0.00492859,0.00901794,-0.99337769,0.061035,0.305176,-0.183105
6372604166,0.00492859,0.00901794,-0.99337769,0.122070,0.183105,-0.183105
6380207666,0.00473022,0.00906372,-0.99295044,0.122070,0.183105,-0.183105
6382753291,0.00473022,0.00906372,-0.99295044,0.183105,0.183105,0.000000
6390340583,0.00550842,0.00898743,-0.99331665,0.183105,0.183105,0.000000
6392877375,0.00550842,0.00898743,-0.99331665,0.122070,0.183105,-0.061035
6400480041,0.00521851,0.00946045,-0.99307251,0.122070,0.183105,-0.061035
6403047125,0.00521851,0.00946045,-0.99307251,-0.061035,0.183105,-0.061035
6410669958,0.00468445,0.00840759,-0.99403381,-0.061035,0.183105,-0.061035
6413211916,0.00468445,0.00840759,-0.99403381,0.122070,0.183105,-0.122070
6420829625,0.00558472,0.00828552,-0.99382019,0.122070,0.183105,-0.122070
6423387666,0.00558472,0.00828552,-0.99382019,0.000000,0.061035,-0.061035
6430974416,0.00570679,0.00767517,-0.99334717,0.000000,0.122070,-0.183105
6441021250,0.00692749,0.00758362,-0.99220276,0.061035,0.183105,-0.183105
6450894500,0.00509644,0.00804138,-0.99011230,0.000000,0.183105,-0.122070
6460618666,0.00572205,0.00779724,-0.99433899,0.000000,0.183105,-0.122070
6463155208,0.00572205,0.00779724,-0.99433899,-0.061035,0.061035,-0.122070
6470753666,0.00596619,0.00857544,-0.99612427,-0.061035,0.061035,-0.122070
6473284916,0.00596619,0.00857544,-0.99612427,-0.122070,0.305176,-0.183105
6480904625,0.00518799,0.00932312,-0.99568176,0.122070,0.305176,-0.244141
6490899375,0.00500488,0.00866699,-0.98971558,0.122070,0.244141,-0.122070
6501031375,0.00498962,0.00952148,-0.99890137,0.061035,0.183105,0.000000
6511158875,0.00363159,0.01071167,-0.99201965,0.000000,0.244141,-0.061035
6521309500,0.00090027,0.01094055,-0.99511719,0.061035,0.244141,0.000000
6531436250,0.00225830,0.00897217,-0.99331665,0.061035,0.183105,-0.122070
6541330333,0.00424194,0.00799561,-0.99363708,0.000000,0.183105,-0.122070
6551103208,0.00608826,0.00770569,-0.99366760,-0.122070,0.305176,-0.061035
6561250916,0.00750732,0.00605774,-0.99295044,0.305176,0.244141,-0.061035
6570925416,0.00624084,0.00640869,-0.99395752,0.305176,0.244141,-0.061035
6573487875,0.00624084,0.00640869,-0.99395752,0.061035,0.183105,-0.061035
6581105041,0.00579834,0.00718689,-0.99165344,0.061035,0.183105,-0.122070
6591076791,0.00643921,0.00685120,-0.99414062,0.061035,0.122070,-0.061035
6600918291,0.00613403,0.00633240,-0.99440002,0.061035,0.122070,-0.061035
6603439666,0.00613403,0.00633240,-0.99440002,0.061035,0.183105,-0.061035
6610680291,0.00534058,0.00791931,-0.99217224,0.061035,0.183105,-0.061035
6613213208,0.00534058,0.00791931,-0.99217224,0.000000,0.244141,-0.122070
6620820875,0.00465393,0.00808716,-0.99517822,0.000000,0.244141,-0.122070
6623359125,0.00465393,0.00808716,-0.99517822,0.000000,0.244141,-0.183105
6630940125,0.00326538,0.00764465,-0.99275208,0.000000,0.244141,-0.183105
6633486625,0.00326538,0.00764465,-0.99275208,0.000000,0.244141,-0.244141
6641096708,0.00431824,0.00791931,-0.99385071,0.061035,0.244141,-0.122070
6651352625,0.00367737,0.00895691,-0.99334717,0.183105,0.244141,-0.183105
6661327916,0.00459290,0.00889587,-0.99401855,0.366211,-0.366211,-0.061035
6670912791,0.00550842,0.00912476,-0.97709656,0.366211,-0.366211,-0.061035
6673125458,0.00550842,0.00912476,-0.97709656,-0.793457,0.366211,-0.061035
6680724083,0.00408936,0.01071167,-1.01724243,-0.793457,0.366211,-0.061035
6682822250,0.00408936,0.01071167,-1.01724243,0.549316,0.000000,0.122070
6690363666,0.00566101,0.01237488,-0.99241638,0.549316,0.000000,0.122070
6692898416,0.00566101,0.01237488,-0.99241638,-0.244141,0.244141,-0.061035
6700477958,0.00405884,0.01046753,-0.98504639,-0.244141,0.244141,-0.061035
6703011833,0.00405884,0.01046753,-0.98504639,0.183105,0.305176,-0.183105
6710318333,0.00546265,0.01069641,-0.99647522,0.183105,0.305176,-0.183105
6712881291,0.00546265,0.01069641,-0.99647522,-0.061035,0.244141,-0.061035
6720487666,0.00506592,0.00833130,-1.00000000,-0.061035,0.244141,-0.061035
6723028583,0.00506592,0.00833130,-1.00000000,0.061035,0.305176,-0.061035
6730613750,0.00340271,0.00759888,-0.98933411,0.061035,0.305176,-0.061035
6733151250,0.00340271,0.00759888,-0.98933411,0.122070,0.244141,-0.122070
6740751666,0.00462341,0.00579834,-0.99510193,0.122070,0.244141,-0.122070
6743300625,0.00462341,0.00579834,-0.99510193,0.000000,0.305176,-0.122070
6750889166,0.00428772,0.00515747,-0.99467468,0.000000,0.305176,-0.122070
6753414750,0.00428772,0.00515747,-0.99467468,0.244141,0.549316,-0.061035
6760973125,0.00682068,0.00729370,-0.99168396,0.244141,0.549316,-0.061035
6763500125,0.00682068,0.00729370,-0.99168396,-0.122070,0.122070,-0.183105
6771071208,0.00683594,0.00569153,-0.99617004,-0.122070,0.122070,-0.183105
6773593166,0.00683594,0.00569153,-0.99617004,0.061035,0.183105,-0.061035
6780871000,0.00704956,0.00718689,-0.99008179,0.061035,0.183105,-0.061035
6783404083,0.00704956,0.00718689,-0.99008179,-0.061035,0.366211,-0.183105
6790618208,0.00695801,0.00929260,-0.99345398,-0.061035,0.366211,-0.183105
6793152833,0.00695801,0.00929260,-0.99345398,0.183105,0.183105,-0.183105
6800761416,0.00582886,0.00897217,-0.99342346,0.183105,0.183105,-0.183105
6803311000,0.00582886,0.00897217,-0.99342346,-0.061035,0.061035,-0.061035
6810920500,0.00469971,0.00881958,-0.99441528,-0.061035,0.061035,-0.061035
6813462208,0.00469971,0.00881958,-0.99441528,0.061035,0.366211,-0.061035
6821078583,0.00337219,0.01023865,-0.98994446,0.061035,0.366211,-0.061035
6823616541,0.00337219,0.01023865,-0.98994446,0.122070,0.122070,-0.061035
6830737333,0.00299072,0.00968933,-0.99517822,0.122070,0.122070,-0.061035
6833287125,0.00299072,0.00968933,-0.99517822,0.122070,0.305176,-0.244141
6843412375,0.00297546,0.00907898,-0.99487305,0.122070,0.244141,-0.122070
6851014208,0.00309753,0.00946045,-0.99269104,0.122070,0.244141,-0.122070
6853577083,0.00309753,0.00946045,-0.99269104,0.183105,0.244141,-0.122070
6860961375,0.00456238,0.01020813,-0.99383545,0.183105,0.244141,-0.122070
6863515291,0.00456238,0.01020813,-0.99383545,0.183105,0.122070,-0.183105
6873291625,0.00610352,0.00885010,-0.99539185,0.183105,0.122070,-0.061035
6880980458,0.00642395,0.00848389,-0.99168396,0.183105,0.122070,-0.061035
6883541458,0.00642395,0.00848389,-0.99168396,0.122070,0.183105,0.000000
6891139041,0.00588989,0.00764465,-0.99343872,0.122070,0.183105,0.000000
6893539791,0.00588989,0.00764465,-0.99343872,0.244141,0.183105,0.000000
6900954791,0.00543213,0.00756836,-0.99334717,0.244141,0.183105,0.000000
6903488041,0.00543213,0.00756836,-0.99334717,0.061035,0.244141,-0.122070
6911051000,0.00511169,0.00611877,-0.99293518,0.061035,0.244141,-0.122070
6913530583,0.00511169,0.00611877,-0.99293518,-0.122070,-0.549316,-0.122070
6921119166,0.00468445,0.00643921,-0.99111938,-0.122070,-0.549316,-0.122070
6923641000,0.00468445,0.00643921,-0.99111938,0.122070,0.305176,-0.122070
6931211500,0.00444031,0.00550842,-0.97911072,0.122070,0.305176,-0.122070
6933736500,0.00444031,0.00550842,-0.97911072,-0.061035,0.244141,-0.183105
6943831791,0.00381470,0.00750732,-1.02409363,0.061035,0.061035,-0.183105
6951407791,0.00421143,0.00921631,-0.98274231,0.061035,0.061035,-0.183105
6953934666,0.00421143,0.00921631,-0.98274231,-0.244141,0.183105,-0.122070
6961325916,0.00292969,0.00854492,-0.99613953,-0.244141,0.183105,-0.122070
6963539541,0.00292969,0.00854492,-0.99613953,0.061035,0.183105,-0.061035
6973284083,0.00459290,0.01112366,-0.99429321,0.061035,0.427246,-0.061035
6980942208,0.00360107,0.01220703,-0.99951172,0.061035,0.427246,-0.061035
6982995625,0.00360107,0.01220703,-0.99951172,-0.061035,0.305176,-0.122070
6992969291,0.00422668,0.01269531,-0.98872375,0.122070,0.427246,0.000000
7002996833,0.00437927,0.00965881,-0.99174500,-0.244141,0.061035,0.000000
7013127000,0.00323486,0.00938416,-0.99694824,-0.183105,0.244141,0.061035
7022685875,0.00410461,0.00811768,-0.98840332,-0.122070,0.061035,-0.122070
7032815458,0.00418091,0.00689697,-0.99403381,-0.122070,0.122070,0.000000
7042964000,0.00514221,0.00665283,-0.99221802,-0.122070,0.122070,-0.183105
7052797666,0.00538635,0.00680542,-0.99349976,-0.366211,0.122070,0.000000
7062519666,0.00634766,0.00628662,-0.99156189,0.122070,0.305176,-0.122070
7072635458,0.00764465,0.00593567,-0.99575806,-0.122070,0.244141,-0.122070
7082462000,0.00613403,0.00628662,-0.98828125,0.000000,0.061035,-0.183105
7092342333,0.00465393,0.00756836,-0.99754333,-0.122070,0.183105,-0.183105
7102494666,0.00392151,0.00816345,-0.99284363,0.061035,0.244141,-0.183105
7112377250,0.00302124,0.00910950,-0.99313354,0.000000,0.061035,-0.122070
7122515166,0.00125122,0.01115417,-0.99543762,-0.061035,0.244141,-0.061035
7132666125,0.00234985,0.01075745,-0.99385071,0.000000,0.122070,-0.122070
7142404541,0.00321960,0.01065063,-0.99340820,0.183105,0.122070,-0.061035
7152177791,0.00370789,0.01025391,-0.99342346,0.183105,0.122070,-0.061035
7154731791,0.00370789,0.01025391,-0.99342346,0.061035,0.183105,-0.061035
7162393750,0.00402832,0.01014709,-0.99339294,0.122070,0.305176,-0.183105
7172531625,0.00352478,0.00918579,-0.99360657,0.122070,0.244141,-0.061035
7182697458,0.00698853,0.00814819,-0.99121094,0.061035,0.244141,-0.122070
7192542666,0.00668335,0.00691223,-0.99516296,0.183105,0.244141,-0.122070
7202672208,0.00743103,0.00582886,-0.99291992,0.183105,0.244141,-0.122070
7204868666,0.00743103,0.00582886,-0.99291992,0.122070,0.122070,-0.122070
7212449000,0.00677490,0.00538635,-0.99301147,0.122070,0.122070,-0.122070
7214736250,0.00677490,0.00538635,-0.99301147,0.000000,0.183105,-0.122070
7222297208,0.00488281,0.00622559,-0.99290466,0.000000,0.183105,-0.122070
7224852583,0.00488281,0.00622559,-0.99290466,0.061035,0.122070,-0.122070
7232516208,0.00445557,0.00822449,-0.99453735,0.061035,0.122070,-0.122070
7235069083,0.00445557,0.00822449,-0.99453735,0.183105,0.183105,-0.122070
7242677666,0.00343323,0.00965881,-0.99333191,0.183105,0.183105,-0.122070
7244816541,0.00343323,0.00965881,-0.99333191,0.305176,0.122070,-0.061035
7252420208,0.00221252,0.00987244,-0.99427795,0.305176,0.122070,-0.061035
7254978541,0.00221252,0.00987244,-0.99427795,0.122070,0.183105,-0.061035
7262575583,0.00286865,0.01123047,-0.99504089,0.122070,0.183105,-0.061035
7265113625,0.00286865,0.01123047,-0.99504089,0.183105,0.183105,-0.061035
7272707583,0.00404358,0.01123047,-0.99324036,0.183105,0.183105,-0.061035
7275251041,0.00404358,0.01123047,-0.99324036,0.061035,0.061035,-0.061035
7282898041,0.00503540,0.01081848,-0.99372864,0.000000,0.183105,-0.061035
7292727208,0.00585938,0.00976562,-0.99438477,0.000000,0.183105,-0.061035
7295266125,0.00585938,0.00976562,-0.99438477,0.244141,0.305176,-0.061035
7302902458,0.00531006,0.00817871,-0.99305725,0.366211,0.061035,-0.061035
7312941333,0.00515747,0.00717163,-0.99290466,0.183105,0.183105,-0.061035
7322815750,0.00485229,0.00691223,-0.99252319,0.183105,0.183105,-0.061035
7325359041,0.00485229,0.00691223,-0.99252319,0.244141,0.366211,-0.183105
7332871833,0.00556946,0.00711060,-0.99479675,0.183105,0.244141,-0.122070
7343021041,0.00624084,0.00688171,-0.99389648,0.122070,0.061035,-0.183105
7353101000,0.00564575,0.00711060,-0.99349976,0.122070,0.183105,-0.122070
7363249208,0.00764465,0.00769043,-0.99227905,0.183105,0.244141,-0.183105
7373269833,0.00711060,0.00772095,-0.99551392,0.244141,0.122070,-0.183105
7383071000,0.00581360,0.00776672,-0.99201965,0.244141,0.061035,-0.183105
7393212250,0.00469971,0.00694275,-0.99278259,0.305176,0.183105,-0.122070
7403299750,0.00502014,0.00752258,-0.99482727,0.183105,0.244141,-0.122070
7413415916,0.00379944,0.00938416,-0.99261475,0.183105,0.244141,-0.122070
7423552750,0.00389099,0.00981140,-0.99386597,0.427246,0.061035,-0.122070
7433678708,0.00419617,0.01025391,-0.99166870,0.305176,0.183105,-0.061035
7443808791,0.00421143,0.01055908,-0.99389648,0.305176,0.244141,-0.061035
7453557875,0.00453186,0.01077271,-0.99368286,-0.061035,0.244141,0.000000
7463404708,0.00428772,0.01022339,-1.00024414,-0.061035,0.305176,-0.122070
7473552666,0.00547791,0.01086426,-0.99127197,0.122070,0.244141,-0.122070
7483697500,0.00369263,0.00982666,-0.98995972,0.122070,0.000000,-0.061035
7493453291,0.00280762,0.00924683,-0.99276733,0.244141,0.122070,-0.061035
7503572291,0.00260925,0.00828552,-0.99449158,0.183105,0.305176,-0.122070
7513695041,0.00341797,0.00764465,-0.99374390,0.122070,0.061035,0.000000
7523495500,0.00502014,0.00781250,-0.99388123,0.183105,0.183105,0.061035
7532718791,0.00543213,0.00825500,-0.99313354,0.183105,0.183105,0.061035
7534770833,0.00543213,0.00825500,-0.99313354,0.122070,0.122070,-0.061035
7542398833,0.00628662,0.00830078,-0.99234009,0.122070,0.122070,-0.061035
7544925500,0.00628662,0.00830078,-0.99234009,0.183105,0.244141,0.000000
7552557416,0.00691223,0.00807190,-0.99316406,0.183105,0.244141,0.000000
7555105833,0.00691223,0.00807190,-0.99316406,0.122070,0.183105,-0.061035
7562681083,0.00654602,0.00733948,-0.99391174,0.122070,0.183105,-0.061035
7565226166,0.00654602,0.00733948,-0.99391174,0.000000,0.122070,-0.122070
7572820958,0.00685120,0.00704956,-0.99333191,0.000000,0.122070,-0.122070
7575365125,0.00685120,0.00704956,-0.99333191,0.122070,0.183105,-0.061035
7582577375,0.00549316,0.00714111,-0.99487305,0.122070,0.183105,-0.061035
7585119791,0.00549316,0.00714111,-0.99487305,0.061035,0.061035,-0.061035
7592293750,0.00512695,0.00643921,-0.99267578,0.061035,0.061035,-0.061035
7594417916,0.00512695,0.00643921,-0.99267578,0.061035,0.122070,-0.183105
7604344500,0.00596619,0.00695801,-0.99345398,0.000000,0.183105,-0.122070
7614529083,0.00588989,0.00680542,-0.99302673,0.061035,0.244141,-0.122070
7624267541,0.00450134,0.00804138,-0.99409485,0.000000,0.183105,-0.061035
7633846291,0.00352478,0.00993347,-0.99391174,0.183105,0.183105,-0.122070
7643956125,0.00292969,0.01121521,-0.99353027,0.366211,1.098633,-0.122070
7654106333,0.00338745,0.01069641,-0.98710632,-0.244141,-0.122070,-0.061035
7664279833,0.00453186,0.00823975,-0.99011230,0.549316,-0.061035,-0.122070
7674313208,0.00509644,0.00891113,-1.01528931,-0.488281,0.244141,0.061035
7684472000,0.00325012,0.00663757,-0.98338318,0.244141,0.000000,-0.061035
7694462083,0.00534058,0.00715637,-0.99459839,-0.183105,0.183105,-0.061035
7703705291,0.00726318,0.00642395,-0.99440002,-0.183105,0.183105,-0.061035
7706276666,0.00726318,0.00642395,-0.99440002,-0.122070,0.183105,0.000000
7713874708,0.00469971,0.00605774,-0.98942566,-0.244141,0.183105,-0.061035
7723769625,0.00489807,0.00799561,-0.99633789,-0.244141,0.183105,-0.061035
7726324916,0.00489807,0.00799561,-0.99633789,0.244141,0.305176,-0.061035
7733553083,0.00500488,0.00709534,-0.98846436,0.244141,0.305176,-0.061035
7736155833,0.00500488,0.00709534,-0.98846436,0.061035,0.000000,-0.061035
7743764000,0.00546265,0.00907898,-0.99555969,0.061035,0.000000,-0.061035
7746308541,0.00546265,0.00907898,-0.99555969,0.061035,0.183105,0.000000
7753208333,0.00607300,0.01026917,-0.99250793,0.061035,0.183105,0.000000
7755773333,0.00607300,0.01026917,-0.99250793,0.061035,0.183105,-0.183105
7763371375,0.00558472,0.00839233,-0.99374390,0.061035,0.183105,-0.183105
7765819958,0.00558472,0.00839233,-0.99374390,0.061035,0.183105,-0.061035
7773444958,0.00390625,0.00965881,-0.99272156,0.061035,0.183105,-0.061035
7775994125,0.00390625,0.00965881,-0.99272156,0.000000,0.183105,-0.122070
7783588125,0.00393677,0.00895691,-0.99342346,0.000000,0.183105,-0.122070
7786130625,0.00393677,0.00895691,-0.99342346,0.061035,0.244141,0.000000
7793730000,0.00375366,0.00750732,-0.99478149,0.061035,0.244141,0.000000
7795979916,0.00375366,0.00750732,-0.99478149,0.000000,0.183105,-0.244141
7803573625,0.00335693,0.00680542,-0.99281311,0.000000,0.183105,-0.244141
7806113291,0.00335693,0.00680542,-0.99281311,-0.061035,0.366211,-0.061035
7813705125,0.00424194,0.00814819,-0.99366760,-0.061035,0.366211,-0.061035
7815972250,0.00424194,0.00814819,-0.99366760,0.000000,0.244141,-0.061035
7823591250,0.00506592,0.00918579,-0.99426270,0.000000,0.244141,-0.061035
7826135750,0.00506592,0.00918579,-0.99426270,-0.183105,0.122070,-0.122070
7833321958,0.00524902,0.00807190,-0.99288940,-0.183105,0.122070,-0.122070
7835357791,0.00524902,0.00807190,-0.99288940,-0.061035,0.183105,-0.061035
7842903291,0.00509644,0.00811768,-0.99308777,-0.061035,0.183105,-0.061035
7845421791,0.00509644,0.00811768,-0.99308777,-0.122070,0.122070,-0.061035
7853025833,0.00581360,0.00909424,-0.99491882,-0.122070,0.122070,-0.061035
7855554500,0.00581360,0.00909424,-0.99491882,-0.122070,0.244141,-0.122070
7864840166,0.00640869,0.00886536,-0.99281311,-0.061035,0.061035,-0.122070
7874571000,0.00569153,0.00790405,-0.99198914,-0.122070,0.244141,-0.183105
7884474458,0.00514221,0.00816345,-0.99304199,-0.244141,0.122070,-0.183105
7894629208,0.00520325,0.00909424,-0.99259949,-0.183105,0.061035,-0.183105
7904836750,0.00418091,0.00846863,-0.99256897,-0.122070,0.061035,-0.122070
7914988458,0.00314331,0.00897217,-0.99328613,-0.122070,0.244141,-0.122070
7924786750,0.00331116,0.00955200,-0.99411011,0.000000,0.122070,0.000000
7934905791,0.00482178,0.00868225,-0.99235535,-0.183105,0.183105,-0.061035
7945030333,0.00540161,0.00791931,-0.99475098,0.061035,0.183105,-0.061035
7955155083,0.00506592,0.00787354,-0.99331665,-0.122070,0.061035,-0.183105
7965363541,0.00563049,0.00794983,-0.99253845,0.000000,0.305176,-0.122070
7973076125,0.00512695,0.00720215,-0.99252319,0.000000,0.305176,-0.122070
7975620333,0.00512695,0.00720215,-0.99252319,0.122070,0.122070,0.000000
7983203250,0.00473022,0.00730896,-0.99369812,0.122070,0.122070,0.000000
7985747458,0.00473022,0.00730896,-0.99369812,0.061035,0.305176,0.000000
7993311791,0.00395203,0.00875854,-0.99346924,0.061035,0.305176,0.000000
7995853416,0.00395203,0.00875854,-0.99346924,0.122070,0.183105,-0.122070
8003413083,0.00411987,0.00787354,-0.99368286,0.122070,0.183105,-0.122070
8005947750,0.00411987,0.00787354,-0.99368286,-0.122070,0.183105,-0.183105
8013618125,0.00625610,0.00729370,-0.99548340,-0.122070,0.183105,-0.183105
8016142416,0.00625610,0.00729370,-0.99548340,0.000000,0.244141,-0.122070
8023312833,0.00573730,0.00796509,-0.99331665,0.000000,0.244141,-0.122070
8025854041,0.00573730,0.00796509,-0.99331665,-0.061035,0.183105,-0.061035
8033120833,0.00648499,0.00871277,-0.99462891,-0.061035,0.183105,-0.061035
8035675500,0.00648499,0.00871277,-0.99462891,-0.061035,0.305176,-0.122070
8043142416,0.00572205,0.00851440,-0.99296570,-0.061035,0.305176,-0.122070
8045680958,0.00572205,0.00851440,-0.99296570,0.061035,0.305176,-0.183105
8053279916,0.00401306,0.00805664,-0.99290466,0.061035,0.305176,-0.183105
8055820416,0.00401306,0.00805664,-0.99290466,0.000000,0.183105,-0.122070
8063436166,0.00405884,0.00874329,-0.99403381,0.000000,0.183105,-0.122070
8065975833,0.00405884,0.00874329,-0.99403381,0.061035,0.305176,-0.244141
8073260041,0.00482178,0.00878906,-0.99214172,0.061035,0.305176,-0.244141
8075801416,0.00482178,0.00878906,-0.99214172,0.061035,0.183105,0.000000
8083385583,0.00372314,0.00923157,-0.99325562,0.061035,0.183105,0.000000
8085913375,0.00372314,0.00923157,-0.99325562,0.061035,0.244141,-0.183105
8093498041,0.00555420,0.00959778,-0.99397278,0.061035,0.244141,-0.183105
8095871125,0.00555420,0.00959778,-0.99397278,0.000000,0.183105,-0.122070
8103489583,0.00524902,0.00946045,-0.99389648,0.000000,0.183105,-0.122070
8106046666,0.00524902,0.00946045,-0.99389648,0.122070,0.183105,-0.183105
8113664833,0.00476074,0.00849915,-0.99327087,0.122070,0.183105,-0.183105
8116216625,0.00476074,0.00849915,-0.99327087,-0.061035,0.122070,-0.183105
8123649125,0.00573730,0.00772095,-0.99238586,-0.061035,0.122070,-0.183105
8126173625,0.00573730,0.00772095,-0.99238586,0.000000,0.183105,-0.122070
8133508291,0.00521851,0.00740051,-0.99389648,0.000000,0.183105,-0.122070
8136045125,0.00521851,0.00740051,-0.99389648,0.000000,0.122070,0.061035
8145666208,0.00598145,0.00796509,-0.99293518,0.000000,0.061035,-0.122070
8155787166,0.00608826,0.00856018,-0.99342346,0.000000,0.183105,-0.183105
8163405333,0.00582886,0.00801086,-0.99285889,0.000000,0.183105,-0.183105
8165488583,0.00582886,0.00801086,-0.99285889,0.061035,0.305176,0.000000
8175027000,0.00497437,0.00947571,-0.99423218,0.061035,0.183105,-0.183105
8185156375,0.00509644,0.00973511,-0.99334717,0.122070,0.122070,-0.122070
8195292250,0.00421143,0.00772095,-0.99256897,0.183105,0.183105,-0.122070
8205451583,0.00486755,0.00816345,-0.99301147,0.122070,0.244141,-0.061035
8215375208,0.00622559,0.00921631,-0.99282837,0.244141,0.244141,-0.122070
8224874958,0.00645447,0.00790405,-0.99349976,0.183105,0.244141,-0.122070
8235011041,0.00480652,0.00799561,-0.99340820,0.122070,0.122070,-0.122070
8244850083,0.00531006,0.00788879,-0.99418640,0.122070,0.244141,-0.122070
8254997041,0.00398254,0.00765991,-0.99327087,0.305176,0.183105,-0.183105
8265071000,0.00338745,0.00779724,-0.99227905,0.122070,0.183105,0.000000
8275203791,0.00415039,0.00872803,-0.99420166,0.000000,0.183105,-0.122070
8285305791,0.00448608,0.01019287,-0.99273682,0.244141,0.183105,-0.061035
8295318833,0.00469971,0.01072693,-0.99374390,0.244141,0.244141,-0.183105
8305294458,0.00442505,0.01152039,-0.99336243,0.183105,0.183105,-0.122070
8315441083,0.00433350,0.01058960,-0.99409485,0.244141,0.305176,0.000000
8325586000,0.00439453,0.01004028,-0.99421692,0.244141,0.183105,-0.061035
8335536916,0.00402832,0.01060486,-0.99424744,0.305176,0.244141,-0.061035
8345683291,0.00424194,0.00985718,-0.99172974,0.305176,0.244141,-0.122070
8355807833,0.00300598,0.00964355,-0.99345398,0.427246,0.305176,-0.061035
8365676958,0.00405884,0.00907898,-0.99224854,0.305176,0.183105,0.061035
8375648750,0.00474548,0.00837708,-0.99276733,0.305176,0.244141,-0.183105
8385440000,0.00534058,0.00695801,-0.99766541,0.366211,0.244141,0.061035
8395482583,0.00619507,0.00694275,-0.99346924,0.183105,0.183105,-0.061035
8405619625,0.00634766,0.00804138,-0.99468994,0.244141,0.122070,-0.122070
8415277875,0.00718689,0.00743103,-0.99382019,0.244141,0.244141,-0.122070
8425395916,0.00700378,0.00685120,-0.99284363,0.122070,0.122070,-0.122070
8435530916,0.00592041,0.00856018,-0.99372864,0.244141,0.122070,-0.122070
8445327833,0.00538635,0.00741577,-0.99398804,0.183105,0.183105,-0.183105
8455268750,0.00511169,0.00648499,-0.99266052,0.183105,0.122070,0.000000
8464903291,0.00518799,0.00665283,-0.99200439,0.183105,0.122070,0.000000
8467451708,0.00518799,0.00665283,-0.99200439,0.244141,0.244141,-0.183105
8474942208,0.00491333,0.00668335,-0.99348450,0.244141,0.244141,-0.183105
8477492541,0.00491333,0.00668335,-0.99348450,0.000000,0.183105,-0.061035
8484858625,0.00498962,0.00666809,-0.99356079,0.000000,0.183105,-0.061035
8487402416,0.00498962,0.00666809,-0.99356079,0.061035,0.244141,-0.244141
8494996916,0.00425720,0.00825500,-0.99296570,0.061035,0.244141,-0.244141
8497538583,0.00425720,0.00825500,-0.99296570,0.122070,0.183105,0.000000
8505128291,0.00537109,0.00901794,-0.99371338,0.122070,0.183105,0.000000
8507670375,0.00537109,0.00901794,-0.99371338,0.061035,0.244141,-0.061035
8515279625,0.00523376,0.00822449,-0.99383545,0.061035,0.244141,-0.061035
8517855125,0.00523376,0.00822449,-0.99383545,0.000000,0.061035,0.000000
8525434333,0.00402832,0.00846863,-0.99523926,0.000000,0.061035,0.000000
8527980416,0.00402832,0.00846863,-0.99523926,-0.061035,0.244141,-0.122070
8535210875,0.00376892,0.00892639,-0.99313354,-0.061035,0.244141,-0.122070
8537755333,0.00376892,0.00892639,-0.99313354,-0.122070,0.244141,0.000000
8545115958,0.00460815,0.00930786,-0.99436951,-0.122070,0.244141,0.000000
8547665666,0.00460815,0.00930786,-0.99436951,0.000000,0.183105,-0.061035
8554820250,0.00459290,0.00990295,-0.99340820,0.000000,0.183105,-0.061035
8557384291,0.00459290,0.00990295,-0.99340820,0.061035,0.122070,-0.122070
8564982041,0.00311279,0.00941467,-0.99330139,0.061035,0.122070,-0.122070
8567521208,0.00311279,0.00941467,-0.99330139,-0.122070,0.122070,-0.061035
8575104291,0.00517273,0.00825500,-0.99397278,-0.122070,0.122070,-0.061035
8577637416,0.00517273,0.00825500,-0.99397278,-0.061035,0.122070,-0.122070
8585218791,0.00587463,0.00791931,-0.99394226,-0.061035,0.122070,-0.122070
8587752083,0.00587463,0.00791931,-0.99394226,0.000000,0.183105,-0.122070
8595372000,0.00466919,0.00790405,-0.99395752,0.000000,0.183105,-0.122070
8597928791,0.00466919,0.00790405,-0.99395752,0.000000,0.183105,-0.061035
8605297416,0.00465393,0.00889587,-0.99316406,0.000000,0.183105,-0.061035
8607841083,0.00465393,0.00889587,-0.99316406,0.000000,0.122070,-0.122070
8615444541,0.00517273,0.00802612,-0.99363708,0.000000,0.122070,-0.122070
8617992875,0.00517273,0.00802612,-0.99363708,0.122070,0.122070,0.000000
8625468000,0.00561523,0.00886536,-0.99365234,0.122070,0.122070,0.000000
8628032291,0.00561523,0.00886536,-0.99365234,0.000000,0.183105,-0.061035
8635625125,0.00488281,0.00830078,-0.99435425,0.000000,0.183105,-0.061035
8638226750,0.00488281,0.00830078,-0.99435425,0.000000,0.183105,-0.061035
8645861541,0.00445557,0.00778198,-0.99363708,0.000000,0.183105,-0.061035
8648413583,0.00445557,0.00778198,-0.99363708,0.000000,0.122070,-0.061035
8655962500,0.00411987,0.00753784,-0.99336243,0.000000,0.183105,-0.183105
8665349833,0.00471497,0.00711060,-0.99322510,0.000000,0.183105,-0.183105
8667893583,0.00471497,0.00711060,-0.99322510,0.122070,0.122070,-0.122070
8675491166,0.00537109,0.00814819,-0.99250793,0.122070,0.122070,-0.122070
8678034583,0.00537109,0.00814819,-0.99250793,0.122070,0.244141,-0.122070
8685624458,0.00422668,0.00747681,-0.99319458,0.122070,0.244141,-0.122070
8688158666,0.00422668,0.00747681,-0.99319458,0.000000,0.122070,-0.183105
8695780458,0.00509644,0.00918579,-0.99235535,0.000000,0.122070,-0.183105
8698157250,0.00509644,0.00918579,-0.99235535,0.122070,0.000000,-0.061035
8705256000,0.00588989,0.00975037,-0.99479675,0.122070,0.000000,-0.061035
8707800625,0.00588989,0.00975037,-0.99479675,0.000000,0.061035,-0.061035
8715390125,0.00581360,0.00938416,-0.99420166,0.000000,0.061035,-0.061035
8717928541,0.00581360,0.00938416,-0.99420166,0.000000,0.122070,-0.061035
8725517958,0.00599670,0.00959778,-0.99369812,0.000000,0.122070,-0.061035
8728055875,0.00599670,0.00959778,-0.99369812,0.061035,0.122070,-0.061035
8735654083,0.00462341,0.00895691,-0.99211121,0.061035,0.122070,-0.061035
8738194500,0.00462341,0.00895691,-0.99211121,0.061035,0.244141,-0.122070
8745317875,0.00442505,0.00881958,-0.99371338,0.061035,0.244141,-0.122070
8747859875,0.00442505,0.00881958,-0.99371338,0.061035,0.183105,-0.122070
8755465083,0.00527954,0.00744629,-0.99305725,0.061035,0.183105,-0.122070
8757996375,0.00527954,0.00744629,-0.99305725,0.000000,0.244141,-0.183105
8767340708,0.00454712,0.00706482,-0.99249268,0.000000,0.183105,0.000000
8774993083,0.00509644,0.00737000,-0.99484253,0.000000,0.183105,0.000000
8777574291,0.00509644,0.00737000,-0.99484253,-0.061035,0.122070,-0.122070
8785207416,0.00581360,0.00823975,-0.99406433,-0.061035,0.122070,-0.122070
8787755250,0.00581360,0.00823975,-0.99406433,0.000000,0.183105,0.000000
8795316250,0.00509644,0.00883484,-0.99368286,0.000000,0.183105,0.000000
8797866166,0.00509644,0.00883484,-0.99368286,0.061035,0.061035,-0.061035
8804895125,0.00575256,0.00929260,-0.99385071,0.061035,0.061035,-0.061035
8807259250,0.00575256,0.00929260,-0.99385071,0.061035,0.122070,-0.122070
8816745708,0.00480652,0.00990295,-0.99383545,-0.061035,0.183105,-0.183105
8826900750,0.00355530,0.00874329,-0.99436951,0.000000,0.061035,-0.061035
8837066250,0.00448608,0.00834656,-0.99256897,0.122070,0.244141,-0.061035
8847196416,0.00518799,0.00805664,-0.99450684,-0.061035,0.183105,-0.061035
8857340416,0.00459290,0.00794983,-0.99279785,0.000000,0.122070,-0.122070
8867408250,0.00500488,0.00712585,-0.99302673,-0.061035,0.183105,-0.122070
8875038791,0.00552368,0.00807190,-0.99356079,-0.061035,0.183105,-0.122070
8877593666,0.00552368,0.00807190,-0.99356079,0.000000,0.183105,-0.061035
8885025125,0.00500488,0.00881958,-0.99497986,0.000000,0.183105,-0.061035
8887565666,0.00500488,0.00881958,-0.99497986,-0.122070,0.122070,-0.244141
8895168541,0.00480652,0.00979614,-0.99411011,-0.122070,0.122070,-0.244141
8897725666,0.00480652,0.00979614,-0.99411011,0.061035,0.122070,-0.061035
8905336416,0.00566101,0.00888062,-0.99316406,0.061035,0.122070,-0.061035
8907920625,0.00566101,0.00888062,-0.99316406,0.000000,0.244141,-0.122070
8915416375,0.00564575,0.00900269,-0.99206543,0.000000,0.244141,-0.122070
8917944958,0.00564575,0.00900269,-0.99206543,0.061035,0.244141,-0.122070
8925497458,0.00482178,0.00759888,-0.99360657,0.061035,0.244141,-0.122070
8928017916,0.00482178,0.00759888,-0.99360657,0.061035,0.000000,-0.183105
8935374666,0.00447083,0.00778198,-0.99395752,0.061035,0.000000,-0.183105
8937918041,0.00447083,0.00778198,-0.99395752,0.122070,0.122070,-0.122070
8945502916,0.00514221,0.00640869,-0.99296570,0.122070,0.122070,-0.122070
8948049708,0.00514221,0.00640869,-0.99296570,0.122070,0.122070,-0.061035
8957870291,0.00492859,0.00729370,-0.99476624,0.061035,0.122070,-0.244141
8965502958,0.00483704,0.00869751,-0.99441528,0.061035,0.122070,-0.244141
8968056416,0.00483704,0.00869751,-0.99441528,0.122070,0.183105,-0.122070
8975663958,0.00440979,0.00895691,-0.99311829,0.122070,0.183105,-0.122070
8978213125,0.00440979,0.00895691,-0.99311829,0.000000,0.244141,0.000000
8985322458,0.00520325,0.01017761,-0.99366760,0.000000,0.244141,0.000000
8987880791,0.00520325,0.01017761,-0.99366760,0.122070,0.244141,-0.122070
8995332333,0.00596619,0.01023865,-0.99505615,0.122070,0.244141,-0.122070
8997898416,0.00596619,0.01023865,-0.99505615,0.122070,0.061035,-0.061035
9007519458,0.00512695,0.00883484,-0.99275208,0.000000,0.305176,-0.183105
9017641416,0.00469971,0.00923157,-0.99348450,0.183105,0.183105,-0.061035
9027340333,0.00469971,0.00819397,-0.99467468,0.122070,0.122070,-0.122070
9036818333,0.00468445,0.00744629,-0.99346924,0.122070,0.122070,-0.122070
9039374875,0.00468445,0.00744629,-0.99346924,0.000000,0.122070,0.000000
9046074083,0.00503540,0.00723267,-0.99385071,0.000000,0.122070,0.000000
9048624000,0.00503540,0.00723267,-0.99385071,0.183105,0.244141,-0.122070
9056225625,0.00483704,0.00701904,-0.99186707,0.183105,0.244141,-0.122070
9058770041,0.00483704,0.00701904,-0.99186707,0.122070,0.305176,-0.122070
9066196250,0.00495911,0.00772095,-0.99343872,0.122070,0.305176,-0.122070
9068728916,0.00495911,0.00772095,-0.99343872,0.122070,0.183105,-0.122070
9076298625,0.00648499,0.00854492,-0.99502563,0.122070,0.183105,-0.122070
9078830875,0.00648499,0.00854492,-0.99502563,0.122070,0.122070,-0.122070
9086423375,0.00671387,0.00866699,-0.99313354,0.122070,0.122070,-0.122070
9088976833,0.00671387,0.00866699,-0.99313354,0.000000,0.244141,-0.183105
9096170958,0.00575256,0.00811768,-0.99394226,0.000000,0.244141,-0.183105
9098713958,0.00575256,0.00811768,-0.99394226,0.122070,0.183105,-0.122070
9106304958,0.00407410,0.00836182,-0.99382019,0.122070,0.183105,-0.122070
9108848083,0.00407410,0.00836182,-0.99382019,0.122070,0.183105,-0.122070
9116428500,0.00390625,0.00810242,-0.99230957,0.122070,0.183105,-0.122070
9118965458,0.00390625,0.00810242,-0.99230957,0.244141,-0.061035,-0.122070
9126053375,0.00392151,0.00881958,-0.98928833,0.244141,-0.061035,-0.122070
9128614500,0.00392151,0.00881958,-0.98928833,0.366211,0.671387,-0.244141
9136036291,0.00389099,0.00807190,-0.97135925,0.366211,0.671387,-0.244141
9138579541,0.00389099,0.00807190,-0.97135925,0.366211,0.122070,-0.061035
9148030458,0.00596619,0.00846863,-1.02810669,-0.366211,0.122070,-0.122070
9158179166,0.00582886,0.00932312,-0.98135376,0.122070,0.183105,-0.122070
9167410916,0.00312805,0.00982666,-1.01315308,-0.183105,0.305176,-0.061035
9177548833,0.00263977,0.01133728,-0.98083496,0.427246,0.610352,-0.183105
9187436666,0.00187683,0.00999451,-0.99411011,-0.305176,0.122070,-0.061035
9197023333,0.00419617,0.01095581,-0.99658203,0.244141,0.183105,-0.183105
9207150083,0.00538635,0.00927734,-0.98686218,-0.183105,0.183105,-0.122070
9217275625,0.00511169,0.00834656,-0.99420166,0.305176,0.183105,-0.061035
9227415750,0.00558472,0.00624084,-0.99418640,0.000000,0.061035,-0.122070
9237524333,0.00534058,0.00520325,-0.99482727,0.122070,0.244141,-0.183105
9247653666,0.00642395,0.00657654,-0.99241638,0.122070,0.183105,-0.122070
9257797875,0.00579834,0.00688171,-0.99313354,0.061035,0.122070,-0.183105
9267909500,0.00584412,0.00804138,-0.99215698,0.183105,0.061035,-0.244141
9278005958,0.00605774,0.00881958,-0.99505615,0.000000,0.244141,-0.061035
9288119875,0.00537109,0.00921631,-0.99217224,0.061035,0.244141,-0.183105
9298287125,0.00418091,0.01020813,-0.99598694,0.000000,0.183105,0.000000
9308445125,0.00305176,0.01026917,-0.99356079,0.427246,-0.549316,-0.244141
9316001333,0.00343323,0.00917053,-0.98831177,0.427246,-0.549316,-0.244141
9318561291,0.00343323,0.00917053,-0.98831177,0.000000,0.610352,-0.122070
9328488583,0.00405884,0.00904846,-0.98106384,0.488281,-0.183105,0.000000
9336117333,0.00566101,0.00991821,-1.02087402,0.488281,-0.183105,0.000000
9338577041,0.00566101,0.00991821,-1.02087402,-0.305176,0.244141,-0.061035
9346087458,0.00584412,0.00854492,-0.97903442,-0.305176,0.244141,-0.061035
9348671791,0.00584412,0.00854492,-0.97903442,0.122070,0.244141,-0.061035
9358364458,0.00514221,0.00817871,-1.00259399,-0.122070,0.366211,-0.122070
9368197541,0.00473022,0.01019287,-0.99049377,0.183105,0.671387,0.061035
9378154791,0.00248718,0.00907898,-0.99258423,-0.244141,0.244141,0.000000
9388323416,0.00350952,0.00999451,-0.99380493,0.244141,0.183105,-0.061035
9398202625,0.00415039,0.00942993,-0.99076843,-0.061035,0.183105,-0.061035
9407879916,0.00440979,0.00959778,-0.99385071,0.122070,0.122070,-0.122070
9418028791,0.00514221,0.00996399,-0.99345398,0.000000,0.061035,-0.122070
9428167708,0.00468445,0.00811768,-0.99195862,-0.061035,0.061035,-0.061035
9437831541,0.00505066,0.00765991,-0.99357605,0.061035,0.183105,-0.061035
9447944333,0.00708008,0.00759888,-0.99356079,0.000000,0.244141,0.000000
9458085958,0.00691223,0.00611877,-0.99375916,0.122070,0.000000,-0.122070
9467868375,0.00679016,0.00558472,-0.99203491,0.122070,0.000000,-0.122070
9470420500,0.00679016,0.00558472,-0.99203491,0.061035,0.061035,-0.061035
9478046291,0.00714111,0.00585938,-0.98933411,0.122070,0.061035,-0.122070
9488171250,0.00599670,0.00611877,-0.99879456,0.244141,0.061035,-0.305176
9498331833,0.00494385,0.00765991,-0.98687744,-0.244141,0.305176,-0.183105
9508498583,0.00399780,0.00997925,-1.00152588,0.000000,0.244141,-0.061035
9518657375,0.00344849,0.01049805,-0.99334717,-0.061035,0.183105,-0.122070
9528591000,0.00189209,0.00973511,-0.99261475,0.000000,0.183105,-0.061035
9538449958,0.00201416,0.01141357,-0.99307251,0.061035,0.244141,0.000000
9548316458,0.00256348,0.01014709,-0.99435425,0.061035,0.305176,-0.183105
9557981750,0.00398254,0.01097107,-0.99218750,0.305176,0.305176,0.000000
9568113583,0.00598145,0.00885010,-0.99234009,0.183105,0.122070,-0.061035
9578215750,0.00646973,0.00735474,-0.99485779,0.000000,0.366211,0.000000
9587784000,0.00758362,0.00784302,-0.99299622,0.000000,0.366211,0.000000
9590314000,0.00758362,0.00784302,-0.99299622,0.061035,0.305176,-0.122070
9597892541,0.00637817,0.00738525,-0.99591064,0.244141,0.244141,-0.183105
9608017916,0.00564575,0.00764465,-0.99069214,0.061035,0.244141,-0.061035
9617970083,0.00509644,0.00712585,-0.99290466,0.122070,0.183105,-0.183105
9628119750,0.00448608,0.00715637,-0.99324036,0.000000,0.122070,-0.122070
9638262083,0.00344849,0.00802612,-0.99588013,0.061035,0.244141,-0.122070
9648437041,0.00480652,0.00804138,-0.99203491,0.183105,0.183105,-0.122070
9657849666,0.00476074,0.00933838,-0.99565125,0.183105,0.183105,-0.122070
9660447208,0.00476074,0.00933838,-0.99565125,0.061035,0.122070,-0.122070
9667873791,0.00486755,0.01066589,-0.99357605,0.061035,0.122070,-0.122070
9670456833,0.00486755,0.01066589,-0.99357605,0.122070,0.122070,-0.244141
9677867333,0.00646973,0.00997925,-0.99449158,0.122070,0.122070,-0.244141
9680415333,0.00646973,0.00997925,-0.99449158,0.122070,0.122070,0.000000
9687333666,0.00509644,0.01052856,-0.99342346,0.122070,0.122070,0.000000
9689869500,0.00509644,0.01052856,-0.99342346,0.061035,0.122070,-0.122070
9696941833,0.00477600,0.00901794,-0.99348450,0.061035,0.122070,-0.122070
9699264916,0.00477600,0.00901794,-0.99348450,0.183105,0.244141,-0.061035
9708946708,0.00526428,0.00871277,-0.99285889,0.244141,0.183105,-0.061035
9719062833,0.00570679,0.00741577,-0.99378967,0.244141,0.122070,-0.122070
9728962250,0.00663757,0.00602722,-0.99243164,0.183105,0.183105,-0.183105
9738736666,0.00636292,0.00593567,-0.99259949,0.122070,0.244141,-0.061035
9748032916,0.00498962,0.00723267,-0.99304199,0.122070,0.244141,-0.061035
9750588958,0.00498962,0.00723267,-0.99304199,0.000000,0.244141,-0.244141
9758243791,0.00532532,0.00735474,-0.99501038,0.061035,0.122070,-0.183105
9768379666,0.00463867,0.00810242,-0.99345398,0.122070,0.183105,-0.244141
9778535666,0.00389099,0.00907898,-0.99430847,0.366211,0.244141,-0.122070
9788678958,0.00433350,0.00878906,-0.99452209,0.000000,0.244141,-0.122070
9798401958,0.00395203,0.00921631,-0.99436951,0.000000,0.183105,-0.061035
9808533083,0.00439453,0.00967407,-0.99563599,0.183105,0.122070,-0.183105
9818661583,0.00488281,0.00987244,-0.99116516,0.061035,0.122070,0.000000
9828798500,0.00401306,0.00923157,-0.99290466,0.000000,0.122070,0.000000
9838888708,0.00457764,0.00872803,-0.99470520,0.183105,0.183105,0.000000
9848976083,0.00456238,0.00947571,-0.99317932,0.122070,0.061035,-0.183105
9858591666,0.00424194,0.00822449,-0.99299622,0.122070,0.061035,-0.183105
9861130916,0.00424194,0.00822449,-0.99299622,0.183105,0.122070,-0.183105
9868719000,0.00468445,0.00787354,-0.99246216,0.183105,0.122070,-0.183105
9871252583,0.00468445,0.00787354,-0.99246216,0.061035,0.061035,-0.122070
9878885416,0.00717163,0.00782776,-0.99415588,0.183105,0.183105,-0.122070
9888923041,0.00733948,0.00706482,-0.99279785,0.000000,0.183105,-0.061035
9899083791,0.00671387,0.00628662,-0.99310303,0.244141,0.061035,-0.183105
9908767458,0.00648499,0.00692749,-0.99325562,0.244141,0.061035,-0.183105
9911330125,0.00648499,0.00692749,-0.99325562,0.000000,0.244141,-0.305176
9918971458,0.00572205,0.00730896,-0.99385071,0.061035,0.122070,-0.061035
9928949750,0.00317383,0.00860596,-0.99365234,0.183105,0.488281,-0.183105
9939095166,0.00303650,0.00866699,-0.99136353,0.427246,0.244141,-0.244141
9948725500,0.00518799,0.00907898,-0.97642517,0.427246,0.244141,-0.244141
9951291208,0.00518799,0.00907898,-0.97642517,-0.061035,0.122070,-0.061035
9958799333,0.00396729,0.00901794,-1.01960754,-0.061035,0.122070,-0.061035
9960912125,0.00396729,0.00901794,-1.01960754,0.244141,0.000000,-0.122070
9968510916,0.00444031,0.00991821,-0.98678589,0.244141,0.000000,-0.122070
9971083625,0.00444031,0.00991821,-0.98678589,-0.244141,0.061035,-0.061035
9978678625,0.00407410,0.00856018,-0.99476624,-0.244141,0.061035,-0.061035
9981224083,0.00407410,0.00856018,-0.99476624,0.061035,0.122070,-0.122070
9988866958,0.00505066,0.00994873,-0.99742126,0.061035,0.122070,-0.122070
9991194666,0.00505066,0.00994873,-0.99742126,0.000000,-0.061035,0.000000
9998445041,0.00364685,0.01037598,-0.99230957,0.000000,-0.061035,0.000000
10000974208,0.00364685,0.01037598,-0.99230957,0.000000,0.122070,-0.122070
10008554083,0.00390625,0.00917053,-0.98905945,0.000000,0.122070,-0.122070
10011085833,0.00390625,0.00917053,-0.98905945,0.000000,0.183105,-0.183105
10018489666,0.00520325,0.00856018,-0.99314880,0.000000,0.183105,-0.183105
10020875541,0.00520325,0.00856018,-0.99314880,0.000000,0.122070,-0.061035
10028449416,0.00459290,0.00904846,-0.99285889,0.000000,0.122070,-0.061035
10030976375,0.00459290,0.00904846,-0.99285889,0.061035,0.183105,-0.061035
10038386041,0.00553894,0.00886536,-0.99484253,0.061035,0.183105,-0.061035
10040619875,0.00553894,0.00886536,-0.99484253,0.122070,0.183105,-0.061035
10048224916,0.00596619,0.00686646,-0.99291992,0.122070,0.183105,-0.061035
10050773333,0.00596619,0.00686646,-0.99291992,0.122070,0.122070,-0.183105
10058397291,0.00570679,0.00709534,-0.99472046,0.122070,0.122070,-0.183105
10060945625,0.00570679,0.00709534,-0.99472046,0.061035,0.183105,0.000000
10068437000,0.00700378,0.00733948,-0.99317932,0.061035,0.183105,0.000000
10070989791,0.00700378,0.00733948,-0.99317932,-0.122070,0.122070,-0.122070
10078596041,0.00614929,0.00718689,-0.99531555,-0.122070,0.122070,-0.122070
10081136500,0.00614929,0.00718689,-0.99531555,0.000000,0.122070,-0.122070
10088743041,0.00550842,0.00791931,-0.99581909,0.000000,0.122070,-0.122070
10091294958,0.00550842,0.00791931,-0.99581909,0.061035,0.122070,-0.061035
10098917666,0.00476074,0.00895691,-0.99211121,0.061035,0.122070,-0.061035
10101283208,0.00476074,0.00895691,-0.99211121,0.061035,0.122070,-0.061035
10108909833,0.00500488,0.00868225,-0.99375916,0.061035,0.122070,-0.061035
10111473875,0.00500488,0.00868225,-0.99375916,-0.061035,0.183105,-0.061035
10118725500,0.00439453,0.00898743,-0.99108887,-0.061035,0.183105,-0.061035
10121275208,0.00439453,0.00898743,-0.99108887,0.000000,0.061035,-0.061035
10128538416,0.00437927,0.00856018,-0.99455261,0.000000,0.061035,-0.061035
10130940083,0.00437927,0.00856018,-0.99455261,0.000000,0.183105,-0.061035
10138191625,0.00440979,0.00819397,-0.99255371,0.000000,0.183105,-0.061035
10140610625,0.00440979,0.00819397,-0.99255371,0.000000,0.061035,-0.183105
10148012916,0.00317383,0.00836182,-0.99502563,0.000000,0.061035,-0.183105
10150462583,0.00317383,0.00836182,-0.99502563,0.061035,0.305176,-0.061035
10158037416,0.00398254,0.00886536,-0.99252319,0.061035,0.305176,-0.061035
10160569750,0.00398254,0.00886536,-0.99252319,0.122070,0.183105,-0.122070
10168176708,0.00578308,0.00856018,-0.99302673,0.122070,0.183105,-0.122070
10170709958,0.00578308,0.00856018,-0.99302673,0.061035,0.183105,-0.122070
10178301208,0.00514221,0.00973511,-0.99250793,0.061035,0.183105,-0.122070
10180833875,0.00514221,0.00973511,-0.99250793,0.427246,0.000000,0.000000
10188417416,0.00578308,0.00801086,-0.97923279,0.427246,0.000000,0.000000
10190956541,0.00578308,0.00801086,-0.97923279,0.366211,0.183105,-0.183105
10198569500,0.00567627,0.00875854,-1.00280762,0.366211,0.183105,-0.183105
10200972125,0.00567627,0.00875854,-1.00280762,0.061035,0.183105,-0.061035
10208640791,0.00497437,0.00846863,-0.99844360,0.061035,0.183105,-0.061035
10211193041,0.00497437,0.00846863,-0.99844360,0.061035,0.061035,-0.122070
10218611125,0.00588989,0.00779724,-0.99766541,0.061035,0.061035,-0.122070
10220966708,0.00588989,0.00779724,-0.99766541,-0.061035,0.000000,-0.061035
10228593291,0.00529480,0.00801086,-0.99487305,-0.061035,0.000000,-0.061035
10231139250,0.00529480,0.00801086,-0.99487305,0.122070,0.061035,0.000000
10238761541,0.00476074,0.00796509,-0.99470520,0.122070,0.061035,0.000000
10241309958,0.00476074,0.00796509,-0.99470520,0.122070,-0.122070,-0.061035
10248921208,0.00479126,0.00758362,-0.98867798,0.122070,-0.122070,-0.061035
10251318583,0.00479126,0.00758362,-0.98867798,0.000000,0.244141,0.000000
10258934750,0.00442505,0.00782776,-1.00178528,0.000000,0.244141,0.000000
10261506500,0.00442505,0.00782776,-1.00178528,0.000000,0.183105,-0.061035
10268726000,0.00433350,0.00793457,-0.98387146,0.000000,0.183105,-0.061035
10271273166,0.00433350,0.00793457,-0.98387146,0.061035,0.122070,-0.122070
10278603208,0.00315857,0.00871277,-0.99401855,0.061035,0.122070,-0.122070
10281156333,0.00315857,0.00871277,-0.99401855,0.000000,0.183105,-0.122070
10288767333,0.00392151,0.00921631,-0.99255371,0.000000,0.183105,-0.122070
10290902625,0.00392151,0.00921631,-0.99255371,0.061035,0.122070,-0.122070
10300755833,0.00393677,0.00895691,-0.99427795,0.000000,0.244141,-0.061035
10308346958,0.00505066,0.00868225,-0.99185181,0.000000,0.244141,-0.061035
10310872916,0.00505066,0.00868225,-0.99185181,1.586914,0.610352,-0.122070
10318441125,0.00617981,0.00863647,-0.98046875,1.586914,0.610352,-0.122070
10320981250,0.00617981,0.00863647,-0.98046875,-0.732422,0.244141,-0.061035
10328618625,0.00724792,0.00930786,-1.00939941,-0.732422,0.244141,-0.061035
10330890166,0.00724792,0.00930786,-1.00939941,0.671387,0.061035,-0.122070
10338469875,0.00663757,0.00701904,-0.99189758,0.671387,0.061035,-0.122070
10340996958,0.00663757,0.00701904,-0.99189758,-0.366211,0.244141,-0.183105
10348589166,0.00532532,0.00611877,-0.98439026,-0.366211,0.244141,-0.183105
10351130666,0.00532532,0.00611877,-0.98439026,0.427246,0.244141,0.000000
10358528708,0.00503540,0.00750732,-1.00413513,0.427246,0.244141,0.000000
10360918000,0.00503540,0.00750732,-1.00413513,-0.122070,0.183105,0.000000
10368527583,0.00424194,0.00689697,-0.99108887,-0.122070,0.183105,0.000000
10371069250,0.00424194,0.00689697,-0.99108887,0.122070,0.183105,0.000000
10378676666,0.00450134,0.00724792,-0.99304199,0.122070,0.183105,0.000000
10380863375,0.00450134,0.00724792,-0.99304199,-0.122070,0.183105,-0.061035
10388471125,0.00587463,0.00711060,-0.99328613,-0.122070,0.183105,-0.061035
10391016250,0.00587463,0.00711060,-0.99328613,0.000000,0.122070,-0.122070
10401026708,0.00399780,0.00814819,-0.99366760,-0.183105,0.244141,-0.183105
10410907041,0.00375366,0.00981140,-0.99494934,0.061035,0.244141,-0.061035
10420617250,0.00358582,0.00970459,-0.99317932,0.488281,0.244141,-0.122070
10430621541,0.00445557,0.01007080,-0.98921204,-0.244141,0.183105,-0.122070
10440728166,0.00422668,0.01062012,-1.00213623,0.183105,0.122070,-0.122070
10450840833,0.00469971,0.01039124,-0.98553467,0.000000,0.244141,-0.061035
10460985416,0.00546265,0.00843811,-0.99192810,0.000000,0.183105,0.000000
10470923250,0.00578308,0.00769043,-0.99351501,0.000000,0.061035,-0.305176
10480689208,0.00563049,0.00849915,-0.99603271,0.061035,0.183105,-0.061035
10490824166,0.00444031,0.00787354,-0.99200439,0.244141,0.183105,-0.061035
10500865083,0.00524902,0.00680542,-0.99441528,-0.061035,0.183105,0.000000
10511000333,0.00584412,0.00640869,-0.99409485,-0.061035,0.183105,-0.183105
10521006708,0.00695801,0.00733948,-0.99363708,0.061035,0.122070,0.000000
10531188541,0.00758362,0.00779724,-0.99241638,0.061035,0.122070,-0.061035
10541191125,0.00520325,0.00805664,-0.99377441,0.000000,0.183105,-0.061035
10551137166,0.00433350,0.00849915,-0.99377441,0.061035,0.183105,-0.061035
10560915833,0.00422668,0.00759888,-0.99310303,0.183105,0.061035,0.000000
10571070875,0.00306702,0.00891113,-0.99208069,0.000000,0.244141,-0.122070
10581195416,0.00396729,0.00833130,-0.99345398,0.122070,0.244141,-0.122070
10591013125,0.00488281,0.00839233,-0.99513245,0.000000,0.183105,-0.061035
10601134375,0.00494385,0.00918579,-0.99304199,0.000000,0.061035,-0.122070
10611237708,0.00552368,0.00935364,-0.99465942,0.000000,0.122070,0.000000
10621412875,0.00541687,0.00872803,-0.99375916,0.122070,0.183105,-0.122070
10631409041,0.00610352,0.00915527,-0.99394226,0.061035,0.183105,-0.061035
10639013083,0.00607300,0.00802612,-0.99223328,0.061035,0.183105,-0.061035
10641184916,0.00607300,0.00802612,-0.99223328,1.281738,0.122070,-0.183105
10651301791,0.00535583,0.00823975,-0.98904419,-0.549316,0.061035,-0.061035
10660873041,0.00463867,0.00616455,-0.99986267,0.305176,0.000000,-0.122070
10671020458,0.00463867,0.00660706,-0.99433899,0.427246,0.244141,-0.061035
10680978583,0.00495911,0.00630188,-0.99430847,-0.366211,0.244141,-0.061035
10691117625,0.00480652,0.00775146,-0.98791504,-0.122070,0.122070,-0.061035
10701266291,0.00476074,0.00851440,-1.00323486,0.000000,0.244141,-0.061035
10711091416,0.00556946,0.00939941,-0.98709106,0.122070,0.244141,0.000000
10720992375,0.00486755,0.00921631,-0.99798584,-0.122070,0.122070,-0.122070
10730829916,0.00497437,0.00976562,-0.99142456,-0.122070,0.122070,-0.122070
10733363875,0.00497437,0.00976562,-0.99142456,0.000000,0.183105,0.000000
10740585500,0.00537109,0.00990295,-0.99566650,0.000000,0.183105,0.000000
10743125125,0.00537109,0.00990295,-0.99566650,-1.159668,0.061035,-0.061035
10750721958,0.00462341,0.00839233,-0.99256897,-1.159668,0.061035,-0.061035
10753267583,0.00462341,0.00839233,-0.99256897,-0.183105,0.244141,0.000000
10760551250,0.00511169,0.00817871,-0.99122620,-0.183105,0.244141,0.000000
10762873708,0.00511169,0.00817871,-0.99122620,-0.122070,0.244141,-0.061035
10770498083,0.00596619,0.00744629,-0.99253845,-0.122070,0.244141,-0.061035
10773035625,0.00596619,0.00744629,-0.99253845,0.183105,0.244141,-0.122070
10780623833,0.00518799,0.00680542,-0.99407959,0.183105,0.244141,-0.122070
10782770458,0.00518799,0.00680542,-0.99407959,0.122070,0.183105,-0.122070
10790346541,0.00640869,0.00703430,-0.99421692,0.122070,0.183105,-0.122070
10792886000,0.00640869,0.00703430,-0.99421692,0.122070,0.244141,-0.061035
10800480416,0.00491333,0.00724792,-0.99284363,0.122070,0.244141,-0.061035
10803003291,0.00491333,0.00724792,-0.99284363,0.061035,0.183105,-0.122070
10810589333,0.00527954,0.00794983,-0.99473572,0.061035,0.183105,-0.122070
10812882791,0.00527954,0.00794983,-0.99473572,0.000000,0.183105,-0.183105
10820484458,0.00520325,0.00871277,-0.99462891,0.000000,0.183105,-0.183105
10822791833,0.00520325,0.00871277,-0.99462891,0.061035,0.244141,-0.061035
10830370958,0.00476074,0.00889587,-0.99362183,0.061035,0.244141,-0.061035
10832528250,0.00476074,0.00889587,-0.99362183,0.000000,0.183105,0.000000
10840123708,0.00451660,0.00813293,-0.99372864,0.000000,0.183105,0.000000
10842665875,0.00451660,0.00813293,-0.99372864,0.061035,0.244141,-0.061035
10850263541,0.00540161,0.00776672,-0.99301147,0.061035,0.244141,-0.061035
10852794666,0.00540161,0.00776672,-0.99301147,-0.061035,0.122070,-0.122070
