timestamp_ns,accel_x,accel_y,accel_z,gyro_x,gyro_y,gyro_z
88567291,0.01341248,0.00138855,-0.99446106,0.000000,0.000000,0.000000
96890541,0.01341248,0.00138855,-0.99446106,0.122070,0.122070,-0.183105
102802791,0.01374817,0.00151062,-0.99613953,0.122070,0.122070,-0.183105
107417833,0.01374817,0.00151062,-0.99613953,0.061035,0.183105,-0.061035
110335041,0.01420593,0.00193787,-0.99594116,0.061035,0.183105,-0.061035
113037833,0.01420593,0.00193787,-0.99594116,0.000000,0.122070,-0.183105
115976708,0.01394653,0.00209045,-0.99572754,0.000000,0.122070,-0.183105
122234250,0.01394653,0.00209045,-0.99572754,0.122070,0.061035,-0.061035
125035375,0.01286316,0.00331116,-0.99589539,0.122070,0.061035,-0.061035
133245375,0.01286316,0.00331116,-0.99589539,0.000000,0.244141,-0.122070
136296916,0.01197815,0.00469971,-0.99592590,0.000000,0.244141,-0.122070
141317291,0.01197815,0.00469971,-0.99592590,0.061035,0.122070,0.000000
146386458,0.01129150,0.00486755,-0.99554443,0.061035,0.122070,0.000000
151432916,0.01129150,0.00486755,-0.99554443,0.000000,0.244141,-0.122070
156490041,0.01361084,0.00476074,-0.99531555,0.000000,0.244141,-0.122070
161540333,0.01361084,0.00476074,-0.99531555,0.000000,0.244141,-0.122070
166562291,0.01432800,0.00473022,-0.99621582,0.000000,0.244141,-0.122070
171617708,0.01432800,0.00473022,-0.99621582,0.122070,0.061035,-0.061035
176705958,0.01388550,0.00444031,-0.99539185,0.122070,0.061035,-0.061035
181784125,0.01388550,0.00444031,-0.99539185,0.122070,0.061035,-0.122070
184301750,0.01342773,0.00518799,-0.99467468,0.122070,0.061035,-0.122070
191865875,0.01342773,0.00518799,-0.99467468,0.122070,0.183105,-0.061035
194380416,0.01376343,0.00473022,-0.99540710,0.122070,0.183105,-0.061035
201945375,0.01376343,0.00473022,-0.99540710,-0.122070,0.061035,-0.122070
204464958,0.01307678,0.00334167,-0.99533081,-0.122070,0.061035,-0.122070
212045583,0.01307678,0.00334167,-0.99533081,-0.061035,0.305176,-0.061035
214559208,0.01281738,0.00460815,-0.99470520,-0.061035,0.305176,-0.061035
222093541,0.01281738,0.00460815,-0.99470520,0.000000,0.183105,0.000000
224606958,0.01219177,0.00379944,-0.99462891,0.000000,0.183105,0.000000
232138083,0.01219177,0.00379944,-0.99462891,-0.061035,0.122070,-0.183105
234650583,0.01132202,0.00332642,-0.99501038,-0.061035,0.122070,-0.183105
242185416,0.01132202,0.00332642,-0.99501038,-0.061035,0.183105,-0.061035
244698125,0.01165771,0.00382996,-0.99502563,-0.061035,0.183105,-0.061035
252227166,0.01165771,0.00382996,-0.99502563,-0.122070,0.183105,-0.183105
254749708,0.01133728,0.00340271,-0.99476624,-0.122070,0.183105,-0.183105
262282916,0.01133728,0.00340271,-0.99476624,-0.061035,0.061035,0.061035
264795916,0.01239014,0.00421143,-0.99432373,-0.061035,0.061035,0.061035
272343208,0.01239014,0.00421143,-0.99432373,0.061035,0.244141,-0.061035
274856500,0.01263428,0.00488281,-0.99493408,0.061035,0.244141,-0.061035
282392791,0.01263428,0.00488281,-0.99493408,-0.122070,0.061035,-0.122070
284914166,0.01286316,0.00491333,-0.99578857,-0.122070,0.061035,-0.122070
292455500,0.01286316,0.00491333,-0.99578857,0.061035,0.122070,-0.183105
294989083,0.01258850,0.00489807,-0.99603271,0.061035,0.122070,-0.183105
302541208,0.01258850,0.00489807,-0.99603271,0.000000,0.061035,-0.183105
305068125,0.01290894,0.00427246,-0.99543762,0.000000,0.061035,-0.183105
312615625,0.01290894,0.00427246,-0.99543762,0.061035,0.000000,-0.122070
315136833,0.01370239,0.00430298,-0.99554443,0.061035,0.000000,-0.122070
322710583,0.01370239,0.00430298,-0.99554443,0.000000,0.183105,-0.183105
325231750,0.01390076,0.00415039,-0.99565125,0.000000,0.183105,-0.183105
332779541,0.01390076,0.00415039,-0.99565125,0.122070,0.183105,-0.061035
335299125,0.01240540,0.00392151,-0.99478149,0.122070,0.183105,-0.061035
342858375,0.01240540,0.00392151,-0.99478149,0.000000,0.183105,-0.183105
345385791,0.01225281,0.00382996,-0.99491882,0.000000,0.183105,-0.183105
353133083,0.01225281,0.00382996,-0.99491882,0.061035,0.061035,-0.061035
355680666,0.01205444,0.00395203,-0.99511719,0.061035,0.061035,-0.061035
363258666,0.01205444,0.00395203,-0.99511719,0.000000,0.305176,-0.122070
365783750,0.01325989,0.00354004,-0.99391174,0.000000,0.305176,-0.122070
373452833,0.01325989,0.00354004,-0.99391174,0.122070,0.061035,-0.183105
376008083,0.01211548,0.00401306,-0.99504089,0.122070,0.061035,-0.183105
381097583,0.01211548,0.00401306,-0.99504089,0.061035,0.122070,-0.183105
391129916,0.01321411,0.00473022,-0.99452209,0.061035,0.244141,-0.061035
396273333,0.01348877,0.00439453,-0.99562073,0.061035,0.244141,-0.061035
401411250,0.01348877,0.00439453,-0.99562073,0.183105,0.183105,0.061035
406504458,0.01240540,0.00378418,-0.99479675,0.183105,0.183105,0.061035
414199791,0.01240540,0.00378418,-0.99479675,-0.122070,0.244141,-0.061035
428474458,0.01293945,0.00437927,-0.99519348,-0.122070,0.244141,-0.061035
431142541,0.01359558,0.00384521,-0.99539185,-0.061035,0.000000,-0.122070
431159583,0.01359558,0.00384521,-0.99539185,0.122070,0.183105,-0.183105
436042500,0.01284790,0.00419617,-0.99461365,0.122070,0.183105,-0.183105
441066333,0.01284790,0.00419617,-0.99461365,0.061035,0.244141,0.061035
446107916,0.01393127,0.00463867,-0.99659729,0.061035,0.244141,0.061035
451149875,0.01393127,0.00463867,-0.99659729,0.000000,0.061035,-0.122070
456179958,0.01306152,0.00514221,-0.99641418,0.000000,0.061035,-0.122070
461228041,0.01306152,0.00514221,-0.99641418,0.122070,0.000000,0.000000
466400875,0.01322937,0.00434875,-0.99613953,0.122070,0.000000,0.000000
471669083,0.01322937,0.00434875,-0.99613953,0.061035,0.061035,-0.061035
476390625,0.01383972,0.00318909,-0.99531555,0.061035,0.061035,-0.061035
481490750,0.01383972,0.00318909,-0.99531555,0.122070,0.305176,0.000000
486625833,0.01335144,0.00355530,-0.99516296,0.122070,0.305176,0.000000
491605000,0.01335144,0.00355530,-0.99516296,0.061035,0.122070,-0.122070
496766375,0.01330566,0.00291443,-0.99481201,0.061035,0.122070,-0.122070
501948708,0.01330566,0.00291443,-0.99481201,0.183105,0.305176,-0.122070
522325583,0.01193237,0.00308228,-0.99530029,0.183105,0.305176,-0.122070
524910541,0.01290894,0.00395203,-0.99501038,0.061035,0.061035,-0.122070
524918000,0.01290894,0.00395203,-0.99501038,0.122070,0.183105,0.000000
527436208,0.01325989,0.00320435,-0.99482727,0.122070,0.183105,0.000000
532474083,0.01325989,0.00320435,-0.99482727,0.061035,0.061035,-0.244141
534988083,0.01254272,0.00325012,-0.99578857,0.061035,0.061035,-0.244141
542543958,0.01254272,0.00325012,-0.99578857,-0.061035,0.183105,-0.122070
545060250,0.01246643,0.00421143,-0.99468994,-0.061035,0.183105,-0.122070
552616958,0.01246643,0.00421143,-0.99468994,0.000000,0.122070,-0.183105
555135083,0.01374817,0.00498962,-0.99482727,0.000000,0.122070,-0.183105
562697541,0.01374817,0.00498962,-0.99482727,0.061035,0.244141,-0.122070
565218750,0.01217651,0.00396729,-0.99552917,0.061035,0.244141,-0.122070
572576291,0.01217651,0.00396729,-0.99552917,0.000000,0.122070,-0.122070
577367333,0.01254272,0.00462341,-0.99504089,0.000000,0.122070,-0.122070
582217625,0.01254272,0.00462341,-0.99504089,0.061035,0.183105,-0.122070
587295500,0.01388550,0.00488281,-0.99647522,0.061035,0.183105,-0.122070
592171833,0.01388550,0.00488281,-0.99647522,0.183105,0.244141,0.000000
597243000,0.01327515,0.00424194,-0.99517822,0.183105,0.244141,0.000000
602318916,0.01327515,0.00424194,-0.99517822,-0.122070,0.183105,-0.061035
607408291,0.01280212,0.00392151,-0.99632263,-0.122070,0.183105,-0.061035
612166083,0.01280212,0.00392151,-0.99632263,0.061035,0.183105,-0.122070
617216916,0.01234436,0.00387573,-0.99452209,0.061035,0.183105,-0.122070
622289958,0.01234436,0.00387573,-0.99452209,0.061035,0.244141,-0.061035
627361083,0.01304626,0.00404358,-0.99520874,0.061035,0.244141,-0.061035
632451541,0.01304626,0.00404358,-0.99520874,0.183105,0.183105,-0.061035
637515583,0.01315308,0.00315857,-0.99505615,0.183105,0.183105,-0.061035
642515250,0.01315308,0.00315857,-0.99505615,0.061035,0.122070,-0.061035
647597125,0.01277161,0.00282288,-0.99502563,0.061035,0.122070,-0.061035
652676291,0.01277161,0.00282288,-0.99502563,0.061035,0.183105,-0.061035
657732708,0.01272583,0.00263977,-0.99523926,0.061035,0.183105,-0.061035
662772541,0.01272583,0.00263977,-0.99523926,0.122070,0.122070,-0.122070
667829708,0.01307678,0.00325012,-0.99499512,0.122070,0.122070,-0.122070
672938083,0.01307678,0.00325012,-0.99499512,0.122070,0.183105,-0.183105
675506250,0.01362610,0.00474548,-0.99563599,0.122070,0.183105,-0.183105
682920750,0.01362610,0.00474548,-0.99563599,0.244141,0.183105,-0.061035
685455291,0.01306152,0.00424194,-0.99568176,0.244141,0.183105,-0.061035
692760708,0.01306152,0.00424194,-0.99568176,0.305176,0.122070,-0.061035
697845125,0.01364136,0.00424194,-0.99513245,0.305176,0.122070,-0.061035
702439208,0.01364136,0.00424194,-0.99513245,0.244141,0.183105,-0.061035
707518333,0.01425171,0.00520325,-0.99581909,0.244141,0.183105,-0.061035
712377875,0.01425171,0.00520325,-0.99581909,0.305176,0.244141,0.000000
717531041,0.01344299,0.00550842,-0.99603271,0.305176,0.244141,0.000000
722630083,0.01344299,0.00550842,-0.99603271,0.427246,0.061035,-0.183105
727700041,0.01249695,0.00466919,-0.99481201,0.427246,0.061035,-0.183105
732770208,0.01249695,0.00466919,-0.99481201,0.488281,0.061035,-0.122070
737839416,0.01292419,0.00567627,-0.99534607,0.488281,0.061035,-0.122070
742859541,0.01292419,0.00567627,-0.99534607,0.244141,0.122070,-0.122070
747893000,0.01278687,0.00543213,-0.99581909,0.244141,0.122070,-0.122070
752916500,0.01278687,0.00543213,-0.99581909,0.122070,0.122070,-0.061035
758008583,0.01263428,0.00561523,-0.99552917,0.122070,0.122070,-0.061035
763083208,0.01263428,0.00561523,-0.99552917,0.061035,0.305176,-0.061035
768014166,0.01309204,0.00573730,-0.99674988,0.061035,0.305176,-0.061035
772700958,0.01309204,0.00573730,-0.99674988,0.000000,0.244141,0.000000
777301416,0.01185608,0.00646973,-0.99591064,0.000000,0.244141,0.000000
782107666,0.01185608,0.00646973,-0.99591064,0.122070,0.122070,-0.061035
787175208,0.01226807,0.00500488,-0.99560547,0.122070,0.122070,-0.061035
792178375,0.01226807,0.00500488,-0.99560547,0.305176,0.183105,-0.061035
796951541,0.01139832,0.00445557,-0.99386597,0.305176,0.183105,-0.061035
802048666,0.01139832,0.00445557,-0.99386597,0.183105,0.122070,0.061035
806765916,0.01069641,0.00271606,-0.99406433,0.183105,0.122070,0.061035
813961916,0.01069641,0.00271606,-0.99406433,0.122070,0.122070,-0.122070
816429375,0.01213074,0.00173950,-0.99365234,0.122070,0.122070,-0.122070
824011583,0.01213074,0.00173950,-0.99365234,0.488281,0.244141,-0.183105
826574625,0.01232910,0.00111389,-0.99346924,0.488281,0.244141,-0.183105
834087458,0.01232910,0.00111389,-0.99346924,0.549316,0.061035,-0.061035
836637958,0.01416016,0.00067139,-0.99409485,0.549316,0.061035,-0.061035
844211583,0.01416016,0.00067139,-0.99409485,0.488281,0.305176,-0.122070
846565333,0.01356506,0.00105286,-0.99377441,0.488281,0.305176,-0.122070
854169875,0.01356506,0.00105286,-0.99377441,0.122070,0.244141,-0.122070
856722416,0.01382446,0.00115967,-0.99647522,0.122070,0.244141,-0.122070
863992791,0.01382446,0.00115967,-0.99647522,0.122070,0.244141,-0.183105
866536083,0.01571655,0.00363159,-1.00100708,0.122070,0.244141,-0.183105
874154333,0.01571655,0.00363159,-1.00100708,-0.061035,0.122070,-0.061035
876705791,0.01380920,0.00572205,-0.99771118,-0.061035,0.122070,-0.061035
884312000,0.01380920,0.00572205,-0.99771118,0.183105,0.061035,-0.061035
886853291,0.01203918,0.00651550,-0.99496460,0.183105,0.061035,-0.061035
894444083,0.01203918,0.00651550,-0.99496460,0.122070,0.366211,0.061035
896982500,0.01286316,0.00700378,-0.99453735,0.122070,0.366211,0.061035
904979500,0.01286316,0.00700378,-0.99453735,0.122070,0.122070,-0.061035
907173291,0.01272583,0.00582886,-0.99589539,0.122070,0.122070,-0.061035
913269166,0.01272583,0.00582886,-0.99589539,0.244141,0.061035,-0.122070
918232750,0.01309204,0.00486755,-0.99487305,0.244141,0.061035,-0.122070
923349250,0.01309204,0.00486755,-0.99487305,0.183105,0.183105,-0.061035
927993375,0.01275635,0.00387573,-0.99468994,0.183105,0.183105,-0.061035
933076541,0.01275635,0.00387573,-0.99468994,0.183105,0.061035,-0.122070
938145750,0.01336670,0.00450134,-0.99633789,0.183105,0.061035,-0.122070
943212041,0.01336670,0.00450134,-0.99633789,0.427246,0.183105,-0.061035
948279083,0.01367188,0.00321960,-0.99511719,0.427246,0.183105,-0.061035
953353916,0.01367188,0.00321960,-0.99511719,0.305176,0.061035,-0.122070
958455041,0.01445007,0.00248718,-0.99394226,0.305176,0.061035,-0.122070
963540125,0.01445007,0.00248718,-0.99394226,0.244141,0.183105,-0.122070
966073833,0.01412964,0.00337219,-0.99409485,0.244141,0.183105,-0.122070
973534875,0.01412964,0.00337219,-0.99409485,0.061035,0.244141,-0.061035
976070750,0.01367188,0.00344849,-0.99729919,0.061035,0.244141,-0.061035
983566583,0.01367188,0.00344849,-0.99729919,0.061035,0.244141,-0.183105
986125125,0.01208496,0.00253296,-0.99653625,0.061035,0.244141,-0.183105
993702583,0.01208496,0.00253296,-0.99653625,0.061035,0.183105,-0.122070
996248583,0.01164246,0.00308228,-0.99491882,0.061035,0.183105,-0.122070
1003829916,0.01164246,0.00308228,-0.99491882,0.122070,0.183105,-0.305176
1006370791,0.01213074,0.00222778,-0.99719238,0.122070,0.183105,-0.305176
1013950750,0.01213074,0.00222778,-0.99719238,0.061035,0.305176,-0.061035
1016498041,0.01248169,0.00245667,-0.99504089,0.061035,0.305176,-0.061035
1024103625,0.01248169,0.00245667,-0.99504089,0.122070,0.183105,-0.122070
1026647041,0.01306152,0.00164795,-0.99815369,0.122070,0.183105,-0.122070
1033549333,0.01306152,0.00164795,-0.99815369,0.061035,0.183105,-0.061035
1038648958,0.01226807,0.00222778,-0.99604797,0.061035,0.183105,-0.061035
1043755375,0.01226807,0.00222778,-0.99604797,0.000000,0.183105,-0.122070
1046310958,0.01304626,0.00158691,-0.99626160,0.000000,0.183105,-0.122070
1053909250,0.01304626,0.00158691,-0.99626160,0.244141,0.244141,-0.061035
1056389916,0.01321411,0.00146484,-0.99552917,0.244141,0.244141,-0.061035
1063986166,0.01321411,0.00146484,-0.99552917,0.122070,0.183105,-0.183105
1066547833,0.01428223,0.00202942,-0.99496460,0.122070,0.183105,-0.183105
1074137458,0.01428223,0.00202942,-0.99496460,0.183105,0.183105,-0.122070
1076683458,0.01339722,0.00257874,-0.99627686,0.183105,0.183105,-0.122070
1084278875,0.01339722,0.00257874,-0.99627686,0.244141,0.244141,0.000000
1086825541,0.01242065,0.00270081,-0.99513245,0.244141,0.244141,0.000000
1094419916,0.01242065,0.00270081,-0.99513245,0.122070,0.122070,-0.244141
1096979458,0.01235962,0.00352478,-0.99501038,0.122070,0.122070,-0.244141
1104608416,0.01235962,0.00352478,-0.99501038,0.183105,0.122070,-0.061035
1106953041,0.01200867,0.00408936,-0.99638367,0.183105,0.122070,-0.061035
1114372583,0.01200867,0.00408936,-0.99638367,0.183105,0.183105,-0.244141
1116916333,0.01271057,0.00444031,-0.99604797,0.183105,0.183105,-0.244141
1124028375,0.01271057,0.00444031,-0.99604797,0.183105,0.122070,-0.122070
1126568458,0.01387024,0.00398254,-0.99444580,0.183105,0.122070,-0.122070
1133887625,0.01387024,0.00398254,-0.99444580,0.244141,0.244141,-0.061035
1139009250,0.01303101,0.00413513,-0.99572754,0.244141,0.244141,-0.061035
1143405750,0.01303101,0.00413513,-0.99572754,0.122070,0.122070,-0.122070
1148344083,0.01348877,0.00364685,-0.99549866,0.122070,0.122070,-0.122070
1153153041,0.01348877,0.00364685,-0.99549866,-0.122070,0.244141,-0.061035
1158206291,0.01354980,0.00468445,-0.99465942,-0.122070,0.244141,-0.061035
1165165375,0.01354980,0.00468445,-0.99465942,0.061035,0.305176,-0.122070
1167709333,0.01329041,0.00384521,-0.99597168,0.061035,0.305176,-0.122070
1175042083,0.01329041,0.00384521,-0.99597168,0.122070,0.183105,-0.122070
1177597750,0.01232910,0.00273132,-0.99520874,0.122070,0.183105,-0.122070
1185210291,0.01232910,0.00273132,-0.99520874,0.000000,0.183105,-0.061035
1187754791,0.01283264,0.00225830,-0.99458313,0.000000,0.183105,-0.061035
1195368833,0.01283264,0.00225830,-0.99458313,0.183105,0.244141,-0.183105
1197952041,0.01370239,0.00363159,-0.99575806,0.183105,0.244141,-0.183105
1203035625,0.01370239,0.00363159,-0.99575806,0.061035,0.183105,-0.061035
1208154916,0.01173401,0.00332642,-0.99497986,0.061035,0.183105,-0.061035
1213257416,0.01173401,0.00332642,-0.99497986,0.122070,0.183105,-0.061035
1218343666,0.01322937,0.00250244,-0.99618530,0.122070,0.183105,-0.061035
1222981416,0.01322937,0.00250244,-0.99618530,0.305176,0.183105,0.000000
1228082875,0.01254272,0.00259399,-0.99563599,0.305176,0.183105,0.000000
1233149833,0.01254272,0.00259399,-0.99563599,-0.061035,0.122070,-0.122070
1238238583,0.01269531,0.00230408,-0.99536133,-0.061035,0.122070,-0.122070
1243310166,0.01269531,0.00230408,-0.99536133,0.122070,0.061035,-0.122070
1248393708,0.01364136,0.00318909,-0.99618530,0.122070,0.061035,-0.122070
1253066916,0.01364136,0.00318909,-0.99618530,0.122070,0.061035,-0.183105
1257938166,0.01301575,0.00265503,-0.99604797,0.122070,0.061035,-0.183105
1263046250,0.01301575,0.00265503,-0.99604797,0.000000,0.183105,-0.183105
1268121416,0.01296997,0.00320435,-0.99433899,0.000000,0.183105,-0.183105
1273184541,0.01296997,0.00320435,-0.99433899,0.122070,0.122070,-0.061035
1277760666,0.01185608,0.00363159,-0.99473572,0.122070,0.122070,-0.061035
1285319958,0.01185608,0.00363159,-0.99473572,0.122070,0.122070,-0.061035
1287915166,0.01199341,0.00340271,-0.99479675,0.122070,0.122070,-0.061035
1293006083,0.01199341,0.00340271,-0.99479675,0.061035,0.122070,-0.122070
1298092583,0.01316833,0.00366211,-0.99679565,0.061035,0.122070,-0.122070
1303187750,0.01316833,0.00366211,-0.99679565,0.061035,0.122070,-0.122070
1308253125,0.01229858,0.00360107,-0.99588013,0.061035,0.122070,-0.122070
1313302875,0.01229858,0.00360107,-0.99588013,-0.061035,0.244141,-0.183105
1318347208,0.01240540,0.00454712,-0.99548340,-0.061035,0.244141,-0.183105
1323412958,0.01240540,0.00454712,-0.99548340,0.000000,0.305176,-0.122070
1328477291,0.01193237,0.00488281,-0.99540710,0.000000,0.305176,-0.122070
1333548458,0.01193237,0.00488281,-0.99540710,0.000000,0.122070,-0.122070
1338624375,0.01159668,0.00553894,-0.99633789,0.000000,0.122070,-0.122070
1343700041,0.01159668,0.00553894,-0.99633789,0.061035,0.183105,0.000000
1348772666,0.01268005,0.00416565,-0.99557495,0.061035,0.183105,0.000000
1353567208,0.01268005,0.00416565,-0.99557495,0.000000,0.183105,-0.061035
1358638416,0.01159668,0.00372314,-0.99642944,0.000000,0.183105,-0.061035
1363710041,0.01159668,0.00372314,-0.99642944,0.061035,0.122070,0.000000
1368584166,0.01307678,0.00402832,-0.99679565,0.061035,0.122070,0.000000
1373349750,0.01307678,0.00402832,-0.99679565,0.061035,0.183105,-0.122070
1378429666,0.01339722,0.00276184,-0.99644470,0.061035,0.183105,-0.122070
1383511166,0.01339722,0.00276184,-0.99644470,0.061035,0.122070,-0.183105
1388594416,0.01242065,0.00163269,-0.99560547,0.061035,0.122070,-0.183105
1393692708,0.01242065,0.00163269,-0.99560547,0.000000,0.061035,-0.122070
1398790958,0.01135254,0.00140381,-0.99546814,0.000000,0.061035,-0.122070
1403446125,0.01135254,0.00140381,-0.99546814,0.183105,0.061035,-0.122070
1408570500,0.01264954,0.00108337,-0.99484253,0.183105,0.061035,-0.122070
1415686083,0.01264954,0.00108337,-0.99484253,0.122070,0.183105,-0.122070
1418251791,0.01281738,0.00053406,-0.99507141,0.122070,0.183105,-0.122070
1423360833,0.01281738,0.00053406,-0.99507141,0.061035,0.122070,-0.061035
1428423250,0.01321411,0.00271606,-0.99569702,0.061035,0.122070,-0.061035
1433500333,0.01321411,0.00271606,-0.99569702,0.061035,0.244141,-0.061035
1438547708,0.01335144,0.00271606,-0.99528503,0.061035,0.244141,-0.061035
1445723916,0.01335144,0.00271606,-0.99528503,0.000000,0.122070,0.000000
1448258000,0.01388550,0.00372314,-0.99545288,0.000000,0.122070,0.000000
1455847458,0.01388550,0.00372314,-0.99545288,0.183105,0.000000,-0.183105
1458386291,0.01417542,0.00425720,-0.99513245,0.183105,0.000000,-0.183105
1463456583,0.01417542,0.00425720,-0.99513245,0.061035,0.183105,-0.122070
1468524875,0.01239014,0.00389099,-0.99617004,0.061035,0.183105,-0.122070
1475790250,0.01239014,0.00389099,-0.99617004,0.183105,0.305176,-0.061035
1478341833,0.01332092,0.00349426,-0.99580383,0.183105,0.305176,-0.061035
1485961291,0.01332092,0.00349426,-0.99580383,0.061035,0.244141,0.000000
1488480958,0.01280212,0.00337219,-0.99533081,0.061035,0.244141,0.000000
1493552583,0.01280212,0.00337219,-0.99533081,0.061035,0.244141,0.000000
1498623625,0.01234436,0.00323486,-0.99510193,0.061035,0.244141,0.000000
1503698833,0.01234436,0.00323486,-0.99510193,0.183105,0.183105,-0.122070
1508782000,0.01275635,0.00286865,-0.99528503,0.183105,0.183105,-0.122070
1516391291,0.01275635,0.00286865,-0.99528503,0.061035,0.305176,0.000000
1518958166,0.01208496,0.00318909,-0.99607849,0.061035,0.305176,0.000000
1524067833,0.01208496,0.00318909,-0.99607849,0.061035,0.183105,-0.122070
1529148041,0.01345825,0.00288391,-0.99560547,0.061035,0.183105,-0.122070
1534225541,0.01345825,0.00288391,-0.99560547,0.000000,0.183105,-0.061035
1539296708,0.01223755,0.00190735,-0.99462891,0.000000,0.183105,-0.061035
1544370208,0.01223755,0.00190735,-0.99462891,0.122070,0.122070,-0.122070
1549183166,0.01232910,0.00228882,-0.99429321,0.122070,0.122070,-0.122070
1554254750,0.01232910,0.00228882,-0.99429321,0.000000,0.122070,-0.122070
1559334291,0.01277161,0.00148010,-0.99482727,0.000000,0.122070,-0.122070
1564413166,0.01277161,0.00148010,-0.99482727,0.000000,0.183105,-0.183105
1569486250,0.01272583,0.00166321,-0.99632263,0.000000,0.183105,-0.183105
1574239125,0.01272583,0.00166321,-0.99632263,0.061035,0.183105,-0.244141
1579320875,0.01203918,0.00289917,-0.99499512,0.061035,0.183105,-0.244141
1584371791,0.01203918,0.00289917,-0.99499512,0.061035,0.183105,-0.183105
1589411208,0.01284790,0.00320435,-0.99592590,0.061035,0.183105,-0.183105
1594454833,0.01284790,0.00320435,-0.99592590,0.061035,0.061035,-0.122070
1599487083,0.01162720,0.00273132,-0.99526978,0.061035,0.061035,-0.122070
1604555166,0.01162720,0.00273132,-0.99526978,0.183105,0.122070,-0.122070
1609619916,0.01278687,0.00358582,-0.99545288,0.183105,0.122070,-0.122070
1614716500,0.01278687,0.00358582,-0.99545288,0.122070,0.183105,-0.183105
1619789000,0.01422119,0.00340271,-0.99481201,0.122070,0.183105,-0.183105
1624863708,0.01422119,0.00340271,-0.99481201,0.061035,0.122070,-0.183105
1629927166,0.01406860,0.00357056,-0.99487305,0.061035,0.122070,-0.183105
1634711125,0.01406860,0.00357056,-0.99487305,0.061035,0.183105,-0.061035
1639694250,0.01376343,0.00323486,-0.99575806,0.061035,0.183105,-0.061035
1644591333,0.01376343,0.00323486,-0.99575806,0.122070,0.183105,-0.183105
1649156666,0.01348877,0.00355530,-0.99566650,0.122070,0.183105,-0.183105
1654232083,0.01348877,0.00355530,-0.99566650,0.061035,0.000000,-0.183105
1658954916,0.01243591,0.00538635,-0.99557495,0.061035,0.000000,-0.183105
1664020666,0.01243591,0.00538635,-0.99557495,0.183105,0.183105,0.061035
1669095083,0.01167297,0.00439453,-0.99568176,0.183105,0.183105,0.061035
1674203166,0.01167297,0.00439453,-0.99568176,0.000000,0.061035,-0.122070
1678602041,0.01283264,0.00288391,-0.99546814,0.000000,0.061035,-0.122070
1686228000,0.01283264,0.00288391,-0.99546814,0.061035,0.305176,-0.122070
1688447208,0.01298523,0.00271606,-0.99557495,0.061035,0.305176,-0.122070
1696025333,0.01298523,0.00271606,-0.99557495,0.000000,0.122070,-0.122070
1698311125,0.01277161,0.00350952,-0.99530029,0.000000,0.122070,-0.122070
1705126791,0.01277161,0.00350952,-0.99530029,0.122070,0.183105,0.000000
1710284375,0.01318359,0.00262451,-0.99421692,0.122070,0.183105,0.000000
1715443291,0.01318359,0.00262451,-0.99421692,0.122070,0.122070,-0.122070
1718002083,0.01330566,0.00163269,-0.99539185,0.122070,0.122070,-0.122070
1725247916,0.01330566,0.00163269,-0.99539185,0.061035,0.244141,-0.061035
1730313791,0.01222229,0.00244141,-0.99653625,0.061035,0.244141,-0.061035
1735409041,0.01222229,0.00244141,-0.99653625,0.122070,0.244141,-0.122070
1740134958,0.01281738,0.00267029,-0.99626160,0.122070,0.244141,-0.122070
1744944750,0.01281738,0.00267029,-0.99626160,0.061035,0.122070,-0.061035
1749975166,0.01298523,0.00341797,-0.99516296,0.061035,0.122070,-0.061035
1756212875,0.01298523,0.00341797,-0.99516296,0.122070,0.305176,-0.122070
1758806833,0.01298523,0.00245667,-0.99539185,0.122070,0.305176,-0.122070
1766354833,0.01298523,0.00245667,-0.99539185,0.061035,0.122070,-0.183105
1768899208,0.01188660,0.00305176,-0.99508667,0.061035,0.122070,-0.183105
1776172833,0.01188660,0.00305176,-0.99508667,0.183105,0.183105,0.000000
1780714208,0.01342773,0.00382996,-0.99601746,0.183105,0.183105,0.000000
1785923083,0.01342773,0.00382996,-0.99601746,0.122070,0.061035,-0.122070
1788465291,0.01454163,0.00366211,-0.99542236,0.122070,0.061035,-0.122070
1795362958,0.01454163,0.00366211,-0.99542236,0.244141,0.244141,-0.061035
1800320375,0.01287842,0.00422668,-0.99481201,0.244141,0.244141,-0.061035
1805207208,0.01287842,0.00422668,-0.99481201,0.122070,0.244141,-0.122070
1809915750,0.01240540,0.00334167,-0.99504089,0.122070,0.244141,-0.122070
1814977666,0.01240540,0.00334167,-0.99504089,0.061035,0.244141,0.061035
1819774833,0.01362610,0.00402832,-0.99537659,0.061035,0.244141,0.061035
1824699208,0.01362610,0.00402832,-0.99537659,0.244141,0.183105,-0.061035
1829456916,0.01306152,0.00367737,-0.99417114,0.244141,0.183105,-0.061035
1834513208,0.01306152,0.00367737,-0.99417114,0.061035,0.122070,-0.122070
1839568375,0.01353455,0.00396729,-0.99551392,0.061035,0.122070,-0.122070
1844286458,0.01353455,0.00396729,-0.99551392,0.000000,0.244141,-0.122070
1849335291,0.01362610,0.00387573,-0.99578857,0.000000,0.244141,-0.122070
1856523166,0.01362610,0.00387573,-0.99578857,-0.061035,0.122070,-0.122070
1859072125,0.01261902,0.00285339,-0.99427795,-0.061035,0.122070,-0.122070
1866645500,0.01261902,0.00285339,-0.99427795,0.061035,0.305176,-0.183105
1869199333,0.01301575,0.00297546,-0.99430847,0.061035,0.305176,-0.183105
1876456458,0.01301575,0.00297546,-0.99430847,-0.122070,0.061035,-0.122070
1879002458,0.01298523,0.00231934,-0.99440002,-0.122070,0.061035,-0.122070
1886607125,0.01298523,0.00231934,-0.99440002,0.000000,0.122070,-0.183105
1889161416,0.01194763,0.00241089,-0.99603271,0.000000,0.122070,-0.183105
1895114708,0.01194763,0.00241089,-0.99603271,0.061035,0.061035,-0.183105
1900596666,0.01229858,0.00270081,-0.99618530,0.061035,0.061035,-0.183105
1905752208,0.01229858,0.00270081,-0.99618530,0.183105,0.305176,-0.122070
1908312666,0.01217651,0.00140381,-0.99552917,0.183105,0.305176,-0.122070
1915946416,0.01217651,0.00140381,-0.99552917,0.122070,0.122070,-0.122070
1918505333,0.01263428,0.00236511,-0.99488831,0.122070,0.122070,-0.122070
1925738500,0.01263428,0.00236511,-0.99488831,0.122070,0.061035,-0.244141
1928299375,0.01350403,0.00291443,-0.99572754,0.122070,0.061035,-0.244141
1935701916,0.01350403,0.00291443,-0.99572754,0.122070,0.305176,0.000000
1940556250,0.01344299,0.00274658,-0.99656677,0.122070,0.305176,0.000000
1945648833,0.01344299,0.00274658,-0.99656677,0.000000,0.122070,-0.183105
1950746125,0.01289368,0.00303650,-0.99588013,0.000000,0.122070,-0.183105
1955833041,0.01289368,0.00303650,-0.99588013,0.122070,0.183105,-0.061035
1958375250,0.01252747,0.00288391,-0.99606323,0.122070,0.183105,-0.061035
1965989916,0.01252747,0.00288391,-0.99606323,0.122070,0.305176,-0.122070
1968538666,0.01225281,0.00267029,-0.99475098,0.122070,0.305176,-0.122070
1976185833,0.01225281,0.00267029,-0.99475098,0.061035,0.122070,-0.061035
1978620250,0.01301575,0.00227356,-0.99504089,0.061035,0.122070,-0.061035
1986085375,0.01301575,0.00227356,-0.99504089,0.122070,0.122070,-0.061035
1988672458,0.01277161,0.00303650,-0.99505615,0.122070,0.122070,-0.061035
1996322500,0.01277161,0.00303650,-0.99505615,0.061035,0.244141,-0.061035
1998869583,0.01351929,0.00178528,-0.99560547,0.061035,0.244141,-0.061035
2006105458,0.01351929,0.00178528,-0.99560547,0.061035,0.183105,-0.122070
2008673791,0.01377869,0.00306702,-0.99453735,0.061035,0.183105,-0.122070
2016288250,0.01377869,0.00306702,-0.99453735,-0.061035,0.305176,-0.183105
2018838791,0.01268005,0.00318909,-0.99607849,-0.061035,0.305176,-0.183105
2026446000,0.01268005,0.00318909,-0.99607849,0.183105,0.183105,-0.122070
2028987375,0.01335144,0.00398254,-0.99548340,0.183105,0.183105,-0.122070
2036617875,0.01335144,0.00398254,-0.99548340,0.183105,0.183105,-0.122070
2039176375,0.01324463,0.00311279,-0.99542236,0.183105,0.183105,-0.122070
2046847416,0.01324463,0.00311279,-0.99542236,0.000000,0.244141,-0.122070
2049401125,0.01254272,0.00318909,-0.99565125,0.000000,0.244141,-0.122070
2056768000,0.01254272,0.00318909,-0.99565125,0.061035,0.244141,-0.061035
2059304750,0.01277161,0.00401306,-0.99533081,0.061035,0.244141,-0.061035
2066893500,0.01277161,0.00401306,-0.99533081,0.000000,0.061035,-0.122070
2069303250,0.01295471,0.00389099,-0.99613953,0.000000,0.061035,-0.122070
2076905416,0.01295471,0.00389099,-0.99613953,0.061035,0.122070,0.000000
2079464541,0.01225281,0.00407410,-0.99444580,0.061035,0.122070,0.000000
2086757583,0.01225281,0.00407410,-0.99444580,0.061035,0.244141,-0.061035
2089303625,0.01295471,0.00386047,-0.99537659,0.061035,0.244141,-0.061035
2096913250,0.01295471,0.00386047,-0.99537659,0.122070,0.061035,-0.122070
2099066875,0.01237488,0.00292969,-0.99645996,0.122070,0.061035,-0.122070
2106681500,0.01237488,0.00292969,-0.99645996,0.000000,0.000000,-0.183105
2109231083,0.01325989,0.00257874,-0.99563599,0.000000,0.000000,-0.183105
2116703708,0.01325989,0.00257874,-0.99563599,0.061035,0.183105,-0.061035
2119248083,0.01396179,0.00250244,-0.99606323,0.061035,0.183105,-0.061035
2127063750,0.01396179,0.00250244,-0.99606323,0.061035,0.122070,-0.122070
2129615416,0.01251221,0.00204468,-0.99685669,0.061035,0.122070,-0.122070
2137226250,0.01251221,0.00204468,-0.99685669,0.122070,0.122070,-0.061035
2139768708,0.01272583,0.00256348,-0.99566650,0.122070,0.122070,-0.061035
2146796625,0.01272583,0.00256348,-0.99566650,0.122070,0.122070,-0.061035
2149348875,0.01310730,0.00247192,-0.99568176,0.122070,0.122070,-0.061035
2156943583,0.01310730,0.00247192,-0.99568176,0.000000,0.244141,-0.061035
2159483625,0.01332092,0.00285339,-0.99656677,0.000000,0.244141,-0.061035
2167084166,0.01332092,0.00285339,-0.99656677,0.061035,0.061035,-0.183105
2169630250,0.01216125,0.00350952,-0.99635315,0.061035,0.061035,-0.183105
2176839583,0.01216125,0.00350952,-0.99635315,0.061035,0.122070,-0.122070
2179392583,0.01268005,0.00364685,-0.99581909,0.061035,0.122070,-0.122070
2187009208,0.01268005,0.00364685,-0.99581909,-0.061035,0.122070,-0.244141
2189102875,0.01344299,0.00309753,-0.99577332,-0.061035,0.122070,-0.244141
2196727708,0.01344299,0.00309753,-0.99577332,0.000000,0.305176,-0.122070
2199276500,0.01254272,0.00326538,-0.99510193,0.000000,0.305176,-0.122070
2206848958,0.01254272,0.00326538,-0.99510193,0.122070,0.244141,-0.183105
2209387750,0.01281738,0.00352478,-0.99562073,0.122070,0.244141,-0.183105
2216944458,0.01281738,0.00352478,-0.99562073,0.122070,0.183105,-0.061035
2219497833,0.01313782,0.00312805,-0.99438477,0.122070,0.183105,-0.061035
2227062291,0.01313782,0.00312805,-0.99438477,0.122070,0.061035,-0.183105
2229318166,0.01177979,0.00248718,-0.99528503,0.122070,0.061035,-0.183105
2236906833,0.01177979,0.00248718,-0.99528503,0.000000,0.183105,-0.061035
2239441208,0.01162720,0.00245667,-0.99642944,0.000000,0.183105,-0.061035
2247027083,0.01162720,0.00245667,-0.99642944,0.000000,0.122070,-0.122070
2249580625,0.01315308,0.00218201,-0.99555969,0.000000,0.122070,-0.122070
2257189541,0.01315308,0.00218201,-0.99555969,0.183105,0.061035,-0.122070
2259736250,0.01393127,0.00228882,-0.99510193,0.183105,0.061035,-0.122070
2267335875,0.01393127,0.00228882,-0.99510193,0.061035,0.183105,-0.122070
2269881833,0.01307678,0.00186157,-0.99539185,0.061035,0.183105,-0.122070
2277471916,0.01307678,0.00186157,-0.99539185,0.061035,0.122070,-0.061035
2280010916,0.01257324,0.00123596,-0.99528503,0.061035,0.122070,-0.061035
2287617083,0.01257324,0.00123596,-0.99528503,0.000000,0.183105,-0.061035
2290164125,0.01290894,0.00195312,-0.99504089,0.000000,0.183105,-0.061035
2297785291,0.01290894,0.00195312,-0.99504089,0.061035,0.244141,-0.122070
2300340333,0.01219177,0.00228882,-0.99519348,0.061035,0.244141,-0.122070
2307709541,0.01219177,0.00228882,-0.99519348,0.122070,0.244141,-0.244141
2310261041,0.01280212,0.00323486,-0.99537659,0.122070,0.244141,-0.244141
2317854291,0.01280212,0.00323486,-0.99537659,0.061035,0.183105,-0.183105
2320400708,0.01222229,0.00407410,-0.99539185,0.061035,0.183105,-0.183105
2325488416,0.01222229,0.00407410,-0.99539185,0.061035,0.244141,-0.183105
2330568083,0.01286316,0.00479126,-0.99551392,0.061035,0.244141,-0.183105
2338016375,0.01286316,0.00479126,-0.99551392,0.061035,0.061035,-0.122070
2340464750,0.01255798,0.00382996,-0.99604797,0.061035,0.061035,-0.122070
2345541250,0.01255798,0.00382996,-0.99604797,0.244141,0.122070,-0.122070
2350625875,0.01264954,0.00350952,-0.99452209,0.244141,0.122070,-0.122070
2355482791,0.01264954,0.00350952,-0.99452209,0.061035,0.244141,-0.122070
2360549916,0.01289368,0.00343323,-0.99496460,0.061035,0.244141,-0.122070
2365593250,0.01289368,0.00343323,-0.99496460,0.061035,0.183105,-0.122070
2370486958,0.01274109,0.00349426,-0.99571228,0.061035,0.183105,-0.122070
2377590375,0.01274109,0.00349426,-0.99571228,-0.061035,0.122070,-0.122070
2380138750,0.01220703,0.00297546,-0.99555969,-0.061035,0.122070,-0.122070
2387388541,0.01220703,0.00297546,-0.99555969,0.183105,0.061035,-0.122070
2389946666,0.01348877,0.00292969,-0.99555969,0.183105,0.061035,-0.122070
2396979791,0.01348877,0.00292969,-0.99555969,0.061035,0.244141,-0.122070
2399513916,0.01277161,0.00399780,-0.99531555,0.061035,0.244141,-0.122070
2407090833,0.01277161,0.00399780,-0.99531555,0.122070,0.122070,-0.122070
2409612958,0.01242065,0.00300598,-0.99461365,0.122070,0.122070,-0.122070
2416939083,0.01242065,0.00300598,-0.99461365,0.000000,0.183105,-0.061035
2419489666,0.01269531,0.00363159,-0.99549866,0.000000,0.183105,-0.061035
2426625791,0.01269531,0.00363159,-0.99549866,0.061035,0.183105,0.000000
2431683333,0.01316833,0.00288391,-0.99479675,0.061035,0.183105,0.000000
2436769916,0.01316833,0.00288391,-0.99479675,0.061035,0.183105,-0.122070
2441851750,0.01345825,0.00270081,-0.99586487,0.061035,0.183105,-0.122070
2446951791,0.01345825,0.00270081,-0.99586487,-0.122070,0.061035,-0.061035
2449494666,0.01287842,0.00256348,-0.99601746,-0.122070,0.061035,-0.061035
2456714458,0.01287842,0.00256348,-0.99601746,0.061035,0.122070,-0.061035
2461385250,0.01332092,0.00325012,-0.99610901,0.061035,0.122070,-0.061035
2466535041,0.01332092,0.00325012,-0.99610901,-0.061035,0.244141,-0.061035
2471501500,0.01425171,0.00291443,-0.99697876,-0.061035,0.244141,-0.061035
2476570458,0.01425171,0.00291443,-0.99697876,0.000000,0.244141,0.000000
2481638500,0.01362610,0.00317383,-0.99642944,0.000000,0.244141,0.000000
2486753333,0.01362610,0.00317383,-0.99642944,0.061035,0.122070,-0.122070
2491943750,0.01298523,0.00299072,-0.99490356,0.061035,0.122070,-0.122070
2496817875,0.01298523,0.00299072,-0.99490356,0.122070,0.183105,0.000000
2501887500,0.01307678,0.00328064,-0.99572754,0.122070,0.183105,0.000000
2506973541,0.01307678,0.00328064,-0.99572754,0.000000,0.000000,-0.061035
2512039666,0.01283264,0.00344849,-0.99523926,0.000000,0.000000,-0.061035
2517077791,0.01283264,0.00344849,-0.99523926,0.000000,0.122070,-0.122070
2522120708,0.01229858,0.00325012,-0.99507141,0.000000,0.122070,-0.122070
2526940625,0.01229858,0.00325012,-0.99507141,0.000000,0.244141,0.061035
2532010833,0.01290894,0.00277710,-0.99482727,0.000000,0.244141,0.061035
2537090208,0.01290894,0.00277710,-0.99482727,0.122070,0.122070,-0.183105
2542090750,0.01269531,0.00326538,-0.99513245,0.122070,0.122070,-0.183105
2546942958,0.01269531,0.00326538,-0.99513245,0.000000,0.122070,-0.122070
2551845125,0.01298523,0.00263977,-0.99525452,0.000000,0.122070,-0.122070
2556629250,0.01298523,0.00263977,-0.99525452,0.061035,0.122070,-0.122070
2561696958,0.01293945,0.00260925,-0.99494934,0.061035,0.122070,-0.122070
2566435750,0.01293945,0.00260925,-0.99494934,0.061035,0.122070,-0.061035
2571512083,0.01248169,0.00268555,-0.99508667,0.061035,0.122070,-0.061035
2578064500,0.01248169,0.00268555,-0.99508667,0.000000,0.122070,-0.061035
2580205000,0.01268005,0.00239563,-0.99600220,0.000000,0.122070,-0.061035
2587603416,0.01268005,0.00239563,-0.99600220,0.122070,0.122070,0.000000
2590152791,0.01251221,0.00254822,-0.99566650,0.122070,0.122070,0.000000
2597745166,0.01251221,0.00254822,-0.99566650,0.000000,0.183105,-0.122070
2600295833,0.01231384,0.00265503,-0.99665833,0.000000,0.183105,-0.122070
2607919083,0.01231384,0.00265503,-0.99665833,0.000000,0.183105,-0.061035
2610465916,0.01330566,0.00311279,-0.99594116,0.000000,0.183105,-0.061035
2618061291,0.01330566,0.00311279,-0.99594116,0.061035,0.244141,-0.061035
2620619083,0.01364136,0.00238037,-0.99661255,0.061035,0.244141,-0.061035
2628234916,0.01364136,0.00238037,-0.99661255,0.061035,0.244141,0.000000
2630629416,0.01264954,0.00273132,-0.99595642,0.061035,0.244141,0.000000
2638220041,0.01264954,0.00273132,-0.99595642,0.000000,0.244141,-0.122070
2640761791,0.01268005,0.00276184,-0.99464417,0.000000,0.244141,-0.122070
2648006375,0.01268005,0.00276184,-0.99464417,0.000000,0.183105,-0.122070
2650447958,0.01264954,0.00283813,-0.99520874,0.000000,0.183105,-0.122070
2657918208,0.01264954,0.00283813,-0.99520874,0.122070,0.183105,-0.061035
2660473000,0.01225281,0.00366211,-0.99450684,0.122070,0.183105,-0.061035
2667820541,0.01225281,0.00366211,-0.99450684,0.061035,0.305176,-0.061035
2670349583,0.01344299,0.00297546,-0.99549866,0.061035,0.305176,-0.061035
2677575000,0.01344299,0.00297546,-0.99549866,0.122070,0.244141,-0.183105
2680102833,0.01348877,0.00389099,-0.99565125,0.122070,0.244141,-0.183105
2687670916,0.01348877,0.00389099,-0.99565125,0.183105,0.122070,-0.061035
2690216666,0.01332092,0.00317383,-0.99497986,0.183105,0.122070,-0.061035
2697304666,0.01332092,0.00317383,-0.99497986,0.061035,0.183105,-0.061035
2701945666,0.01432800,0.00263977,-0.99581909,0.061035,0.183105,-0.061035
2706581791,0.01432800,0.00263977,-0.99581909,0.000000,0.000000,-0.122070
2711662250,0.01329041,0.00263977,-0.99569702,0.000000,0.000000,-0.122070
2716333041,0.01329041,0.00263977,-0.99569702,0.000000,0.183105,-0.061035
2721388166,0.01376343,0.00205994,-0.99545288,0.000000,0.183105,-0.061035
2726447500,0.01376343,0.00205994,-0.99545288,-0.061035,0.122070,-0.122070
2731519500,0.01325989,0.00253296,-0.99569702,-0.061035,0.122070,-0.122070
2736575375,0.01325989,0.00253296,-0.99569702,0.061035,0.122070,-0.122070
2741641875,0.01266479,0.00381470,-0.99508667,0.061035,0.122070,-0.122070
2746702333,0.01266479,0.00381470,-0.99508667,0.061035,0.244141,-0.122070
2751774416,0.01234436,0.00343323,-0.99493408,0.061035,0.244141,-0.122070
2756891458,0.01234436,0.00343323,-0.99493408,0.000000,0.122070,-0.183105
2761955541,0.01269531,0.00370789,-0.99566650,0.000000,0.122070,-0.183105
2767023750,0.01269531,0.00370789,-0.99566650,0.000000,0.122070,-0.183105
2771802291,0.01361084,0.00416565,-0.99491882,0.000000,0.122070,-0.183105
2776884750,0.01361084,0.00416565,-0.99491882,0.000000,0.061035,-0.061035
2781956250,0.01347351,0.00404358,-0.99533081,0.000000,0.061035,-0.061035
2786959333,0.01347351,0.00404358,-0.99533081,0.122070,0.183105,-0.061035
2791538166,0.01275635,0.00404358,-0.99641418,0.122070,0.183105,-0.061035
2796605416,0.01275635,0.00404358,-0.99641418,0.000000,0.244141,-0.183105
2801759750,0.01330566,0.00279236,-0.99565125,0.000000,0.244141,-0.183105
2806841375,0.01330566,0.00279236,-0.99565125,0.061035,0.122070,-0.122070
2811933791,0.01303101,0.00315857,-0.99554443,0.061035,0.122070,-0.122070
2817026541,0.01303101,0.00315857,-0.99554443,0.183105,0.305176,-0.122070
2822089000,0.01281738,0.00341797,-0.99464417,0.183105,0.305176,-0.122070
2827130208,0.01281738,0.00341797,-0.99464417,0.061035,0.061035,-0.061035
2832178708,0.01235962,0.00265503,-0.99525452,0.061035,0.061035,-0.061035
2837235958,0.01235962,0.00265503,-0.99525452,0.061035,0.244141,0.000000
2841800708,0.01268005,0.00222778,-0.99552917,0.061035,0.244141,0.000000
2849411083,0.01268005,0.00222778,-0.99552917,0.122070,0.122070,-0.122070
2851959125,0.01257324,0.00212097,-0.99574280,0.122070,0.122070,-0.122070
2857028500,0.01257324,0.00212097,-0.99574280,-0.061035,0.061035,-0.122070
2861696666,0.01394653,0.00338745,-0.99581909,-0.061035,0.061035,-0.122070
2869311041,0.01394653,0.00338745,-0.99581909,0.122070,0.122070,-0.122070
2871872208,0.01293945,0.00369263,-0.99536133,0.122070,0.122070,-0.122070
2876948500,0.01293945,0.00369263,-0.99536133,-0.061035,0.183105,-0.061035
2881650958,0.01336670,0.00354004,-0.99597168,-0.061035,0.183105,-0.061035
2889293208,0.01336670,0.00354004,-0.99597168,0.061035,0.183105,-0.061035
2891846750,0.01321411,0.00364685,-0.99552917,0.061035,0.183105,-0.061035
2898970208,0.01321411,0.00364685,-0.99552917,0.061035,0.122070,-0.122070
2901578791,0.01278687,0.00311279,-0.99449158,0.061035,0.122070,-0.122070
2908912333,0.01278687,0.00311279,-0.99449158,-0.061035,0.183105,0.000000
2911458666,0.01228333,0.00259399,-0.99557495,-0.061035,0.183105,0.000000
2919086000,0.01228333,0.00259399,-0.99557495,0.000000,0.183105,-0.122070
2921509250,0.01156616,0.00323486,-0.99581909,0.000000,0.183105,-0.122070
2929115500,0.01156616,0.00323486,-0.99581909,0.000000,0.122070,-0.122070
2931665333,0.01226807,0.00270081,-0.99601746,0.000000,0.122070,-0.122070
2939060875,0.01226807,0.00270081,-0.99601746,0.061035,0.122070,-0.122070
2941609166,0.01309204,0.00222778,-0.99557495,0.061035,0.122070,-0.122070
2949062666,0.01309204,0.00222778,-0.99557495,0.000000,0.183105,-0.061035
2951604291,0.01232910,0.00360107,-0.99519348,0.000000,0.183105,-0.061035
2959200958,0.01232910,0.00360107,-0.99519348,0.061035,0.122070,-0.183105
2961746333,0.01306152,0.00286865,-0.99508667,0.061035,0.122070,-0.183105
2969396833,0.01306152,0.00286865,-0.99508667,0.244141,0.305176,0.000000
2971976208,0.01301575,0.00205994,-0.99638367,0.244141,0.305176,0.000000
2979194291,0.01301575,0.00205994,-0.99638367,0.122070,0.244141,-0.122070
2981718250,0.01281738,0.00285339,-0.99525452,0.122070,0.244141,-0.122070
2989283125,0.01281738,0.00285339,-0.99525452,0.000000,0.183105,-0.122070
2991811125,0.01266479,0.00344849,-0.99530029,0.000000,0.183105,-0.122070
2999311916,0.01266479,0.00344849,-0.99530029,0.122070,0.183105,-0.122070
3001836666,0.01325989,0.00286865,-0.99496460,0.122070,0.183105,-0.122070
3009424750,0.01325989,0.00286865,-0.99496460,0.183105,0.183105,0.000000
3011972625,0.01278687,0.00395203,-0.99627686,0.183105,0.183105,0.000000
3017025458,0.01278687,0.00395203,-0.99627686,-0.061035,0.244141,-0.122070
3022055291,0.01289368,0.00328064,-0.99644470,-0.061035,0.244141,-0.122070
3027121125,0.01289368,0.00328064,-0.99644470,0.122070,0.244141,-0.061035
3032178708,0.01222229,0.00273132,-0.99531555,0.122070,0.244141,-0.061035
3037254458,0.01222229,0.00273132,-0.99531555,0.000000,0.183105,-0.061035
3042317041,0.01217651,0.00395203,-0.99658203,0.000000,0.183105,-0.061035
3047379750,0.01217651,0.00395203,-0.99658203,0.122070,0.122070,-0.122070
3052461458,0.01281738,0.00393677,-0.99609375,0.122070,0.122070,-0.122070
3057530333,0.01281738,0.00393677,-0.99609375,0.122070,0.183105,-0.122070
3062616083,0.01379395,0.00402832,-0.99623108,0.122070,0.183105,-0.122070
3067694166,0.01379395,0.00402832,-0.99623108,0.061035,0.244141,-0.061035
3072789250,0.01300049,0.00372314,-0.99478149,0.061035,0.244141,-0.061035
3077766750,0.01300049,0.00372314,-0.99478149,0.000000,0.244141,-0.183105
3082833833,0.01300049,0.00320435,-0.99658203,0.000000,0.244141,-0.183105
3087914458,0.01300049,0.00320435,-0.99658203,0.061035,0.183105,-0.122070
3092814375,0.01420593,0.00302124,-0.99545288,0.061035,0.183105,-0.122070
3097888833,0.01420593,0.00302124,-0.99545288,0.183105,0.183105,-0.122070
3102955375,0.01309204,0.00148010,-0.99552917,0.183105,0.183105,-0.122070
3108020708,0.01309204,0.00148010,-0.99552917,0.000000,0.183105,-0.183105
3113088250,0.01310730,0.00190735,-0.99520874,0.000000,0.183105,-0.183105
3118166541,0.01310730,0.00190735,-0.99520874,0.000000,0.122070,-0.122070
3123234416,0.01234436,0.00299072,-0.99516296,0.000000,0.122070,-0.122070
3128306083,0.01234436,0.00299072,-0.99516296,0.061035,0.183105,-0.183105
3133173333,0.01341248,0.00431824,-0.99565125,0.061035,0.183105,-0.183105
3138215333,0.01341248,0.00431824,-0.99565125,0.061035,0.061035,-0.244141
3142839375,0.01315308,0.00378418,-0.99606323,0.061035,0.061035,-0.244141
3147915125,0.01315308,0.00378418,-0.99606323,0.000000,0.122070,-0.183105
3152858458,0.01272583,0.00291443,-0.99523926,0.000000,0.122070,-0.183105
3157627875,0.01272583,0.00291443,-0.99523926,0.061035,0.122070,-0.183105
3162222583,0.01260376,0.00325012,-0.99502563,0.061035,0.122070,-0.183105
3169616416,0.01260376,0.00325012,-0.99502563,-0.122070,0.244141,0.000000
3172158250,0.01281738,0.00386047,-0.99533081,-0.122070,0.244141,0.000000
3179729750,0.01281738,0.00386047,-0.99533081,-0.061035,0.122070,-0.183105
3182262916,0.01333618,0.00312805,-0.99723816,-0.061035,0.122070,-0.183105
3189306458,0.01333618,0.00312805,-0.99723816,0.000000,0.244141,0.000000
3191876541,0.01371765,0.00352478,-0.99400330,0.000000,0.244141,0.000000
3199472125,0.01371765,0.00352478,-0.99400330,0.061035,0.122070,-0.061035
3202026875,0.01330566,0.00370789,-0.99639893,0.061035,0.122070,-0.061035
3209234958,0.01330566,0.00370789,-0.99639893,0.000000,0.122070,0.000000
3211775666,0.01258850,0.00405884,-0.99609375,0.000000,0.122070,0.000000
3219343666,0.01258850,0.00405884,-0.99609375,-0.061035,0.183105,-0.183105
3221894208,0.01245117,0.00421143,-0.99539185,-0.061035,0.183105,-0.183105
3229493375,0.01245117,0.00421143,-0.99539185,0.000000,0.183105,0.000000
3232043208,0.01301575,0.00338745,-0.99574280,0.000000,0.183105,0.000000
3239252125,0.01301575,0.00338745,-0.99574280,0.061035,0.183105,0.000000
3241797500,0.01307678,0.00199890,-0.99574280,0.061035,0.183105,0.000000
3249410291,0.01307678,0.00199890,-0.99574280,0.000000,0.244141,0.000000
3251966916,0.01240540,0.00227356,-0.99621582,0.000000,0.244141,0.000000
3259359583,0.01240540,0.00227356,-0.99621582,-0.061035,0.244141,0.000000
3261904708,0.01371765,0.00238037,-0.99504089,-0.061035,0.244141,0.000000
3269542958,0.01371765,0.00238037,-0.99504089,0.183105,0.183105,-0.061035
3272092708,0.01335144,0.00262451,-0.99467468,0.183105,0.183105,-0.061035
3279474791,0.01335144,0.00262451,-0.99467468,-0.061035,0.244141,-0.122070
3282020041,0.01176453,0.00292969,-0.99458313,-0.061035,0.244141,-0.122070
3289204875,0.01176453,0.00292969,-0.99458313,0.061035,0.244141,-0.122070
3291740916,0.01255798,0.00248718,-0.99592590,0.061035,0.244141,-0.122070
3299302541,0.01255798,0.00248718,-0.99592590,0.183105,0.244141,0.000000
3301846333,0.01274109,0.00260925,-0.99499512,0.183105,0.244141,0.000000
3309426166,0.01274109,0.00260925,-0.99499512,0.061035,0.183105,-0.122070
3311956375,0.01296997,0.00300598,-0.99577332,0.061035,0.183105,-0.122070
3319514541,0.01296997,0.00300598,-0.99577332,0.000000,0.183105,-0.061035
3322046250,0.01254272,0.00315857,-0.99530029,0.000000,0.183105,-0.061035
3329482791,0.01254272,0.00315857,-0.99530029,0.244141,0.122070,-0.061035
3332045250,0.01312256,0.00282288,-0.99534607,0.244141,0.122070,-0.061035
3339656166,0.01312256,0.00282288,-0.99534607,0.061035,0.122070,-0.122070
3342203500,0.01403809,0.00346375,-0.99589539,0.061035,0.122070,-0.122070
3349058333,0.01403809,0.00346375,-0.99589539,0.061035,0.000000,0.000000
3351603250,0.01300049,0.00257874,-0.99540710,0.061035,0.000000,0.000000
3359210500,0.01300049,0.00257874,-0.99540710,0.122070,0.183105,-0.122070
3361763750,0.01219177,0.00155640,-0.99586487,0.122070,0.183105,-0.122070
3369365875,0.01219177,0.00155640,-0.99586487,0.000000,0.183105,-0.061035
3374433375,0.01251221,0.00225830,-0.99528503,0.000000,0.183105,-0.061035
3379496625,0.01251221,0.00225830,-0.99528503,0.122070,0.244141,-0.061035
3382071541,0.01296997,0.00225830,-0.99485779,0.122070,0.244141,-0.061035
3389038083,0.01296997,0.00225830,-0.99485779,0.183105,0.061035,-0.305176
3394135708,0.01443481,0.00276184,-0.99488831,0.183105,0.061035,-0.305176
3399090750,0.01443481,0.00276184,-0.99488831,0.000000,0.366211,-0.061035
3404158833,0.01272583,0.00318909,-0.99613953,0.000000,0.366211,-0.061035
3409244166,0.01272583,0.00318909,-0.99613953,0.183105,0.244141,-0.061035
3414323000,0.01301575,0.00346375,-0.99499512,0.183105,0.244141,-0.061035
3418912291,0.01301575,0.00346375,-0.99499512,0.061035,0.061035,0.000000
3423749416,0.01510620,0.00370789,-0.99468994,0.061035,0.061035,0.000000
3428818333,0.01510620,0.00370789,-0.99468994,0.061035,0.183105,-0.122070
3433538500,0.01382446,0.00473022,-0.99600220,0.061035,0.183105,-0.122070
3438574208,0.01382446,0.00473022,-0.99600220,0.061035,0.183105,0.000000
3443621750,0.01217651,0.00489807,-0.99516296,0.061035,0.183105,0.000000
3448666041,0.01217651,0.00489807,-0.99516296,0.000000,0.183105,-0.061035
3453708375,0.01336670,0.00466919,-0.99560547,0.000000,0.183105,-0.061035
3458768000,0.01336670,0.00466919,-0.99560547,-0.061035,0.244141,-0.122070
3463545083,0.01287842,0.00578308,-0.99597168,-0.061035,0.244141,-0.122070
3468617750,0.01287842,0.00578308,-0.99597168,0.061035,0.244141,-0.122070
3473546875,0.01206970,0.00555420,-0.99526978,0.061035,0.244141,-0.122070
3478626958,0.01206970,0.00555420,-0.99526978,0.000000,0.244141,-0.122070
3483673583,0.01261902,0.00430298,-0.99382019,0.000000,0.244141,-0.122070
3488452208,0.01261902,0.00430298,-0.99382019,0.000000,0.061035,-0.183105
3493525916,0.01405334,0.00303650,-0.99507141,0.000000,0.061035,-0.183105
3498623208,0.01405334,0.00303650,-0.99507141,0.122070,0.183105,-0.122070
3503544375,0.01379395,0.00154114,-0.99594116,0.122070,0.183105,-0.122070
3508620208,0.01379395,0.00154114,-0.99594116,0.122070,0.122070,0.000000
3513541291,0.01260376,0.00155640,-0.99520874,0.122070,0.122070,0.000000
3518614208,0.01260376,0.00155640,-0.99520874,0.122070,0.244141,-0.183105
3523698583,0.01295471,0.00144958,-0.99594116,0.122070,0.244141,-0.183105
3528775791,0.01295471,0.00144958,-0.99594116,0.061035,0.183105,-0.122070
3533776083,0.01329041,0.00137329,-0.99499512,0.061035,0.183105,-0.122070
3538858666,0.01329041,0.00137329,-0.99499512,0.000000,0.122070,-0.061035
3543842750,0.01138306,0.00115967,-0.99482727,0.000000,0.122070,-0.061035
3548917500,0.01138306,0.00115967,-0.99482727,0.000000,0.244141,-0.122070
3554011791,0.01171875,0.00111389,-0.99523926,0.000000,0.244141,-0.122070
3559102125,0.01171875,0.00111389,-0.99523926,0.122070,0.244141,-0.061035
3564186458,0.01278687,0.00244141,-0.99636841,0.122070,0.244141,-0.061035
3569263291,0.01278687,0.00244141,-0.99636841,0.122070,0.122070,-0.122070
3573963500,0.01258850,0.00382996,-0.99526978,0.122070,0.122070,-0.122070
3579054500,0.01258850,0.00382996,-0.99526978,0.061035,0.122070,-0.061035
3584132958,0.01242065,0.00396729,-0.99523926,0.061035,0.122070,-0.061035
3589218833,0.01242065,0.00396729,-0.99523926,0.061035,0.244141,0.000000
3594301875,0.01329041,0.00566101,-0.99557495,0.061035,0.244141,0.000000
3599367416,0.01329041,0.00566101,-0.99557495,0.122070,0.183105,-0.061035
3604421208,0.01234436,0.00556946,-0.99545288,0.122070,0.183105,-0.061035
3609461333,0.01234436,0.00556946,-0.99545288,0.122070,0.244141,-0.061035
3614522416,0.01374817,0.00454712,-0.99493408,0.122070,0.244141,-0.061035
3619567083,0.01374817,0.00454712,-0.99493408,0.183105,0.061035,-0.061035
3622121416,0.01379395,0.00381470,-0.99588013,0.183105,0.061035,-0.061035
3629692125,0.01379395,0.00381470,-0.99588013,0.000000,0.183105,-0.061035
3632204708,0.01324463,0.00292969,-0.99632263,0.000000,0.183105,-0.061035
3639797541,0.01324463,0.00292969,-0.99632263,0.061035,0.122070,-0.183105
3642339333,0.01318359,0.00241089,-0.99470520,0.061035,0.122070,-0.183105
3649947666,0.01318359,0.00241089,-0.99470520,0.000000,0.183105,-0.183105
3652471541,0.01435852,0.00250244,-0.99540710,0.000000,0.183105,-0.183105
3660101583,0.01435852,0.00250244,-0.99540710,0.000000,0.000000,-0.122070
3662654625,0.01461792,0.00230408,-0.99545288,0.000000,0.000000,-0.122070
3670262000,0.01461792,0.00230408,-0.99545288,0.061035,0.183105,-0.122070
3672814625,0.01345825,0.00219727,-0.99468994,0.061035,0.183105,-0.122070
3679987833,0.01345825,0.00219727,-0.99468994,0.061035,0.366211,-0.061035
3682557958,0.01325989,0.00166321,-0.99525452,0.061035,0.366211,-0.061035
3689855125,0.01325989,0.00166321,-0.99525452,0.122070,0.183105,-0.183105
3692398375,0.01217651,0.00201416,-0.99440002,0.122070,0.183105,-0.183105
3700031666,0.01217651,0.00201416,-0.99440002,0.122070,0.183105,0.000000
3704640583,0.01170349,0.00270081,-0.99491882,0.122070,0.183105,0.000000
3709807708,0.01170349,0.00270081,-0.99491882,0.061035,0.305176,-0.061035
3712386250,0.01361084,0.00370789,-0.99497986,0.061035,0.305176,-0.061035
3720019333,0.01361084,0.00370789,-0.99497986,0.122070,0.244141,-0.061035
3724735000,0.01290894,0.00491333,-0.99531555,0.122070,0.244141,-0.061035
3729802791,0.01290894,0.00491333,-0.99531555,0.061035,0.183105,0.000000
3734880875,0.01148987,0.00439453,-0.99649048,0.061035,0.183105,0.000000
3739966500,0.01148987,0.00439453,-0.99649048,0.122070,0.183105,-0.183105
3742506041,0.01298523,0.00379944,-0.99554443,0.122070,0.183105,-0.183105
3750059458,0.01298523,0.00379944,-0.99554443,0.061035,0.183105,-0.061035
3754655500,0.01254272,0.00361633,-0.99497986,0.061035,0.183105,-0.061035
3759232916,0.01254272,0.00361633,-0.99497986,0.183105,0.183105,-0.061035
3764282916,0.01300049,0.00428772,-0.99560547,0.183105,0.183105,-0.061035
3769358333,0.01300049,0.00428772,-0.99560547,0.061035,0.122070,-0.061035
3774405875,0.01428223,0.00404358,-0.99494934,0.061035,0.122070,-0.061035
3779448666,0.01428223,0.00404358,-0.99494934,0.183105,0.244141,-0.061035
3784496250,0.01318359,0.00329590,-0.99501038,0.183105,0.244141,-0.061035
3789547208,0.01318359,0.00329590,-0.99501038,0.122070,0.122070,0.000000
3794620666,0.01277161,0.00325012,-0.99652100,0.122070,0.122070,0.000000
3799687250,0.01277161,0.00325012,-0.99652100,0.122070,0.122070,-0.122070
3804760125,0.01185608,0.00155640,-0.99549866,0.122070,0.122070,-0.122070
3809838916,0.01185608,0.00155640,-0.99549866,0.122070,0.305176,-0.061035
3814927125,0.01173401,0.00091553,-0.99475098,0.122070,0.305176,-0.061035
3820004541,0.01173401,0.00091553,-0.99475098,0.122070,0.305176,-0.061035
3825108708,0.01277161,0.00198364,-0.99514771,0.122070,0.305176,-0.061035
3830187458,0.01277161,0.00198364,-0.99514771,0.122070,0.305176,0.061035
3835260208,0.01385498,0.00289917,-0.99656677,0.122070,0.305176,0.061035
3840339958,0.01385498,0.00289917,-0.99656677,0.000000,0.183105,-0.061035
3845390125,0.01330566,0.00279236,-0.99645996,0.000000,0.183105,-0.061035
3850481125,0.01330566,0.00279236,-0.99645996,0.183105,0.244141,-0.061035
3855557041,0.01405334,0.00299072,-0.99497986,0.183105,0.244141,-0.061035
3860329333,0.01405334,0.00299072,-0.99497986,0.122070,0.183105,-0.122070
3865404250,0.01368713,0.00338745,-0.99577332,0.122070,0.183105,-0.122070
3870347125,0.01368713,0.00338745,-0.99577332,0.061035,0.122070,-0.122070
3875419541,0.01338196,0.00358582,-0.99621582,0.061035,0.122070,-0.122070
3880548916,0.01338196,0.00358582,-0.99621582,0.122070,0.122070,-0.244141
3885219708,0.01387024,0.00346375,-0.99615479,0.122070,0.122070,-0.244141
3890301708,0.01387024,0.00346375,-0.99615479,0.122070,0.244141,-0.122070
3895372250,0.01333618,0.00291443,-0.99491882,0.122070,0.244141,-0.122070
3900456625,0.01333618,0.00291443,-0.99491882,0.061035,0.122070,-0.061035
3903066875,0.01300049,0.00306702,-0.99525452,0.061035,0.122070,-0.061035
3910321208,0.01300049,0.00306702,-0.99525452,0.122070,0.183105,-0.061035
3915364208,0.01249695,0.00369263,-0.99575806,0.122070,0.183105,-0.061035
3920341833,0.01249695,0.00369263,-0.99575806,0.000000,0.122070,-0.122070
3925074166,0.01277161,0.00262451,-0.99440002,0.000000,0.122070,-0.122070
3929545000,0.01277161,0.00262451,-0.99440002,0.122070,0.183105,-0.183105
3934132958,0.01252747,0.00306702,-0.99443054,0.122070,0.183105,-0.183105
3941042875,0.01252747,0.00306702,-0.99443054,0.061035,0.183105,-0.061035
3943576416,0.01312256,0.00282288,-0.99559021,0.061035,0.183105,-0.061035
3951170916,0.01312256,0.00282288,-0.99559021,0.061035,0.305176,-0.061035
3953680333,0.01268005,0.00251770,-0.99519348,0.061035,0.305176,-0.061035
3961301875,0.01268005,0.00251770,-0.99519348,0.000000,0.183105,-0.183105
3963845500,0.01364136,0.00280762,-0.99519348,0.000000,0.183105,-0.183105
3971234000,0.01364136,0.00280762,-0.99519348,0.122070,0.122070,-0.061035
3973782000,0.01380920,0.00347900,-0.99467468,0.122070,0.122070,-0.061035
3981179125,0.01380920,0.00347900,-0.99467468,-0.061035,0.122070,0.000000
3983407833,0.01339722,0.00445557,-0.99458313,-0.061035,0.122070,0.000000
3991069708,0.01339722,0.00445557,-0.99458313,0.061035,0.183105,-0.061035
3993552208,0.01318359,0.00526428,-0.99589539,0.061035,0.183105,-0.061035
4000729041,0.01318359,0.00526428,-0.99589539,0.061035,0.183105,-0.061035
4003285541,0.01200867,0.00462341,-0.99502563,0.061035,0.183105,-0.061035
4010655208,0.01200867,0.00462341,-0.99502563,0.000000,0.122070,-0.061035
4013196500,0.01432800,0.00393677,-0.99473572,0.000000,0.122070,-0.061035
4020346541,0.01432800,0.00393677,-0.99473572,0.122070,0.183105,-0.122070
4025211958,0.01356506,0.00378418,-0.99542236,0.122070,0.183105,-0.122070
4029921208,0.01356506,0.00378418,-0.99542236,0.122070,0.183105,-0.061035
4034556250,0.01348877,0.00378418,-0.99528503,0.122070,0.183105,-0.061035
4039478958,0.01348877,0.00378418,-0.99528503,0.122070,0.183105,-0.122070
4044552875,0.01286316,0.00376892,-0.99574280,0.122070,0.183105,-0.122070
4049618500,0.01286316,0.00376892,-0.99574280,0.122070,0.183105,-0.061035
4054699958,0.01347351,0.00302124,-0.99502563,0.122070,0.183105,-0.061035
4061801375,0.01347351,0.00302124,-0.99502563,0.061035,0.122070,0.000000
4063964916,0.01336670,0.00209045,-0.99472046,0.061035,0.122070,0.000000
4071137750,0.01336670,0.00209045,-0.99472046,0.000000,0.183105,-0.122070
4073665541,0.01295471,0.00175476,-0.99488831,0.000000,0.183105,-0.122070
4081260208,0.01295471,0.00175476,-0.99488831,0.122070,0.183105,-0.122070
4083791875,0.01206970,0.00186157,-0.99484253,0.122070,0.183105,-0.122070
4091370750,0.01206970,0.00186157,-0.99484253,0.061035,0.244141,-0.061035
4093910583,0.01306152,0.00251770,-0.99501038,0.061035,0.244141,-0.061035
4101500541,0.01306152,0.00251770,-0.99501038,0.000000,0.183105,-0.061035
4104037916,0.01321411,0.00196838,-0.99392700,0.000000,0.183105,-0.061035
4111618125,0.01321411,0.00196838,-0.99392700,0.122070,0.183105,-0.061035
4114165083,0.01332092,0.00233459,-0.99546814,0.122070,0.183105,-0.061035
4121564208,0.01332092,0.00233459,-0.99546814,0.000000,0.244141,-0.061035
4124108541,0.01428223,0.00373840,-0.99575806,0.000000,0.244141,-0.061035
4131700875,0.01428223,0.00373840,-0.99575806,0.122070,0.183105,-0.122070
4134248750,0.01295471,0.00387573,-0.99496460,0.122070,0.183105,-0.122070
4141844833,0.01295471,0.00387573,-0.99496460,-0.061035,0.122070,-0.122070
4144385750,0.01347351,0.00340271,-0.99534607,-0.061035,0.122070,-0.122070
4151980750,0.01347351,0.00340271,-0.99534607,0.061035,0.183105,-0.061035
4154533083,0.01399231,0.00422668,-0.99578857,0.061035,0.183105,-0.061035
4162131666,0.01399231,0.00422668,-0.99578857,0.061035,0.244141,-0.061035
4164670583,0.01309204,0.00369263,-0.99592590,0.061035,0.244141,-0.061035
4172179166,0.01309204,0.00369263,-0.99592590,0.000000,0.305176,0.000000
4174737958,0.01316833,0.00344849,-0.99620056,0.000000,0.305176,0.000000
4182206958,0.01316833,0.00344849,-0.99620056,0.061035,0.183105,-0.061035
4184307250,0.01164246,0.00315857,-0.99647522,0.061035,0.183105,-0.061035
4191932750,0.01164246,0.00315857,-0.99647522,0.122070,0.244141,-0.122070
4194528083,0.01281738,0.00338745,-0.99617004,0.122070,0.244141,-0.122070
4202140125,0.01281738,0.00338745,-0.99617004,-0.061035,0.183105,-0.183105
4204701750,0.01298523,0.00234985,-0.99555969,-0.061035,0.183105,-0.183105
4212195416,0.01298523,0.00234985,-0.99555969,0.061035,0.305176,-0.061035
4214749375,0.01300049,0.00274658,-0.99662781,0.061035,0.305176,-0.061035
4222319125,0.01300049,0.00274658,-0.99662781,0.122070,0.183105,-0.061035
4224847708,0.01335144,0.00205994,-0.99526978,0.122070,0.183105,-0.061035
4232204708,0.01335144,0.00205994,-0.99526978,0.061035,0.061035,-0.183105
4234361541,0.01423645,0.00109863,-0.99496460,0.061035,0.061035,-0.183105
4241798916,0.01423645,0.00109863,-0.99496460,0.122070,0.122070,-0.122070
4244354916,0.01289368,0.00227356,-0.99427795,0.122070,0.122070,-0.122070
4251938458,0.01289368,0.00227356,-0.99427795,-0.061035,0.244141,-0.061035
4254469541,0.01223755,0.00283813,-0.99473572,-0.061035,0.244141,-0.061035
4262057291,0.01223755,0.00283813,-0.99473572,0.061035,0.183105,-0.122070
4264597000,0.01365662,0.00175476,-0.99644470,0.061035,0.183105,-0.122070
4272214625,0.01365662,0.00175476,-0.99644470,0.061035,0.122070,-0.061035
4274767666,0.01185608,0.00256348,-0.99520874,0.061035,0.122070,-0.061035
4282367958,0.01185608,0.00256348,-0.99520874,-0.061035,0.122070,-0.061035
4284922541,0.01300049,0.00297546,-0.99540710,-0.061035,0.122070,-0.061035
4292556833,0.01300049,0.00297546,-0.99540710,0.000000,0.122070,-0.061035
4295135666,0.01350403,0.00460815,-0.99578857,0.000000,0.122070,-0.061035
4300215375,0.01350403,0.00460815,-0.99578857,0.061035,0.183105,0.000000
4305106541,0.01324463,0.00549316,-0.99676514,0.061035,0.183105,0.000000
4310192666,0.01324463,0.00549316,-0.99676514,0.061035,0.183105,-0.061035
4315278791,0.01148987,0.00424194,-0.99574280,0.061035,0.183105,-0.061035
4322511166,0.01148987,0.00424194,-0.99574280,0.000000,0.305176,0.000000
4325060708,0.01284790,0.00488281,-0.99473572,0.000000,0.305176,0.000000
4330130583,0.01284790,0.00488281,-0.99473572,0.122070,0.244141,-0.061035
4334869916,0.01303101,0.00408936,-0.99633789,0.122070,0.244141,-0.061035
4341599708,0.01303101,0.00408936,-0.99633789,0.000000,0.122070,-0.183105
4344152125,0.01348877,0.00306702,-0.99583435,0.000000,0.122070,-0.183105
4351750458,0.01348877,0.00306702,-0.99583435,0.244141,-0.061035,-0.183105
4354295333,0.01382446,0.00245667,-0.99353027,0.244141,-0.061035,-0.183105
4361896041,0.01382446,0.00245667,-0.99353027,0.000000,0.000000,-0.061035
4364437875,0.01307678,0.00201416,-0.99342346,0.000000,0.000000,-0.061035
4371739083,0.01307678,0.00201416,-0.99342346,-0.366211,0.305176,-0.122070
4374272541,0.01396179,0.00190735,-0.99913025,-0.366211,0.305176,-0.122070
4381849750,0.01396179,0.00190735,-0.99913025,0.122070,0.000000,0.000000
4384388625,0.01449585,0.00276184,-0.99685669,0.122070,0.000000,0.000000
4392068583,0.01449585,0.00276184,-0.99685669,-0.061035,0.244141,-0.122070
4394637416,0.01394653,0.00247192,-0.99333191,-0.061035,0.244141,-0.122070
4402214333,0.01394653,0.00247192,-0.99333191,0.122070,0.305176,-0.061035
4404777833,0.01252747,0.00413513,-0.99684143,0.122070,0.305176,-0.061035
4412095083,0.01252747,0.00413513,-0.99684143,0.122070,0.183105,-0.183105
4414652500,0.01245117,0.00387573,-0.99378967,0.122070,0.183105,-0.183105
4422251208,0.01245117,0.00387573,-0.99378967,0.122070,0.244141,-0.183105
4424792208,0.01312256,0.00378418,-0.99508667,0.122070,0.244141,-0.183105
4431998000,0.01312256,0.00378418,-0.99508667,0.000000,0.061035,-0.061035
4434554833,0.01118469,0.00494385,-0.99638367,0.000000,0.061035,-0.061035
4441778541,0.01118469,0.00494385,-0.99638367,0.061035,0.244141,-0.122070
4444324208,0.01089478,0.00511169,-0.99610901,0.061035,0.244141,-0.122070
4451839333,0.01089478,0.00511169,-0.99610901,-0.061035,0.183105,-0.061035
4454386166,0.01083374,0.00386047,-0.99584961,-0.061035,0.183105,-0.061035
4461820750,0.01083374,0.00386047,-0.99584961,-0.061035,0.244141,-0.061035
4464379208,0.01295471,0.00334167,-0.99267578,-0.061035,0.244141,-0.061035
4472056666,0.01295471,0.00334167,-0.99267578,0.244141,0.183105,0.000000
4474609458,0.01370239,0.00271606,-0.99787903,0.244141,0.183105,0.000000
4482086875,0.01370239,0.00271606,-0.99787903,-0.061035,0.061035,-0.061035
4484630666,0.01385498,0.00132751,-0.99147034,-0.061035,0.061035,-0.061035
4492241416,0.01385498,0.00132751,-0.99147034,0.061035,0.244141,-0.183105
4494575791,0.01411438,0.00044250,-0.99551392,0.061035,0.244141,-0.183105
4502202125,0.01411438,0.00044250,-0.99551392,0.061035,0.061035,-0.244141
4504753666,0.01344299,0.00155640,-0.99522400,0.061035,0.061035,-0.244141
4512369500,0.01344299,0.00155640,-0.99522400,0.000000,0.183105,0.000000
4514959791,0.01304626,0.00302124,-0.99559021,0.000000,0.183105,0.000000
4522661333,0.01304626,0.00302124,-0.99559021,0.488281,0.000000,-0.122070
4525203875,0.01289368,0.00396729,-0.99560547,0.488281,0.000000,-0.122070
4532804250,0.01289368,0.00396729,-0.99560547,0.183105,0.244141,0.000000
4535339500,0.01234436,0.00466919,-0.98687744,0.183105,0.244141,0.000000
4542790750,0.01234436,0.00466919,-0.98687744,0.427246,0.122070,-0.183105
4545367375,0.01220703,0.00514221,-1.00064087,0.427246,0.122070,-0.183105
4552853291,0.01220703,0.00514221,-1.00064087,-0.427246,0.122070,-0.122070
4555414333,0.01312256,0.00524902,-0.99826050,-0.427246,0.122070,-0.122070
4560473625,0.01312256,0.00524902,-0.99826050,1.098633,0.183105,-0.244141
4565533666,0.01252747,0.00509644,-0.99894714,1.098633,0.183105,-0.244141
4570606750,0.01252747,0.00509644,-0.99894714,-0.732422,0.183105,-0.122070
4575295708,0.01364136,0.00335693,-0.98475647,-0.732422,0.183105,-0.122070
4581993750,0.01364136,0.00335693,-0.98475647,0.183105,0.244141,-0.122070
4584451250,0.01391602,0.00125122,-1.00874329,0.183105,0.244141,-0.122070
4592083041,0.01391602,0.00125122,-1.00874329,0.061035,0.122070,-0.183105
4594631458,0.01380920,0.00096130,-0.98770142,0.061035,0.122070,-0.183105
4602233458,0.01380920,0.00096130,-0.98770142,-0.061035,0.183105,-0.183105
4604780625,0.01235962,0.00120544,-0.99931335,-0.061035,0.183105,-0.183105
4612265708,0.01235962,0.00120544,-0.99931335,0.061035,0.183105,-0.244141
4614807958,0.01185608,0.00254822,-0.99374390,0.061035,0.183105,-0.244141
4622413125,0.01185608,0.00254822,-0.99374390,0.061035,0.244141,0.000000
4624959541,0.01260376,0.00216675,-0.99693298,0.061035,0.244141,0.000000
4632563958,0.01260376,0.00216675,-0.99693298,1.037598,0.122070,-0.122070
4635117208,0.01254272,0.00355530,-0.99182129,1.037598,0.122070,-0.122070
4642753916,0.01254272,0.00355530,-0.99182129,-0.915527,0.244141,-0.183105
4645325500,0.01376343,0.00502014,-0.98741150,-0.915527,0.244141,-0.183105
4652971250,0.01376343,0.00502014,-0.98741150,0.427246,0.122070,0.000000
4655527041,0.01345825,0.00556946,-1.01654053,0.427246,0.122070,0.000000
4663137291,0.01345825,0.00556946,-1.01654053,1.037598,0.061035,-0.183105
4665711916,0.01446533,0.00750732,-0.98146057,1.037598,0.061035,-0.183105
4673321041,0.01446533,0.00750732,-0.98146057,-0.366211,0.305176,-0.122070
4675597375,0.01330566,0.00616455,-0.99137878,-0.366211,0.305176,-0.122070
4683192416,0.01330566,0.00616455,-0.99137878,-0.122070,0.183105,-0.061035
4685744458,0.01409912,0.00433350,-1.00384521,-0.122070,0.183105,-0.061035
4693309750,0.01409912,0.00433350,-1.00384521,0.244141,0.122070,-0.122070
4695872333,0.01350403,0.00285339,-0.99363708,0.244141,0.122070,-0.122070
4703513750,0.01350403,0.00285339,-0.99363708,-0.244141,0.305176,-0.122070
4706069708,0.01275635,0.00048828,-0.99626160,-0.244141,0.305176,-0.122070
4711120625,0.01275635,0.00048828,-0.99626160,-0.061035,0.244141,-0.183105
4716157458,0.01387024,0.00090027,-0.99662781,-0.061035,0.244141,-0.183105
4721200083,0.01387024,0.00090027,-0.99662781,-0.122070,0.183105,-0.061035
4726031666,0.01312256,0.00061035,-0.99748230,-0.122070,0.183105,-0.061035
4731083041,0.01312256,0.00061035,-0.99748230,-0.549316,0.366211,-0.183105
4735994125,0.01159668,-0.00027466,-0.99246216,-0.549316,0.366211,-0.183105
4743228333,0.01159668,-0.00027466,-0.99246216,0.427246,0.061035,-0.122070
4745769666,0.01216125,-0.00027466,-0.99909973,0.427246,0.061035,-0.122070
4753370875,0.01216125,-0.00027466,-0.99909973,-0.244141,0.244141,-0.061035
4755937208,0.01329041,0.00128174,-0.99021912,-0.244141,0.244141,-0.061035
4761037083,0.01329041,0.00128174,-0.99021912,0.244141,0.183105,-0.183105
4766101333,0.01234436,0.00344849,-0.99809265,0.244141,0.183105,-0.183105
4771171500,0.01234436,0.00344849,-0.99809265,0.061035,0.183105,-0.122070
4776231916,0.01124573,0.00462341,-0.99284363,0.061035,0.183105,-0.122070
4781184250,0.01124573,0.00462341,-0.99284363,-0.061035,0.305176,-0.122070
4785952916,0.01217651,0.00581360,-0.99845886,-0.061035,0.305176,-0.122070
4791058375,0.01217651,0.00581360,-0.99845886,0.061035,0.183105,-0.122070
4796155041,0.01179504,0.00633240,-0.99606323,0.061035,0.183105,-0.122070
4801232125,0.01179504,0.00633240,-0.99606323,-0.061035,0.061035,-0.122070
4806301958,0.01177979,0.00590515,-0.99438477,-0.061035,0.061035,-0.122070
4811369500,0.01177979,0.00590515,-0.99438477,0.366211,0.305176,0.000000
4816433333,0.01263428,0.00479126,-0.99519348,0.366211,0.305176,0.000000
4821496833,0.01263428,0.00479126,-0.99519348,-0.732422,-0.183105,-0.122070
4826578541,0.01316833,0.00178528,-0.98377991,-0.732422,-0.183105,-0.122070
4831668750,0.01316833,0.00178528,-0.98377991,0.854492,0.305176,-0.122070
4836738041,0.01356506,0.00030518,-1.00993347,0.854492,0.305176,-0.122070
4841793000,0.01356506,0.00030518,-1.00993347,0.061035,0.183105,-0.183105
4846812000,0.01499939,0.00170898,-0.98606873,0.061035,0.183105,-0.183105
4851610500,0.01499939,0.00170898,-0.98606873,0.061035,0.183105,-0.244141
4856697791,0.01473999,0.00189209,-1.00082397,0.061035,0.183105,-0.244141
4861647041,0.01473999,0.00189209,-1.00082397,-0.183105,0.122070,0.000000
4866707625,0.01316833,0.00311279,-0.99182129,-0.183105,0.122070,0.000000
4871765916,0.01316833,0.00311279,-0.99182129,-0.183105,0.061035,-0.122070
4876841208,0.01222229,0.00537109,-0.99891663,-0.183105,0.061035,-0.122070
4881760000,0.01222229,0.00537109,-0.99891663,-0.061035,0.305176,-0.061035
4886783666,0.01145935,0.00634766,-0.99468994,-0.061035,0.305176,-0.061035
4891853083,0.01145935,0.00634766,-0.99468994,-0.122070,0.122070,-0.122070
4896614375,0.01109314,0.00634766,-0.99429321,-0.122070,0.122070,-0.122070
4901701916,0.01109314,0.00634766,-0.99429321,-0.183105,0.061035,-0.061035
4906644916,0.01008606,0.00663757,-0.99632263,-0.183105,0.061035,-0.061035
4911720458,0.01008606,0.00663757,-0.99632263,-0.183105,0.244141,0.000000
4916801833,0.00985718,0.00595093,-0.99581909,-0.183105,0.244141,0.000000
4921869250,0.00985718,0.00595093,-0.99581909,0.000000,0.183105,-0.061035
4926937291,0.00967407,0.00503540,-0.99443054,0.000000,0.183105,-0.061035
4931527333,0.00967407,0.00503540,-0.99443054,-0.427246,0.061035,-0.183105
4936608583,0.01318359,0.00387573,-0.99440002,-0.427246,0.061035,-0.183105
4941862875,0.01318359,0.00387573,-0.99440002,0.244141,0.122070,-0.061035
4946934625,0.01533508,0.00163269,-0.99906921,0.244141,0.122070,-0.061035
4952002500,0.01533508,0.00163269,-0.99906921,-0.366211,0.305176,-0.122070
4957068291,0.01516724,0.00061035,-0.99183655,-0.366211,0.305176,-0.122070
4962145541,0.01516724,0.00061035,-0.99183655,0.061035,0.122070,-0.061035
4967210166,0.01721191,0.00038147,-0.99685669,0.061035,0.122070,-0.061035
4972273625,0.01721191,0.00038147,-0.99685669,0.000000,0.183105,0.000000
4977338666,0.01596069,0.00196838,-0.99476624,0.000000,0.183105,0.000000
4982405666,0.01596069,0.00196838,-0.99476624,-0.122070,0.183105,-0.061035
4987446458,0.01516724,0.00245667,-0.99696350,-0.122070,0.183105,-0.061035
4992191583,0.01516724,0.00245667,-0.99696350,0.000000,0.122070,-0.244141
4997248916,0.01203918,0.00372314,-0.99467468,0.000000,0.122070,-0.244141
5002034125,0.01203918,0.00372314,-0.99467468,-0.061035,0.244141,-0.061035
5007093791,0.01057434,0.00434875,-0.99632263,-0.061035,0.244141,-0.061035
5012130000,0.01057434,0.00434875,-0.99632263,-0.061035,0.183105,-0.183105
5016942166,0.00944519,0.00463867,-0.99522400,-0.061035,0.183105,-0.183105
5024010958,0.00944519,0.00463867,-0.99522400,-0.122070,0.366211,-0.061035
5026560958,0.01007080,0.00636292,-0.99551392,-0.122070,0.366211,-0.061035
5034163375,0.01007080,0.00636292,-0.99551392,-0.183105,0.244141,-0.122070
5036712000,0.01184082,0.00570679,-0.99536133,-0.183105,0.244141,-0.122070
5044293083,0.01184082,0.00570679,-0.99536133,-0.061035,0.122070,-0.061035
5046836458,0.01307678,0.00355530,-0.99435425,-0.061035,0.122070,-0.061035
5054456291,0.01307678,0.00355530,-0.99435425,-0.122070,0.183105,-0.122070
5056995291,0.01383972,0.00276184,-0.99452209,-0.122070,0.183105,-0.122070
5062089166,0.01383972,0.00276184,-0.99452209,-0.061035,0.183105,-0.183105
5067155583,0.01489258,0.00314331,-0.99446106,-0.061035,0.183105,-0.183105
5072218958,0.01489258,0.00314331,-0.99446106,-0.061035,0.305176,-0.061035
5077320666,0.01393127,0.00218201,-0.99496460,-0.061035,0.305176,-0.061035
5082052083,0.01393127,0.00218201,-0.99496460,0.122070,0.183105,-0.061035
5087122625,0.01327515,0.00186157,-0.99641418,0.122070,0.183105,-0.061035
5092203583,0.01327515,0.00186157,-0.99641418,0.061035,0.183105,-0.122070
5097275541,0.01368713,0.00233459,-0.99598694,0.061035,0.183105,-0.122070
5102353250,0.01368713,0.00233459,-0.99598694,0.061035,0.122070,-0.183105
5107418583,0.01232910,0.00390625,-0.99597168,0.061035,0.122070,-0.183105
5112495291,0.01232910,0.00390625,-0.99597168,0.061035,0.183105,0.061035
5117561000,0.01119995,0.00462341,-0.99377441,0.061035,0.183105,0.061035
5122632916,0.01119995,0.00462341,-0.99377441,0.061035,0.305176,-0.061035
5127692708,0.01062012,0.00419617,-0.99609375,0.061035,0.305176,-0.061035
5132753333,0.01062012,0.00419617,-0.99609375,0.000000,0.183105,-0.122070
5137828375,0.01193237,0.00520325,-0.99487305,0.000000,0.183105,-0.122070
5142899125,0.01193237,0.00520325,-0.99487305,0.000000,0.244141,-0.061035
5147970041,0.01358032,0.00575256,-0.99571228,0.000000,0.244141,-0.061035
5152665000,0.01358032,0.00575256,-0.99571228,0.061035,0.244141,-0.122070
5157704583,0.01373291,0.00640869,-0.99548340,0.061035,0.244141,-0.122070
5162753625,0.01373291,0.00640869,-0.99548340,0.000000,0.122070,-0.122070
5167818791,0.01350403,0.00549316,-0.99516296,0.000000,0.122070,-0.122070
5172863916,0.01350403,0.00549316,-0.99516296,-0.061035,0.122070,-0.061035
5177932500,0.01371765,0.00503540,-0.99398804,-0.061035,0.122070,-0.061035
5182951375,0.01371765,0.00503540,-0.99398804,0.000000,0.244141,-0.061035
5188024083,0.01377869,0.00300598,-0.99453735,0.000000,0.244141,-0.061035
5193107500,0.01377869,0.00300598,-0.99453735,0.061035,0.183105,-0.061035
5198173000,0.01304626,0.00299072,-0.99482727,0.061035,0.183105,-0.061035
5203258666,0.01304626,0.00299072,-0.99482727,0.061035,0.122070,-0.061035
5208338291,0.01271057,0.00215149,-0.99525452,0.061035,0.122070,-0.061035
5213191250,0.01271057,0.00215149,-0.99525452,0.122070,0.122070,0.000000
5218271625,0.01399231,0.00122070,-0.99659729,0.122070,0.122070,0.000000
5222871708,0.01399231,0.00122070,-0.99659729,0.061035,0.183105,-0.122070
5227154291,0.01284790,0.00198364,-0.99453735,0.061035,0.183105,-0.122070
5232201708,0.01284790,0.00198364,-0.99453735,0.183105,0.183105,-0.122070
5237264291,0.01139832,0.00221252,-0.99424744,0.183105,0.183105,-0.122070
5242200958,0.01139832,0.00221252,-0.99424744,0.122070,0.183105,-0.183105
5247275541,0.01367188,0.00221252,-0.99523926,0.122070,0.183105,-0.183105
5252202000,0.01367188,0.00221252,-0.99523926,-0.427246,-0.244141,-0.122070
5257265708,0.01333618,0.00347900,-0.99627686,-0.427246,-0.244141,-0.122070
5262331708,0.01333618,0.00347900,-0.99627686,-0.305176,0.244141,-0.061035
5267401250,0.01371765,0.00457764,-0.99168396,-0.305176,0.244141,-0.061035
5272487708,0.01371765,0.00457764,-0.99168396,0.061035,0.122070,-0.061035
5277556833,0.01245117,0.00675964,-1.00350952,0.061035,0.122070,-0.061035
5282623541,0.01245117,0.00675964,-1.00350952,-0.061035,0.244141,-0.061035
5287687750,0.01210022,0.00866699,-0.99404907,-0.061035,0.244141,-0.061035
5292762083,0.01210022,0.00866699,-0.99404907,-0.061035,0.305176,0.000000
5297809750,0.01167297,0.00785828,-0.99752808,-0.061035,0.305176,0.000000
5302862750,0.01167297,0.00785828,-0.99752808,0.061035,0.244141,0.000000
5307902083,0.01199341,0.00843811,-0.99465942,0.061035,0.244141,0.000000
5312951250,0.01199341,0.00843811,-0.99465942,-0.122070,0.000000,-0.061035
5318010541,0.01354980,0.00718689,-0.99574280,-0.122070,0.000000,-0.061035
5323071166,0.01354980,0.00718689,-0.99574280,-0.183105,0.183105,-0.061035
5328139250,0.01292419,0.00328064,-0.99342346,-0.183105,0.183105,-0.061035
5332706291,0.01292419,0.00328064,-0.99342346,0.061035,0.183105,-0.122070
5337774916,0.01446533,0.00065613,-0.99493408,0.061035,0.183105,-0.122070
5342844750,0.01446533,0.00065613,-0.99493408,0.061035,0.183105,-0.183105
5347915458,0.01443481,-0.00024414,-0.99354553,0.061035,0.183105,-0.183105
5353074208,0.01443481,-0.00024414,-0.99354553,0.122070,0.122070,-0.061035
5358151333,0.01339722,0.00041199,-0.99728394,0.122070,0.122070,-0.061035
5362871000,0.01339722,0.00041199,-0.99728394,0.061035,0.183105,-0.122070
5367956250,0.01268005,0.00193787,-0.99450684,0.061035,0.183105,-0.122070
5372625291,0.01268005,0.00193787,-0.99450684,0.122070,0.244141,-0.061035
5377702541,0.01170349,0.00315857,-0.99549866,0.122070,0.244141,-0.061035
5382785916,0.01170349,0.00315857,-0.99549866,-0.061035,0.244141,-0.061035
5387851750,0.01078796,0.00492859,-0.99568176,-0.061035,0.244141,-0.061035
5392893416,0.01078796,0.00492859,-0.99568176,-0.061035,0.122070,-0.061035
5397996583,0.01101685,0.00534058,-0.99638367,-0.061035,0.122070,-0.061035
5403074916,0.01101685,0.00534058,-0.99638367,-0.061035,0.183105,0.061035
5408137708,0.01142883,0.00593567,-0.99649048,-0.061035,0.183105,0.061035
5413202333,0.01142883,0.00593567,-0.99649048,0.366211,-0.122070,-0.122070
5418273833,0.01203918,0.00624084,-0.99185181,0.366211,-0.122070,-0.122070
5422921750,0.01203918,0.00624084,-0.99185181,-0.183105,0.122070,-0.122070
5427590166,0.01191711,0.00392151,-0.99256897,-0.183105,0.122070,-0.122070
5432661250,0.01191711,0.00392151,-0.99256897,0.122070,0.000000,-0.122070
5437736083,0.01319885,0.00257874,-1.00761414,0.122070,0.000000,-0.122070
5442453833,0.01319885,0.00257874,-1.00761414,0.122070,0.183105,-0.183105
5447542916,0.01446533,0.00160217,-0.98770142,0.122070,0.183105,-0.183105
5455112708,0.01446533,0.00160217,-0.98770142,0.061035,0.244141,-0.122070
5457635333,0.01611328,-0.00016785,-0.99948120,0.061035,0.244141,-0.122070
5464980416,0.01611328,-0.00016785,-0.99948120,0.000000,0.244141,-0.061035
5467532166,0.01704407,0.00247192,-0.99496460,0.000000,0.244141,-0.061035
5475149000,0.01704407,0.00247192,-0.99496460,-0.122070,0.244141,-0.061035
5477698541,0.01506042,0.00297546,-0.99671936,-0.122070,0.244141,-0.061035
5484878833,0.01506042,0.00297546,-0.99671936,0.122070,0.610352,-0.122070
5487419541,0.01223755,0.00376892,-0.99369812,0.122070,0.610352,-0.122070
5495010083,0.01223755,0.00376892,-0.99369812,-0.183105,0.244141,-0.122070
5497554583,0.01232910,0.00378418,-0.99507141,-0.183105,0.244141,-0.122070
5505151916,0.01232910,0.00378418,-0.99507141,0.000000,0.244141,-0.122070
5507718750,0.01138306,0.00485229,-0.99732971,0.000000,0.244141,-0.122070
5515307125,0.01138306,0.00485229,-0.99732971,0.061035,0.183105,-0.061035
5517848750,0.01048279,0.00588989,-0.99264526,0.061035,0.183105,-0.061035
5525309875,0.01048279,0.00588989,-0.99264526,-0.183105,0.183105,0.000000
5527848375,0.01008606,0.00656128,-0.99528503,-0.183105,0.183105,0.000000
5535445125,0.01008606,0.00656128,-0.99528503,0.061035,0.122070,-0.244141
5538003208,0.01161194,0.00715637,-0.99711609,0.061035,0.122070,-0.244141
5543113750,0.01161194,0.00715637,-0.99711609,0.000000,0.244141,0.000000
5548190750,0.01399231,0.00653076,-0.99421692,0.000000,0.244141,0.000000
5555339958,0.01399231,0.00653076,-0.99421692,0.000000,0.244141,0.061035
5557909125,0.01589966,0.00437927,-0.99484253,0.000000,0.244141,0.061035
5565511125,0.01589966,0.00437927,-0.99484253,0.122070,0.122070,-0.061035
5567988208,0.01477051,0.00302124,-0.99507141,0.122070,0.122070,-0.061035
5575399083,0.01477051,0.00302124,-0.99507141,0.000000,0.183105,-0.183105
5577948291,0.01325989,0.00148010,-0.99559021,0.000000,0.183105,-0.183105
5584307750,0.01325989,0.00148010,-0.99559021,0.000000,0.305176,0.000000
5589310625,0.01333618,0.00073242,-0.99522400,0.000000,0.305176,0.000000
5594136083,0.01333618,0.00073242,-0.99522400,0.061035,0.183105,-0.122070
5599101625,0.01264954,0.00057983,-0.99552917,0.061035,0.183105,-0.122070
5604164750,0.01264954,0.00057983,-0.99552917,0.122070,0.122070,-0.122070
5609204291,0.01229858,0.00096130,-0.99557495,0.122070,0.122070,-0.122070
5613890541,0.01229858,0.00096130,-0.99557495,0.183105,0.122070,-0.244141
5618981583,0.01142883,0.00204468,-0.99343872,0.183105,0.122070,-0.244141
5623835958,0.01142883,0.00204468,-0.99343872,0.061035,0.122070,-0.183105
5628901958,0.01176453,0.00405884,-0.99528503,0.061035,0.122070,-0.183105
5633965708,0.01176453,0.00405884,-0.99528503,0.183105,0.305176,-0.183105
5639032458,0.01303101,0.00599670,-0.99464417,0.183105,0.305176,-0.183105
5644101583,0.01303101,0.00599670,-0.99464417,0.000000,-0.793457,-0.122070
5649221041,0.01165771,0.00680542,-0.99310303,0.000000,-0.793457,-0.122070
5654305166,0.01165771,0.00680542,-0.99310303,-1.586914,0.854492,-0.122070
5659295958,0.01275635,0.00505066,-0.97180176,-1.586914,0.854492,-0.122070
5664374833,0.01275635,0.00505066,-0.97180176,1.098633,-0.183105,0.000000
5669443458,0.01406860,0.00489807,-1.04086304,1.098633,-0.183105,0.000000
5674501791,0.01406860,0.00489807,-1.04086304,-0.488281,0.488281,-0.061035
5679507166,0.01454163,0.00712585,-0.96260071,-0.488281,0.488281,-0.061035
5684356791,0.01454163,0.00712585,-0.96260071,0.183105,0.366211,-0.061035
5689436000,0.01213074,0.00314331,-1.01426697,0.183105,0.366211,-0.061035
5694180666,0.01213074,0.00314331,-1.01426697,0.122070,0.305176,-0.061035
5699281041,0.01158142,0.00488281,-0.98770142,0.122070,0.305176,-0.061035
5704382416,0.01158142,0.00488281,-0.98770142,0.061035,0.427246,0.000000
5709455458,0.01344299,0.00404358,-1.00128174,0.061035,0.427246,0.000000
5714524625,0.01344299,0.00404358,-1.00128174,0.061035,-0.427246,-0.122070
5719112750,0.01206970,0.00263977,-0.99012756,0.061035,-0.427246,-0.122070
5724189833,0.01206970,0.00263977,-0.99012756,-0.305176,0.366211,0.061035
5729271250,0.01330566,0.00387573,-0.99208069,-0.305176,0.366211,0.061035
5734361416,0.01330566,0.00387573,-0.99208069,0.183105,0.122070,-0.122070
5739444916,0.01345825,0.00421143,-1.00105286,0.183105,0.122070,-0.122070
5744549958,0.01345825,0.00421143,-1.00105286,0.122070,0.305176,-0.183105
5747115541,0.01145935,0.00372314,-0.98989868,0.122070,0.305176,-0.183105
5754781750,0.01145935,0.00372314,-0.98989868,0.122070,0.244141,-0.061035
5757357208,0.01228333,0.00251770,-0.99494934,0.122070,0.244141,-0.061035
5765103875,0.01228333,0.00251770,-0.99494934,0.122070,0.183105,0.000000
5767668416,0.01351929,0.00218201,-0.99703979,0.122070,0.183105,0.000000
5774905833,0.01351929,0.00218201,-0.99703979,0.183105,0.183105,-0.061035
5777454583,0.01391602,0.00074768,-0.99679565,0.183105,0.183105,-0.061035
5785026708,0.01391602,0.00074768,-0.99679565,0.183105,0.122070,-0.122070
5787538750,0.01356506,-0.00071716,-0.99360657,0.183105,0.122070,-0.122070
5795121625,0.01356506,-0.00071716,-0.99360657,0.000000,0.000000,-0.244141
5797653833,0.01286316,-0.00015259,-0.99702454,0.000000,0.000000,-0.244141
5805230875,0.01286316,-0.00015259,-0.99702454,0.183105,0.061035,-0.061035
5807783000,0.01284790,0.00033569,-0.99636841,0.183105,0.061035,-0.061035
5815378041,0.01284790,0.00033569,-0.99636841,0.061035,0.244141,-0.061035
5817918750,0.01260376,0.00204468,-0.99305725,0.061035,0.244141,-0.061035
5825509791,0.01260376,0.00204468,-0.99305725,0.183105,0.244141,-0.122070
5828048708,0.01228333,0.00498962,-0.99462891,0.183105,0.244141,-0.122070
5835677625,0.01228333,0.00498962,-0.99462891,0.061035,0.061035,-0.122070
5838224625,0.01274109,0.00671387,-0.99632263,0.061035,0.061035,-0.122070
5845817416,0.01274109,0.00671387,-0.99632263,0.061035,0.122070,-0.061035
5848355416,0.01263428,0.00816345,-0.99549866,0.061035,0.122070,-0.061035
5855956458,0.01263428,0.00816345,-0.99549866,0.061035,0.061035,-0.183105
5858528500,0.01173401,0.00840759,-0.99475098,0.061035,0.061035,-0.183105
5863538000,0.01173401,0.00840759,-0.99475098,0.061035,0.122070,0.000000
5868610458,0.01309204,0.00874329,-0.99588013,0.061035,0.122070,0.000000
5873677416,0.01309204,0.00874329,-0.99588013,0.000000,0.122070,-0.122070
5878763333,0.01387024,0.00831604,-0.99580383,0.000000,0.122070,-0.122070
5883836666,0.01387024,0.00831604,-0.99580383,0.122070,0.183105,0.000000
5888908500,0.01246643,0.00735474,-0.99572754,0.122070,0.183105,0.000000
5896507625,0.01246643,0.00735474,-0.99572754,-0.122070,0.305176,0.061035
5899062000,0.01387024,0.00585938,-0.99136353,-0.122070,0.305176,0.061035
5904127750,0.01387024,0.00585938,-0.99136353,-0.671387,0.183105,0.061035
5909179875,0.01208496,0.00169373,-0.99147034,-0.671387,0.183105,0.061035
5914045583,0.01208496,0.00169373,-0.99147034,-0.305176,0.061035,-0.122070
5919132125,0.01226807,0.00126648,-1.00689697,-0.305176,0.061035,-0.122070
5926461958,0.01226807,0.00126648,-1.00689697,0.732422,0.000000,-0.122070
5929061833,0.01245117,0.00042725,-0.99020386,0.732422,0.000000,-0.122070
5935857375,0.01245117,0.00042725,-0.99020386,-0.366211,0.122070,-0.061035
5938421791,0.01315308,-0.00061035,-0.99360657,-0.366211,0.122070,-0.061035
5946031375,0.01315308,-0.00061035,-0.99360657,0.427246,0.061035,-0.183105
5948600750,0.01393127,0.00230408,-1.00131226,0.427246,0.061035,-0.183105
5955731416,0.01393127,0.00230408,-1.00131226,-0.061035,0.244141,0.000000
5958308750,0.01344299,0.00448608,-0.99275208,-0.061035,0.244141,0.000000
5965928875,0.01344299,0.00448608,-0.99275208,-0.122070,0.244141,0.000000
5968479625,0.01319885,0.00373840,-0.99505615,-0.122070,0.244141,0.000000
5976073958,0.01319885,0.00373840,-0.99505615,0.305176,0.061035,-0.122070
5978551125,0.01466370,0.00448608,-0.99574280,0.305176,0.061035,-0.122070
5986173333,0.01466370,0.00448608,-0.99574280,0.183105,0.183105,0.000000
5988450291,0.01397705,0.00497437,-0.99523926,0.183105,0.183105,0.000000
5995664458,0.01397705,0.00497437,-0.99523926,0.305176,0.244141,-0.183105
5998215416,0.01109314,0.00222778,-0.99591064,0.305176,0.244141,-0.183105
6005334750,0.01109314,0.00222778,-0.99591064,0.183105,0.122070,-0.183105
6010417166,0.01100159,0.00102234,-0.99528503,0.183105,0.122070,-0.183105
6015487416,0.01100159,0.00102234,-0.99528503,0.122070,0.061035,-0.061035
6018065916,0.01127625,0.00047302,-0.99845886,0.122070,0.061035,-0.061035
6025702708,0.01127625,0.00047302,-0.99845886,0.000000,0.061035,-0.183105
6028247750,0.01205444,0.00028992,-0.99563599,0.000000,0.061035,-0.183105
6035837958,0.01205444,0.00028992,-0.99563599,0.061035,0.244141,-0.122070
6038377666,0.01303101,0.00059509,-0.99423218,0.061035,0.244141,-0.122070
6045963500,0.01303101,0.00059509,-0.99423218,0.000000,0.183105,-0.061035
6048519458,0.01371765,0.00114441,-0.99470520,0.000000,0.183105,-0.061035
6056116500,0.01371765,0.00114441,-0.99470520,0.061035,0.183105,-0.122070
6058687875,0.01423645,0.00207520,-0.99382019,0.061035,0.183105,-0.122070
6066308708,0.01423645,0.00207520,-0.99382019,0.061035,0.183105,-0.061035
6068870041,0.01405334,0.00363159,-0.99398804,0.061035,0.183105,-0.061035
6074020375,0.01405334,0.00363159,-0.99398804,0.122070,0.122070,-0.183105
6079083250,0.01312256,0.00500488,-0.99601746,0.122070,0.122070,-0.183105
6084140708,0.01312256,0.00500488,-0.99601746,0.000000,0.305176,-0.122070
6089210708,0.01313782,0.00578308,-0.99656677,0.000000,0.305176,-0.122070
6094291500,0.01313782,0.00578308,-0.99656677,-0.061035,0.183105,-0.122070
6099346750,0.01142883,0.00704956,-0.99595642,-0.061035,0.183105,-0.122070
6104257250,0.01142883,0.00704956,-0.99595642,0.183105,0.183105,-0.061035
6108983333,0.01130676,0.00755310,-0.99665833,0.183105,0.183105,-0.061035
6114056416,0.01130676,0.00755310,-0.99665833,0.061035,0.244141,-0.061035
6119113125,0.01159668,0.00645447,-0.99617004,0.061035,0.244141,-0.061035
6124165291,0.01159668,0.00645447,-0.99617004,0.061035,0.061035,-0.061035
6129228958,0.01200867,0.00642395,-0.99546814,0.061035,0.061035,-0.061035
6134298875,0.01200867,0.00642395,-0.99546814,0.061035,0.061035,-0.061035
6139371625,0.01283264,0.00425720,-0.99526978,0.061035,0.061035,-0.061035
6146525875,0.01283264,0.00425720,-0.99526978,-0.061035,0.122070,-0.061035
6149081125,0.01345825,0.00317383,-0.99508667,-0.061035,0.122070,-0.061035
6154149333,0.01345825,0.00317383,-0.99508667,0.000000,0.244141,0.061035
6159210958,0.01324463,0.00135803,-0.99432373,0.000000,0.244141,0.061035
6164278208,0.01324463,0.00135803,-0.99432373,0.000000,0.244141,-0.122070
6169277291,0.01290894,0.00068665,-0.99563599,0.000000,0.244141,-0.122070
6174344083,0.01290894,0.00068665,-0.99563599,0.183105,0.183105,-0.061035
6179424625,0.01277161,0.00155640,-0.99678040,0.183105,0.183105,-0.061035
6184526500,0.01277161,0.00155640,-0.99678040,0.183105,0.122070,-0.061035
6189595375,0.01268005,0.00260925,-0.99545288,0.183105,0.122070,-0.061035
6194683958,0.01268005,0.00260925,-0.99545288,0.000000,0.183105,0.000000
6199770291,0.01284790,0.00286865,-0.99520874,0.000000,0.183105,0.000000
6204737875,0.01284790,0.00286865,-0.99520874,0.000000,0.244141,-0.061035
6209712791,0.01269531,0.00451660,-0.99624634,0.000000,0.244141,-0.061035
6214784583,0.01269531,0.00451660,-0.99624634,0.061035,0.244141,0.000000
6219870166,0.01301575,0.00584412,-0.99568176,0.061035,0.244141,0.000000
6224850166,0.01301575,0.00584412,-0.99568176,0.122070,0.122070,-0.122070
6229901500,0.01289368,0.00605774,-0.99531555,0.122070,0.122070,-0.122070
6234943333,0.01289368,0.00605774,-0.99531555,0.061035,0.122070,-0.122070
6239978750,0.01293945,0.00665283,-0.99539185,0.061035,0.122070,-0.122070
6245025041,0.01293945,0.00665283,-0.99539185,0.061035,0.122070,-0.061035
6250086875,0.01272583,0.00611877,-0.99568176,0.061035,0.122070,-0.061035
6255140625,0.01272583,0.00611877,-0.99568176,0.061035,0.061035,-0.183105
6260196791,0.01332092,0.00401306,-0.99551392,0.061035,0.061035,-0.183105
6265261416,0.01332092,0.00401306,-0.99551392,0.061035,0.244141,-0.122070
6270326416,0.01327515,0.00390625,-0.99552917,0.061035,0.244141,-0.122070
6275405083,0.01327515,0.00390625,-0.99552917,0.122070,0.183105,0.000000
6280337958,0.01235962,0.00340271,-0.99656677,0.122070,0.183105,0.000000
6285400416,0.01235962,0.00340271,-0.99656677,0.061035,0.366211,0.000000
6290455333,0.01295471,0.00216675,-0.99569702,0.061035,0.366211,0.000000
6295258791,0.01295471,0.00216675,-0.99569702,0.061035,0.000000,0.000000
6300336333,0.01261902,0.00144958,-0.99501038,0.061035,0.000000,0.000000
6305153291,0.01261902,0.00144958,-0.99501038,0.122070,0.122070,-0.122070
6310207208,0.01217651,0.00166321,-0.99391174,0.122070,0.122070,-0.122070
6315149625,0.01217651,0.00166321,-0.99391174,0.183105,0.183105,-0.244141
6320024791,0.01333618,0.00109863,-0.99543762,0.183105,0.183105,-0.244141
6324832750,0.01333618,0.00109863,-0.99543762,0.122070,0.183105,-0.122070
6329476333,0.01303101,0.00190735,-0.99530029,0.122070,0.183105,-0.122070
6337058916,0.01303101,0.00190735,-0.99530029,0.122070,0.244141,-0.183105
6339609583,0.01242065,0.00378418,-0.99700928,0.122070,0.244141,-0.183105
6347328291,0.01242065,0.00378418,-0.99700928,0.061035,0.122070,-0.122070
6349907708,0.01338196,0.00488281,-0.99548340,0.061035,0.122070,-0.122070
6355088416,0.01338196,0.00488281,-0.99548340,0.061035,0.122070,-0.244141
6359855083,0.01330566,0.00488281,-0.99539185,0.061035,0.122070,-0.244141
6367249416,0.01330566,0.00488281,-0.99539185,0.122070,0.122070,-0.122070
6369722166,0.01307678,0.00518799,-0.99485779,0.122070,0.122070,-0.122070
6377382291,0.01307678,0.00518799,-0.99485779,0.061035,0.183105,-0.122070
6379993083,0.01266479,0.00375366,-0.99641418,0.061035,0.183105,-0.122070
6385135333,0.01266479,0.00375366,-0.99641418,0.061035,0.244141,-0.122070
6390213666,0.01228333,0.00465393,-0.99612427,0.061035,0.244141,-0.122070
6397406458,0.01228333,0.00465393,-0.99612427,-0.061035,0.061035,-0.183105
6399983041,0.01254272,0.00459290,-0.99563599,-0.061035,0.061035,-0.183105
6405008500,0.01254272,0.00459290,-0.99563599,0.000000,0.244141,-0.244141
6410093750,0.01248169,0.00424194,-0.99563599,0.000000,0.244141,-0.244141
6418014041,0.01248169,0.00424194,-0.99563599,0.183105,0.244141,-0.061035
6420639875,0.01278687,0.00395203,-0.99588013,0.183105,0.244141,-0.061035
6425720666,0.01278687,0.00395203,-0.99588013,0.061035,0.122070,-0.183105
6430827666,0.01210022,0.00263977,-0.99543762,0.061035,0.122070,-0.183105
6436014291,0.01210022,0.00263977,-0.99543762,0.183105,0.122070,0.122070
6441162416,0.01280212,0.00340271,-0.99427795,0.183105,0.122070,0.122070
6454769583,0.01368713,0.00325012,-0.99560547,0.244141,0.244141,-0.122070
6457313875,0.01368713,0.00325012,-0.99560547,0.122070,0.244141,-0.061035
6459838875,0.01377869,0.00349426,-0.99525452,0.122070,0.244141,-0.061035
6467390208,0.01377869,0.00349426,-0.99525452,0.244141,0.305176,-0.061035
6469909333,0.01257324,0.00415039,-0.99453735,0.244141,0.305176,-0.061035
6474933375,0.01257324,0.00415039,-0.99453735,0.183105,0.305176,0.000000
6480049791,0.01116943,0.00521851,-0.99548340,0.183105,0.305176,0.000000
6485144583,0.01116943,0.00521851,-0.99548340,0.244141,0.122070,-0.183105
6490237541,0.01142883,0.00483704,-0.99513245,0.244141,0.122070,-0.183105
6495458708,0.01142883,0.00483704,-0.99513245,0.549316,0.549316,-0.122070
6500748791,0.01222229,0.00587463,-0.99301147,0.549316,0.549316,-0.122070
6505542750,0.01222229,0.00587463,-0.99301147,1.159668,0.671387,0.000000
6510637458,0.01211548,0.00601196,-0.98556519,1.159668,0.671387,0.000000
6515319333,0.01211548,0.00601196,-0.98556519,-0.183105,0.061035,-0.061035
6520364333,0.01316833,0.00448608,-0.98683167,-0.183105,0.061035,-0.061035
6525402375,0.01316833,0.00448608,-0.98683167,-0.427246,-0.122070,-0.061035
6530572291,0.01480103,0.00431824,-1.02442932,-0.427246,-0.122070,-0.061035
6536397875,0.01480103,0.00431824,-1.02442932,-0.061035,0.061035,-0.061035
6539305166,0.01373291,0.00743103,-1.00248718,-0.061035,0.061035,-0.061035
6547079583,0.01373291,0.00743103,-1.00248718,0.183105,0.183105,0.000000
6549907125,0.01248169,0.00729370,-0.98489380,0.183105,0.183105,0.000000
6555274166,0.01248169,0.00729370,-0.98489380,0.183105,0.183105,-0.122070
6559908791,0.01420593,0.00279236,-0.98634338,0.183105,0.183105,-0.122070
6565117208,0.01420593,0.00279236,-0.98634338,0.305176,0.366211,-0.183105
6570311333,0.01570129,0.00000000,-0.99604797,0.305176,0.366211,-0.183105
6575441875,0.01570129,0.00000000,-0.99604797,0.305176,0.305176,-0.061035
6581072625,0.01541138,-0.00004578,-0.99578857,0.305176,0.305176,-0.061035
6585908791,0.01541138,-0.00004578,-0.99578857,0.061035,0.122070,-0.183105
6591047041,0.01309204,-0.00288391,-0.99090576,0.061035,0.122070,-0.183105
6595911083,0.01309204,-0.00288391,-0.99090576,0.122070,0.183105,-0.061035
6600987166,0.01278687,-0.00196838,-0.99952698,0.122070,0.183105,-0.061035
6606060708,0.01278687,-0.00196838,-0.99952698,0.000000,0.244141,-0.122070
6610927041,0.01237488,-0.00137329,-0.99946594,0.000000,0.244141,-0.122070
6615835083,0.01237488,-0.00137329,-0.99946594,0.061035,0.244141,-0.183105
6620886958,0.01124573,-0.00096130,-0.99337769,0.061035,0.244141,-0.183105
6625960250,0.01124573,-0.00096130,-0.99337769,0.122070,0.183105,-0.122070
6631014208,0.01278687,0.00198364,-0.99447632,0.122070,0.183105,-0.122070
6636091583,0.01278687,0.00198364,-0.99447632,0.183105,0.305176,-0.244141
6640937166,0.01325989,0.00372314,-0.99757385,0.183105,0.305176,-0.244141
6645314166,0.01325989,0.00372314,-0.99757385,0.244141,0.244141,-0.183105
6650345875,0.01211548,0.00408936,-0.99551392,0.244141,0.244141,-0.183105
6655416041,0.01211548,0.00408936,-0.99551392,0.244141,0.183105,0.000000
6660513000,0.01203918,0.00625610,-0.99507141,0.244141,0.183105,0.000000
6667722750,0.01203918,0.00625610,-0.99507141,0.122070,0.244141,-0.122070
6670284958,0.01416016,0.00816345,-0.99620056,0.122070,0.244141,-0.122070
6677849791,0.01416016,0.00816345,-0.99620056,0.183105,0.122070,0.000000
6680393833,0.01361084,0.00791931,-0.99589539,0.183105,0.122070,0.000000
6687677083,0.01361084,0.00791931,-0.99589539,0.122070,0.061035,-0.122070
6690042541,0.01274109,0.00769043,-0.99447632,0.122070,0.061035,-0.122070
6697299833,0.01274109,0.00769043,-0.99447632,0.122070,0.183105,-0.061035
6699832666,0.01289368,0.00636292,-0.99551392,0.122070,0.183105,-0.061035
6707415708,0.01289368,0.00636292,-0.99551392,0.000000,0.183105,-0.183105
6709946000,0.01425171,0.00454712,-0.99591064,0.000000,0.183105,-0.183105
6717536208,0.01425171,0.00454712,-0.99591064,0.000000,0.244141,-0.183105
6720075916,0.01371765,0.00271606,-0.99435425,0.000000,0.244141,-0.183105
6727266875,0.01371765,0.00271606,-0.99435425,-0.061035,0.183105,-0.183105
6729597458,0.01451111,0.00166321,-0.99513245,-0.061035,0.183105,-0.183105
6737184375,0.01451111,0.00166321,-0.99513245,0.000000,0.122070,0.061035
6739724166,0.01521301,0.00167847,-0.99514771,0.000000,0.122070,0.061035
6747327291,0.01521301,0.00167847,-0.99514771,0.000000,0.183105,-0.061035
6749892291,0.01260376,0.00042725,-0.99430847,0.000000,0.183105,-0.061035
6757031000,0.01260376,0.00042725,-0.99430847,0.000000,0.244141,-0.183105
6759567000,0.01197815,0.00054932,-0.99464417,0.000000,0.244141,-0.183105
6767154833,0.01197815,0.00054932,-0.99464417,-0.061035,0.122070,-0.122070
6769692666,0.01210022,0.00173950,-0.99609375,-0.061035,0.122070,-0.122070
6777298250,0.01210022,0.00173950,-0.99609375,0.000000,0.122070,-0.183105
6779844875,0.01272583,0.00216675,-0.99642944,0.000000,0.122070,-0.183105
6787451500,0.01272583,0.00216675,-0.99642944,-0.061035,0.244141,0.000000
6789993625,0.01271057,0.00358582,-0.99462891,-0.061035,0.244141,0.000000
6797337166,0.01271057,0.00358582,-0.99462891,0.061035,0.122070,-0.183105
6799887625,0.01284790,0.00372314,-0.99497986,0.061035,0.122070,-0.183105
6807488958,0.01284790,0.00372314,-0.99497986,0.061035,0.183105,-0.061035
6809976916,0.01263428,0.00320435,-0.99523926,0.061035,0.183105,-0.061035
6817597958,0.01263428,0.00320435,-0.99523926,0.244141,0.244141,0.000000
6820139750,0.01300049,0.00431824,-0.99566650,0.244141,0.244141,0.000000
6827743375,0.01300049,0.00431824,-0.99566650,0.183105,0.122070,-0.061035
6830297875,0.01327515,0.00483704,-0.99485779,0.183105,0.122070,-0.061035
6837892375,0.01327515,0.00483704,-0.99485779,0.122070,0.061035,0.000000
6840428958,0.01319885,0.00463867,-0.99473572,0.122070,0.061035,0.000000
6847993958,0.01319885,0.00463867,-0.99473572,0.000000,0.122070,-0.122070
6850519375,0.01208496,0.00326538,-0.99401855,0.000000,0.122070,-0.122070
6858091958,0.01208496,0.00326538,-0.99401855,0.000000,0.244141,-0.122070
6860621125,0.01272583,0.00280762,-0.99476624,0.000000,0.244141,-0.122070
6868085500,0.01272583,0.00280762,-0.99476624,0.183105,0.183105,-0.122070
6870346208,0.01281738,0.00241089,-0.99482727,0.183105,0.183105,-0.122070
6877499875,0.01281738,0.00241089,-0.99482727,0.061035,0.183105,-0.244141
6882643291,0.01293945,0.00160217,-0.99531555,0.061035,0.183105,-0.244141
6887660541,0.01293945,0.00160217,-0.99531555,0.061035,0.305176,0.000000
6890202500,0.01281738,0.00265503,-0.99467468,0.061035,0.305176,0.000000
6897585375,0.01281738,0.00265503,-0.99467468,0.061035,0.305176,-0.183105
6900135291,0.01333618,0.00315857,-0.99436951,0.061035,0.305176,-0.183105
6907621416,0.01333618,0.00315857,-0.99436951,0.000000,0.183105,-0.183105
6910162083,0.01281738,0.00354004,-0.99513245,0.000000,0.183105,-0.183105
6917386000,0.01281738,0.00354004,-0.99513245,0.061035,0.183105,-0.122070
6922516375,0.01290894,0.00367737,-0.99543762,0.061035,0.183105,-0.122070
6927593875,0.01290894,0.00367737,-0.99543762,0.000000,0.061035,-0.183105
6930142583,0.01237488,0.00382996,-0.99575806,0.000000,0.061035,-0.183105
6937741625,0.01237488,0.00382996,-0.99575806,0.000000,0.244141,-0.183105
6940284583,0.01325989,0.00434875,-0.99540710,0.000000,0.244141,-0.183105
6947903500,0.01325989,0.00434875,-0.99540710,0.061035,0.061035,-0.183105
6950372208,0.01354980,0.00410461,-0.99516296,0.061035,0.061035,-0.183105
6957510750,0.01354980,0.00410461,-0.99516296,0.122070,0.122070,-0.061035
6960067958,0.01289368,0.00320435,-0.99554443,0.122070,0.122070,-0.061035
6967672041,0.01289368,0.00320435,-0.99554443,0.061035,0.183105,-0.122070
6970216125,0.01293945,0.00294495,-0.99517822,0.061035,0.183105,-0.122070
6977789333,0.01293945,0.00294495,-0.99517822,0.000000,0.122070,-0.183105
6980319541,0.01361084,0.00259399,-0.99566650,0.000000,0.122070,-0.183105
6987944625,0.01361084,0.00259399,-0.99566650,0.183105,0.183105,-0.122070
6990350250,0.01365662,0.00189209,-0.99536133,0.183105,0.183105,-0.122070
6997964458,0.01365662,0.00189209,-0.99536133,0.061035,0.061035,-0.122070
7000506708,0.01301575,0.00230408,-0.99639893,0.061035,0.061035,-0.122070
7008075208,0.01301575,0.00230408,-0.99639893,0.183105,0.122070,0.000000
7010604875,0.01303101,0.00163269,-0.99632263,0.183105,0.122070,0.000000
7018219875,0.01303101,0.00163269,-0.99632263,-0.061035,0.061035,-0.061035
7020757875,0.01327515,0.00161743,-0.99505615,-0.061035,0.061035,-0.061035
7028345958,0.01327515,0.00161743,-0.99505615,0.000000,0.183105,-0.061035
7030757666,0.01318359,0.00256348,-0.99397278,0.000000,0.183105,-0.061035
7038281583,0.01318359,0.00256348,-0.99397278,0.061035,0.061035,-0.122070
7040824791,0.01347351,0.00260925,-0.99568176,0.061035,0.061035,-0.122070
7048320666,0.01347351,0.00260925,-0.99568176,0.061035,0.244141,-0.061035
7050651333,0.01437378,0.00334167,-0.99624634,0.061035,0.244141,-0.061035
7057660250,0.01437378,0.00334167,-0.99624634,0.000000,0.305176,-0.122070
7060221000,0.01329041,0.00395203,-0.99481201,0.000000,0.305176,-0.122070
7067838583,0.01329041,0.00395203,-0.99481201,0.000000,0.122070,0.000000
7070351083,0.01278687,0.00392151,-0.99513245,0.000000,0.122070,0.000000
7077692541,0.01278687,0.00392151,-0.99513245,0.000000,0.183105,-0.122070
7080123875,0.01342773,0.00476074,-0.99559021,0.000000,0.183105,-0.122070
7087740000,0.01342773,0.00476074,-0.99559021,0.061035,0.244141,-0.183105
7090285041,0.01339722,0.00489807,-0.99548340,0.061035,0.244141,-0.183105
7097868541,0.01339722,0.00489807,-0.99548340,0.061035,0.244141,-0.183105
7100410541,0.01321411,0.00349426,-0.99658203,0.061035,0.244141,-0.183105
7108041625,0.01321411,0.00349426,-0.99658203,0.000000,0.122070,-0.122070
7110290083,0.01261902,0.00378418,-0.99626160,0.000000,0.122070,-0.122070
7117883291,0.01261902,0.00378418,-0.99626160,0.122070,0.122070,-0.122070
7120430000,0.01342773,0.00292969,-0.99617004,0.122070,0.122070,-0.122070
7128029916,0.01342773,0.00292969,-0.99617004,0.000000,0.122070,-0.183105
7130575708,0.01322937,0.00265503,-0.99598694,0.000000,0.122070,-0.183105
7138209375,0.01322937,0.00265503,-0.99598694,0.122070,0.061035,-0.122070
7140764958,0.01264954,0.00177002,-0.99488831,0.122070,0.061035,-0.122070
7148072916,0.01264954,0.00177002,-0.99488831,0.122070,0.183105,-0.061035
7150635625,0.01287842,0.00190735,-0.99511719,0.122070,0.183105,-0.061035
7157306958,0.01287842,0.00190735,-0.99511719,0.061035,0.183105,-0.061035
7162362000,0.01249695,0.00199890,-0.99571228,0.061035,0.183105,-0.061035
7167411791,0.01249695,0.00199890,-0.99571228,0.061035,0.244141,-0.122070
7172482708,0.01296997,0.00158691,-0.99507141,0.061035,0.244141,-0.122070
7177555375,0.01296997,0.00158691,-0.99507141,0.061035,0.061035,-0.061035
7182634833,0.01321411,0.00263977,-0.99508667,0.061035,0.061035,-0.061035
7187713291,0.01321411,0.00263977,-0.99508667,0.183105,0.061035,-0.061035
7190266458,0.01310730,0.00204468,-0.99510193,0.183105,0.061035,-0.061035
7197858208,0.01310730,0.00204468,-0.99510193,-0.061035,0.183105,-0.122070
7200360208,0.01286316,0.00248718,-0.99581909,-0.061035,0.183105,-0.122070
7207604125,0.01286316,0.00248718,-0.99581909,-0.061035,0.122070,-0.244141
7212690958,0.01397705,0.00321960,-0.99533081,-0.061035,0.122070,-0.244141
7217785458,0.01397705,0.00321960,-0.99533081,0.122070,0.122070,-0.061035
7220380333,0.01252747,0.00418091,-0.99491882,0.122070,0.122070,-0.061035
7227885750,0.01252747,0.00418091,-0.99491882,-0.061035,0.183105,-0.183105
7230434583,0.01307678,0.00495911,-0.99565125,-0.061035,0.183105,-0.183105
7238060833,0.01307678,0.00495911,-0.99565125,0.061035,0.305176,-0.061035
7242929291,0.01300049,0.00495911,-0.99444580,0.061035,0.305176,-0.061035
7248048666,0.01300049,0.00495911,-0.99444580,0.000000,0.183105,-0.061035
7250595666,0.01187134,0.00471497,-0.99562073,0.000000,0.183105,-0.061035
7258190250,0.01187134,0.00471497,-0.99562073,0.000000,0.183105,-0.061035
7260731000,0.01199341,0.00421143,-0.99656677,0.000000,0.183105,-0.061035
7268319166,0.01199341,0.00421143,-0.99656677,0.183105,0.122070,-0.183105
7270862333,0.01330566,0.00364685,-0.99551392,0.183105,0.122070,-0.183105
7278457916,0.01330566,0.00364685,-0.99551392,0.061035,0.305176,-0.061035
7281003166,0.01222229,0.00289917,-0.99539185,0.061035,0.305176,-0.061035
7288600083,0.01222229,0.00289917,-0.99539185,0.000000,0.244141,-0.061035
7291159041,0.01306152,0.00201416,-0.99412537,0.000000,0.244141,-0.061035
7298513125,0.01306152,0.00201416,-0.99412537,-0.061035,0.122070,-0.244141
7301073791,0.01313782,0.00218201,-0.99583435,-0.061035,0.122070,-0.244141
7308736916,0.01313782,0.00218201,-0.99583435,0.000000,0.183105,-0.061035
7311111708,0.01257324,0.00250244,-0.99568176,0.000000,0.183105,-0.061035
7318690166,0.01257324,0.00250244,-0.99568176,0.061035,0.183105,-0.061035
7321232041,0.01368713,0.00149536,-0.99513245,0.061035,0.183105,-0.061035
7328002375,0.01368713,0.00149536,-0.99513245,0.000000,0.122070,-0.122070
7333071666,0.01303101,0.00212097,-0.99530029,0.000000,0.122070,-0.122070
7338154583,0.01303101,0.00212097,-0.99530029,0.000000,0.061035,-0.183105
7343228958,0.01274109,0.00338745,-0.99467468,0.000000,0.061035,-0.183105
7348294375,0.01274109,0.00338745,-0.99467468,0.061035,0.122070,0.000000
7353100791,0.01217651,0.00349426,-0.99612427,0.061035,0.122070,0.000000
7357749458,0.01217651,0.00349426,-0.99612427,0.000000,0.122070,0.000000
7362519458,0.01275635,0.00396729,-0.99603271,0.000000,0.122070,0.000000
7367154208,0.01275635,0.00396729,-0.99603271,0.061035,0.183105,-0.183105
7372238958,0.01248169,0.00462341,-0.99513245,0.061035,0.183105,-0.183105
7377310083,0.01248169,0.00462341,-0.99513245,0.122070,0.122070,0.000000
7382391625,0.01274109,0.00485229,-0.99433899,0.122070,0.122070,0.000000
7387341833,0.01274109,0.00485229,-0.99433899,0.122070,0.305176,0.000000
7392272250,0.01286316,0.00396729,-0.99494934,0.122070,0.305176,0.000000
7397360041,0.01286316,0.00396729,-0.99494934,0.122070,0.183105,-0.122070
7402168250,0.01278687,0.00282288,-0.99468994,0.122070,0.183105,-0.122070
7407251041,0.01278687,0.00282288,-0.99468994,0.000000,0.061035,-0.061035
7412324458,0.01290894,0.00328064,-0.99435425,0.000000,0.061035,-0.061035
7417389875,0.01290894,0.00328064,-0.99435425,0.000000,0.122070,-0.061035
7422457416,0.01199341,0.00354004,-0.99595642,0.000000,0.122070,-0.061035
7427557208,0.01199341,0.00354004,-0.99595642,-0.061035,0.122070,0.000000
7432652666,0.01234436,0.00268555,-0.99508667,-0.061035,0.122070,0.000000
7437726125,0.01234436,0.00268555,-0.99508667,0.000000,0.122070,-0.244141
7442790500,0.01296997,0.00363159,-0.99633789,0.000000,0.122070,-0.244141
7447874250,0.01296997,0.00363159,-0.99633789,0.000000,0.183105,-0.122070
7452947500,0.01229858,0.00450134,-0.99481201,0.000000,0.183105,-0.122070
7458028375,0.01229858,0.00450134,-0.99481201,0.061035,0.122070,-0.122070
7463052333,0.01304626,0.00302124,-0.99546814,0.061035,0.122070,-0.122070
7468011333,0.01304626,0.00302124,-0.99546814,0.061035,0.183105,-0.061035
7473054083,0.01319885,0.00320435,-0.99449158,0.061035,0.183105,-0.061035
7478028708,0.01319885,0.00320435,-0.99449158,0.061035,0.183105,-0.061035
7483079375,0.01332092,0.00332642,-0.99499512,0.061035,0.183105,-0.061035
7488012833,0.01332092,0.00332642,-0.99499512,0.000000,0.183105,-0.122070
7493059583,0.01226807,0.00299072,-0.99418640,0.000000,0.183105,-0.122070
7498140375,0.01226807,0.00299072,-0.99418640,0.183105,0.183105,-0.183105
7503206791,0.01293945,0.00326538,-0.99542236,0.183105,0.183105,-0.183105
7508281958,0.01293945,0.00326538,-0.99542236,0.061035,0.122070,-0.122070
7512874875,0.01243591,0.00415039,-0.99720764,0.061035,0.122070,-0.122070
7517945333,0.01243591,0.00415039,-0.99720764,0.061035,0.183105,-0.183105
7523029041,0.01162720,0.00335693,-0.99511719,0.061035,0.183105,-0.183105
7527993375,0.01162720,0.00335693,-0.99511719,0.122070,0.183105,-0.061035
7533133375,0.01269531,0.00320435,-0.99475098,0.122070,0.183105,-0.061035
7538212916,0.01269531,0.00320435,-0.99475098,-0.061035,0.244141,-0.122070
7543286416,0.01300049,0.00267029,-0.99568176,-0.061035,0.244141,-0.122070
7548384208,0.01300049,0.00267029,-0.99568176,0.000000,0.061035,-0.183105
7553465750,0.01228333,0.00280762,-0.99468994,0.000000,0.061035,-0.183105
7558550000,0.01228333,0.00280762,-0.99468994,0.122070,0.183105,0.000000
7561127000,0.01318359,0.00305176,-0.99411011,0.122070,0.183105,0.000000
7568236750,0.01318359,0.00305176,-0.99411011,0.122070,0.183105,-0.122070
7573319291,0.01293945,0.00350952,-0.99595642,0.122070,0.183105,-0.122070
7578387375,0.01293945,0.00350952,-0.99595642,0.061035,0.244141,0.000000
7582562083,0.01268005,0.00288391,-0.99551392,0.061035,0.244141,0.000000
7587630083,0.01268005,0.00288391,-0.99551392,0.061035,0.122070,-0.061035
7592702583,0.01303101,0.00212097,-0.99424744,0.061035,0.122070,-0.061035
7597829083,0.01303101,0.00212097,-0.99424744,0.061035,0.366211,-0.244141
7602893500,0.01309204,0.00321960,-0.99511719,0.061035,0.366211,-0.244141
7607850000,0.01309204,0.00321960,-0.99511719,0.000000,0.183105,-0.122070
7612880583,0.01412964,0.00415039,-0.99440002,0.000000,0.183105,-0.122070
7617887541,0.01412964,0.00415039,-0.99440002,0.061035,0.183105,-0.122070
7622937750,0.01435852,0.00233459,-0.99433899,0.061035,0.183105,-0.122070
7627988791,0.01435852,0.00233459,-0.99433899,0.000000,0.183105,0.000000
7633040333,0.01390076,0.00296021,-0.99638367,0.000000,0.183105,0.000000
7638185333,0.01390076,0.00296021,-0.99638367,0.061035,0.183105,-0.061035
7643238166,0.01274109,0.00294495,-0.99679565,0.061035,0.183105,-0.061035
7648087875,0.01274109,0.00294495,-0.99679565,-0.122070,0.122070,-0.244141
7652895125,0.01315308,0.00231934,-0.99543762,-0.122070,0.122070,-0.244141
7660218875,0.01315308,0.00231934,-0.99543762,0.122070,0.122070,-0.183105
7662772500,0.01361084,0.00279236,-0.99566650,0.122070,0.122070,-0.183105
7670368583,0.01361084,0.00279236,-0.99566650,0.061035,0.122070,-0.183105
7672926500,0.01164246,0.00210571,-0.99409485,0.061035,0.122070,-0.183105
7680298708,0.01164246,0.00210571,-0.99409485,0.061035,0.183105,-0.183105
7682861500,0.01216125,0.00259399,-0.99438477,0.061035,0.183105,-0.183105
7690460625,0.01216125,0.00259399,-0.99438477,-0.061035,0.183105,-0.122070
7693041000,0.01249695,0.00257874,-0.99511719,-0.061035,0.183105,-0.122070
7698130625,0.01249695,0.00257874,-0.99511719,0.000000,0.122070,-0.061035
7703204500,0.01284790,0.00311279,-0.99604797,0.000000,0.122070,-0.061035
7708267375,0.01284790,0.00311279,-0.99604797,0.122070,0.244141,-0.122070
7713339125,0.01339722,0.00334167,-0.99472046,0.122070,0.244141,-0.122070
7718408125,0.01339722,0.00334167,-0.99472046,0.061035,0.183105,-0.122070
7723491666,0.01403809,0.00361633,-0.99513245,0.061035,0.183105,-0.122070
7728564541,0.01403809,0.00361633,-0.99513245,0.000000,0.183105,-0.122070
7733323291,0.01356506,0.00326538,-0.99432373,0.000000,0.183105,-0.122070
7738419875,0.01356506,0.00326538,-0.99432373,-0.061035,0.061035,-0.183105
7743492416,0.01307678,0.00363159,-0.99464417,-0.061035,0.061035,-0.183105
7748231458,0.01307678,0.00363159,-0.99464417,0.061035,0.122070,-0.122070
7753318166,0.01322937,0.00372314,-0.99507141,0.061035,0.122070,-0.122070
7758438541,0.01322937,0.00372314,-0.99507141,0.000000,0.305176,-0.122070
7763515416,0.01216125,0.00382996,-0.99378967,0.000000,0.305176,-0.122070
7768604750,0.01216125,0.00382996,-0.99378967,-0.061035,0.183105,-0.122070
7772924708,0.01347351,0.00427246,-0.99571228,-0.061035,0.183105,-0.122070
7780233541,0.01347351,0.00427246,-0.99571228,0.061035,0.244141,0.000000
7782348750,0.01293945,0.00318909,-0.99636841,0.061035,0.244141,0.000000
7789754083,0.01293945,0.00318909,-0.99636841,0.061035,0.244141,-0.122070
7792281541,0.01293945,0.00267029,-0.99409485,0.061035,0.244141,-0.122070
7799858041,0.01293945,0.00267029,-0.99409485,0.122070,0.183105,-0.122070
7802284833,0.01254272,0.00317383,-0.99536133,0.122070,0.183105,-0.122070
7809877541,0.01254272,0.00317383,-0.99536133,0.122070,0.122070,-0.244141
7812419791,0.01249695,0.00402832,-0.99488831,0.122070,0.122070,-0.244141
7820040000,0.01249695,0.00402832,-0.99488831,0.183105,0.122070,0.000000
7822350291,0.01248169,0.00404358,-0.99537659,0.183105,0.122070,0.000000
7829959791,0.01248169,0.00404358,-0.99537659,0.000000,0.183105,-0.122070
7832515166,0.01156616,0.00448608,-0.99525452,0.000000,0.183105,-0.122070
7840119083,0.01156616,0.00448608,-0.99525452,0.061035,0.183105,-0.122070
7842661333,0.01055908,0.00541687,-0.99394226,0.061035,0.183105,-0.122070
7850284083,0.01055908,0.00541687,-0.99394226,0.183105,0.244141,-0.122070
7852831000,0.01145935,0.00482178,-0.99411011,0.183105,0.244141,-0.122070
7860339500,0.01145935,0.00482178,-0.99411011,0.122070,0.122070,-0.183105
7862905458,0.01168823,0.00453186,-0.99438477,0.122070,0.122070,-0.183105
7867998083,0.01168823,0.00453186,-0.99438477,0.183105,0.244141,-0.183105
7873077125,0.01335144,0.00346375,-0.99583435,0.183105,0.244141,-0.183105
7878154625,0.01335144,0.00346375,-0.99583435,0.000000,0.122070,-0.061035
7882943333,0.01463318,0.00411987,-0.99659729,0.000000,0.122070,-0.061035
7889994250,0.01463318,0.00411987,-0.99659729,-0.061035,0.000000,-0.122070
7892549000,0.01359558,0.00479126,-0.99578857,-0.061035,0.000000,-0.122070
7899930583,0.01359558,0.00479126,-0.99578857,0.793457,-0.488281,-0.183105
7904535416,0.01278687,0.00459290,-0.98948669,0.793457,-0.488281,-0.183105
7909282000,0.01278687,0.00459290,-0.98948669,0.061035,0.183105,0.000000
7914365083,0.01313782,0.00262451,-0.99320984,0.061035,0.183105,0.000000
7919466333,0.01313782,0.00262451,-0.99320984,0.061035,0.244141,-0.061035
7924521000,0.01312256,0.00225830,-1.00704956,0.061035,0.244141,-0.061035
7929594958,0.01312256,0.00225830,-1.00704956,0.000000,0.244141,-0.061035
7932147125,0.01370239,0.00186157,-0.99002075,0.000000,0.244141,-0.061035
7939272500,0.01370239,0.00186157,-0.99002075,0.000000,0.244141,-0.183105
7944277000,0.01177979,0.00125122,-0.99771118,0.000000,0.244141,-0.183105
7949329500,0.01177979,0.00125122,-0.99771118,0.061035,0.305176,-0.244141
7954169375,0.01379395,0.00138855,-0.99462891,0.061035,0.305176,-0.244141
7959207333,0.01379395,0.00138855,-0.99462891,-0.122070,0.183105,-0.122070
7964298541,0.01383972,0.00184631,-0.99635315,-0.122070,0.183105,-0.122070
7969254666,0.01383972,0.00184631,-0.99635315,0.122070,0.244141,-0.183105
7974331791,0.01222229,0.00318909,-0.99505615,0.122070,0.244141,-0.183105
7979207250,0.01222229,0.00318909,-0.99505615,0.061035,0.244141,-0.183105
7984276375,0.01272583,0.00495911,-0.99562073,0.061035,0.244141,-0.183105
7989341000,0.01272583,0.00495911,-0.99562073,0.122070,0.183105,-0.122070
7994481625,0.01321411,0.00619507,-0.99678040,0.122070,0.183105,-0.122070
7999382375,0.01321411,0.00619507,-0.99678040,0.183105,0.122070,-0.122070
8004464458,0.01226807,0.00602722,-0.99420166,0.183105,0.122070,-0.122070
8009562916,0.01226807,0.00602722,-0.99420166,-0.244141,0.244141,-0.122070
8012143791,0.01318359,0.00550842,-0.99215698,-0.244141,0.244141,-0.122070
8019271125,0.01318359,0.00550842,-0.99215698,0.305176,0.244141,0.000000
8024288125,0.01365662,0.00506592,-1.00271606,0.305176,0.244141,0.000000
8029360125,0.01365662,0.00506592,-1.00271606,0.366211,0.305176,-0.183105
8034425291,0.01336670,0.00416565,-0.98211670,0.366211,0.305176,-0.183105
8039491583,0.01336670,0.00416565,-0.98211670,0.427246,0.122070,-0.061035
8044557541,0.01338196,0.00039673,-0.98551941,0.427246,0.122070,-0.061035
8049210083,0.01338196,0.00039673,-0.98551941,0.061035,0.122070,-0.244141
8054301666,0.01396179,-0.00143433,-1.01062012,0.061035,0.122070,-0.244141
8059381875,0.01396179,-0.00143433,-1.01062012,-0.244141,0.061035,-0.122070
8064001375,0.01467896,0.00027466,-0.99917603,-0.244141,0.061035,-0.122070
8069080125,0.01467896,0.00027466,-0.99917603,-0.122070,-0.183105,-0.122070
8073778416,0.01235962,0.00335693,-1.00109863,-0.122070,-0.183105,-0.122070
8081363250,0.01235962,0.00335693,-1.00109863,-0.122070,-0.061035,-0.061035
8083898875,0.00984192,0.00708008,-0.99462891,-0.122070,-0.061035,-0.061035
8088963166,0.00984192,0.00708008,-0.99462891,0.366211,-0.122070,-0.061035
8094023791,0.01103210,0.00892639,-0.99317932,0.366211,-0.122070,-0.061035
8099099250,0.01103210,0.00892639,-0.99317932,0.061035,0.244141,-0.061035
8104176375,0.01179504,0.00920105,-0.99499512,0.061035,0.244141,-0.061035
8109108166,0.01179504,0.00920105,-0.99499512,-0.183105,0.244141,-0.061035
8114161666,0.01345825,0.00819397,-0.99026489,-0.183105,0.244141,-0.061035
8121051583,0.01345825,0.00819397,-0.99026489,0.244141,0.122070,-0.122070
8123621500,0.01431274,0.00488281,-0.99600220,0.244141,0.122070,-0.122070
8131199000,0.01431274,0.00488281,-0.99600220,0.061035,0.183105,-0.122070
8133737875,0.01383972,0.00230408,-0.99452209,0.061035,0.183105,-0.122070
8141325125,0.01383972,0.00230408,-0.99452209,0.061035,0.122070,-0.061035
8143863500,0.01416016,0.00080872,-0.99436951,0.061035,0.122070,-0.061035
8151502583,0.01416016,0.00080872,-0.99436951,0.061035,0.183105,0.061035
8154050916,0.01393127,0.00070190,-0.99600220,0.061035,0.183105,0.061035
8159120666,0.01393127,0.00070190,-0.99600220,0.183105,0.061035,-0.122070
8164196208,0.01387024,-0.00001526,-0.99598694,0.183105,0.061035,-0.122070
8169271500,0.01387024,-0.00001526,-0.99598694,0.122070,0.183105,-0.244141
8174368291,0.01298523,-0.00022888,-0.99308777,0.122070,0.183105,-0.244141
8179435583,0.01298523,-0.00022888,-0.99308777,1.525879,0.366211,-0.183105
8184511375,0.01226807,0.00056458,-0.99131775,1.525879,0.366211,-0.183105
8189217416,0.01226807,0.00056458,-0.99131775,-1.220703,0.305176,-0.061035
8194411250,0.01223755,0.00218201,-0.98759460,-1.220703,0.305176,-0.061035
8199470166,0.01223755,0.00218201,-0.98759460,1.037598,0.244141,-0.122070
8204551625,0.01159668,0.00349426,-1.01765442,1.037598,0.244141,-0.122070
8209141750,0.01159668,0.00349426,-1.01765442,-0.427246,0.244141,-0.061035
8214211666,0.01185608,0.00448608,-0.97019958,-0.427246,0.244141,-0.061035
8219273208,0.01185608,0.00448608,-0.97019958,0.244141,0.183105,-0.061035
8224057416,0.01373291,0.00393677,-1.01432800,0.244141,0.183105,-0.061035
8229125083,0.01373291,0.00393677,-1.01432800,0.061035,0.000000,-0.122070
