timestamp_ns,accel_x,accel_y,accel_z,gyro_x,gyro_y,gyro_z
106756625,0.01325989,-0.00134277,-0.99311829,0.122070,0.122070,-0.061035
113414666,0.01513672,-0.00045776,-0.99662781,0.122070,0.122070,-0.061035
116560625,0.01513672,-0.00045776,-0.99662781,0.061035,0.244141,-0.061035
136079208,0.01271057,-0.00010681,-0.99526978,0.122070,0.183105,-0.122070
139016083,0.01225281,0.00071716,-0.99661255,0.061035,0.122070,-0.122070
144344166,0.01193237,0.00352478,-0.99592590,0.061035,0.122070,-0.122070
147662166,0.01193237,0.00352478,-0.99592590,0.183105,0.244141,-0.122070
156009500,0.01034546,0.00627136,-0.99629211,-0.061035,0.061035,-0.183105
166577125,0.01152039,0.00947571,-0.99636841,0.000000,0.244141,-0.183105
175421708,0.01295471,0.01004028,-0.99507141,0.000000,0.061035,-0.061035
185497625,0.01213074,0.00941467,-0.99778748,0.122070,0.122070,0.000000
195555916,0.01235962,0.00895691,-0.99668884,0.000000,0.122070,-0.061035
205583250,0.01260376,0.00798035,-0.99617004,0.000000,0.000000,-0.122070
215623625,0.01377869,0.00595093,-0.99571228,0.122070,0.244141,-0.122070
225730458,0.01261902,0.00433350,-0.99681091,0.061035,0.122070,-0.122070
233331916,0.01173401,0.00170898,-0.99644470,0.061035,0.122070,-0.122070
235848416,0.01173401,0.00170898,-0.99644470,0.122070,0.122070,-0.061035
243375458,0.01138306,0.00090027,-0.99600220,0.122070,0.122070,-0.061035
245889625,0.01138306,0.00090027,-0.99600220,0.000000,0.244141,-0.183105
253416333,0.01182556,0.00238037,-0.99589539,0.000000,0.244141,-0.183105
255926708,0.01182556,0.00238037,-0.99589539,-0.061035,0.122070,-0.122070
263470500,0.01274109,0.00276184,-0.99559021,-0.061035,0.122070,-0.122070
265982416,0.01274109,0.00276184,-0.99559021,0.000000,0.183105,-0.244141
273511125,0.01304626,0.00309753,-0.99528503,0.000000,0.183105,-0.244141
276024625,0.01304626,0.00309753,-0.99528503,0.000000,0.183105,-0.122070
283563875,0.01280212,0.00366211,-0.99559021,0.000000,0.183105,-0.122070
286076375,0.01280212,0.00366211,-0.99559021,0.061035,0.122070,-0.122070
293619708,0.01237488,0.00375366,-0.99635315,0.061035,0.122070,-0.122070
296137541,0.01237488,0.00375366,-0.99635315,0.122070,0.183105,-0.122070
303678333,0.01164246,0.00654602,-0.99485779,0.122070,0.183105,-0.122070
306193166,0.01164246,0.00654602,-0.99485779,0.061035,0.244141,-0.183105
313732250,0.01187134,0.00575256,-0.99607849,0.061035,0.244141,-0.183105
316246583,0.01187134,0.00575256,-0.99607849,-0.061035,0.183105,-0.061035
323780750,0.01095581,0.00654602,-0.99827576,-0.061035,0.183105,-0.061035
326312458,0.01095581,0.00654602,-0.99827576,0.000000,0.183105,-0.183105
333905625,0.01275635,0.00567627,-0.99545288,0.000000,0.183105,-0.183105
336444291,0.01275635,0.00567627,-0.99545288,0.122070,0.183105,0.000000
344008916,0.01300049,0.00399780,-0.99574280,0.122070,0.183105,0.000000
346528583,0.01300049,0.00399780,-0.99574280,-0.061035,0.122070,-0.183105
354108958,0.01339722,0.00347900,-0.99551392,-0.061035,0.122070,-0.183105
356632833,0.01339722,0.00347900,-0.99551392,0.122070,0.122070,-0.183105
364208333,0.01385498,0.00271606,-0.99674988,0.122070,0.122070,-0.183105
366731250,0.01385498,0.00271606,-0.99674988,0.000000,0.183105,-0.061035
374313958,0.01235962,0.00238037,-0.99645996,0.000000,0.183105,-0.061035
376850625,0.01235962,0.00238037,-0.99645996,0.000000,0.061035,-0.122070
384431416,0.01159668,0.00425720,-0.99588013,0.000000,0.061035,-0.122070
386961750,0.01159668,0.00425720,-0.99588013,0.122070,0.244141,-0.122070
394540375,0.01127625,0.00422668,-0.99575806,0.122070,0.244141,-0.122070
397075458,0.01127625,0.00422668,-0.99575806,0.061035,0.122070,-0.122070
404657083,0.01156616,0.00524902,-0.99618530,0.061035,0.122070,-0.122070
407256958,0.01156616,0.00524902,-0.99618530,0.244141,0.183105,-0.183105
414888791,0.01144409,0.00611877,-0.99516296,0.122070,0.122070,-0.122070
425063291,0.01235962,0.00738525,-0.99536133,0.122070,0.122070,-0.061035
435252916,0.01402283,0.00692749,-0.99674988,0.000000,0.122070,-0.122070
445372375,0.01347351,0.00601196,-0.99700928,0.183105,0.244141,-0.061035
455506791,0.01295471,0.00640869,-0.99594116,0.000000,0.122070,-0.122070
465543916,0.01258850,0.00689697,-0.99407959,0.061035,0.122070,-0.061035
475741083,0.01225281,0.00610352,-0.99681091,0.000000,0.122070,-0.061035
485921291,0.01254272,0.00556946,-0.99645996,0.122070,0.244141,-0.122070
496080125,0.01300049,0.00418091,-0.99597168,0.000000,0.061035,0.000000
506359875,0.01249695,0.00344849,-0.99543762,0.122070,0.183105,-0.122070
514018750,0.01266479,0.00270081,-0.99540710,0.122070,0.183105,-0.122070
516585083,0.01266479,0.00270081,-0.99540710,0.000000,0.122070,-0.061035
524173375,0.01225281,0.00289917,-0.99588013,0.000000,0.122070,-0.061035
526715583,0.01225281,0.00289917,-0.99588013,0.122070,0.061035,-0.061035
534318291,0.01254272,0.00225830,-0.99568176,0.122070,0.061035,-0.061035
536891916,0.01254272,0.00225830,-0.99568176,0.061035,0.244141,-0.122070
544488458,0.01185608,0.00311279,-0.99560547,0.061035,0.244141,-0.122070
547391833,0.01185608,0.00311279,-0.99560547,0.000000,0.122070,-0.183105
558186750,0.01046753,0.00358582,-0.99504089,0.122070,0.122070,-0.122070
565635750,0.01168823,0.00256348,-0.99493408,0.183105,0.183105,-0.183105
574464750,0.01220703,0.00321960,-0.99746704,0.183105,0.183105,-0.183105
577037083,0.01220703,0.00321960,-0.99746704,0.122070,0.183105,-0.244141
584730333,0.01293945,0.00366211,-0.99603271,0.122070,0.183105,-0.244141
595850750,0.01275635,0.00576782,-0.99630737,0.061035,0.183105,-0.061035
595874041,0.01275635,0.00576782,-0.99630737,0.000000,0.183105,-0.122070
606000416,0.01214600,0.00704956,-0.99618530,0.000000,0.244141,-0.061035
616150375,0.01106262,0.00701904,-0.99604797,-0.061035,0.122070,0.061035
626103041,0.01307678,0.00798035,-0.99645996,0.122070,0.183105,-0.122070
635870625,0.01150513,0.00714111,-0.99581909,0.061035,0.122070,-0.061035
646025083,0.01136780,0.00556946,-0.99588013,0.122070,0.122070,-0.122070
656171166,0.01208496,0.00473022,-0.99610901,0.122070,0.183105,0.000000
666327875,0.01223755,0.00404358,-0.99546814,0.061035,0.183105,-0.061035
676523083,0.01214600,0.00346375,-0.99574280,0.000000,0.183105,-0.061035
686732250,0.01182556,0.00357056,-0.99482727,0.061035,0.122070,-0.061035
694397583,0.01286316,0.00309753,-0.99691772,0.061035,0.122070,-0.061035
696995500,0.01286316,0.00309753,-0.99691772,-0.122070,0.122070,-0.183105
704806750,0.01298523,0.00398254,-0.99630737,-0.122070,0.122070,-0.183105
707516125,0.01298523,0.00398254,-0.99630737,0.122070,0.183105,-0.061035
715257791,0.01156616,0.00450134,-0.99537659,0.122070,0.183105,-0.061035
717878000,0.01156616,0.00450134,-0.99537659,0.000000,0.244141,0.000000
725530083,0.01211548,0.00540161,-0.99537659,-0.061035,0.122070,-0.183105
735343500,0.01084900,0.00527954,-0.99549866,-0.061035,0.122070,-0.183105
737918875,0.01084900,0.00527954,-0.99549866,0.061035,0.244141,-0.061035
745591250,0.01159668,0.00540161,-0.99505615,0.061035,0.122070,-0.061035
755710750,0.01203918,0.00424194,-0.99761963,0.000000,0.244141,-0.122070
765853916,0.01246643,0.00251770,-0.99551392,-0.061035,0.244141,-0.122070
775988291,0.01388550,0.00259399,-0.99604797,0.122070,0.244141,-0.061035
786107416,0.01325989,0.00271606,-0.99533081,0.000000,0.122070,0.000000
795871875,0.01232910,0.00402832,-0.99650574,-0.061035,0.122070,-0.122070
805560083,0.01159668,0.00553894,-0.99684143,-0.061035,0.122070,-0.122070
808182291,0.01159668,0.00553894,-0.99684143,-0.244141,0.183105,-0.061035
815831500,0.01142883,0.00683594,-0.99598694,0.000000,0.244141,-0.061035
825953958,0.01094055,0.00836182,-0.99568176,0.061035,0.122070,0.000000
836050541,0.01206970,0.00956726,-0.99667358,-0.061035,0.122070,-0.061035
846199708,0.01148987,0.00886536,-0.99645996,0.122070,0.000000,0.061035
856336541,0.01199341,0.00677490,-0.99668884,0.000000,0.183105,-0.061035
866448333,0.01361084,0.00424194,-0.99584961,-0.122070,0.183105,0.000000
876219458,0.01376343,0.00309753,-0.99609375,-0.122070,0.183105,0.000000
878771791,0.01376343,0.00309753,-0.99609375,0.183105,0.183105,0.000000
886387541,0.01373291,0.00057983,-0.99472046,0.000000,0.183105,-0.122070
896204375,0.01370239,0.00018311,-0.99526978,0.000000,0.183105,-0.122070
898758458,0.01370239,0.00018311,-0.99526978,0.061035,0.244141,0.000000
906377375,0.01332092,-0.00001526,-0.99499512,0.061035,0.183105,-0.183105
916083375,0.01269531,0.00112915,-0.99578857,0.061035,0.183105,-0.183105
918629333,0.01269531,0.00112915,-0.99578857,0.061035,0.244141,-0.122070
926288958,0.01193237,0.00323486,-0.99682617,0.061035,0.122070,-0.183105
936439291,0.01217651,0.00460815,-0.99702454,0.183105,0.244141,-0.183105
946574916,0.01132202,0.00671387,-0.99571228,-0.061035,0.061035,-0.183105
955973000,0.01086426,0.00753784,-0.99609375,-0.061035,0.061035,-0.183105
958522250,0.01086426,0.00753784,-0.99609375,0.000000,0.183105,-0.061035
966125750,0.01164246,0.00848389,-0.99594116,0.000000,0.183105,-0.061035
968659000,0.01164246,0.00848389,-0.99594116,0.061035,0.183105,-0.244141
976152166,0.01261902,0.00782776,-0.99493408,0.061035,0.183105,-0.244141
978692500,0.01261902,0.00782776,-0.99493408,0.122070,0.183105,-0.061035
986300625,0.01255798,0.00660706,-0.99635315,0.122070,0.183105,-0.061035
988852166,0.01255798,0.00660706,-0.99635315,0.061035,0.244141,0.061035
995593750,0.01290894,0.00570679,-0.99525452,0.061035,0.244141,0.061035
998139666,0.01290894,0.00570679,-0.99525452,0.122070,0.061035,-0.061035
1005765208,0.01374817,0.00331116,-0.99539185,0.122070,0.061035,-0.061035
1008309583,0.01374817,0.00331116,-0.99539185,0.061035,0.183105,0.000000
1015926166,0.01376343,0.00253296,-0.99594116,0.061035,0.183105,0.000000
1018474750,0.01376343,0.00253296,-0.99594116,0.122070,0.244141,-0.061035
1026088416,0.01289368,0.00273132,-0.99617004,0.122070,0.244141,-0.061035
1028633500,0.01289368,0.00273132,-0.99617004,0.183105,0.183105,-0.061035
1036320208,0.01165771,0.00263977,-0.99560547,0.122070,0.244141,-0.061035
1046452375,0.01191711,0.00285339,-0.99528503,-0.061035,0.122070,-0.061035
1056633791,0.01194763,0.00413513,-0.99609375,0.000000,0.244141,-0.122070
1066790083,0.01184082,0.00575256,-0.99580383,0.000000,0.244141,-0.122070
1076958666,0.01277161,0.00732422,-0.99703979,0.061035,0.183105,-0.061035
1087108708,0.01245117,0.00825500,-0.99594116,0.183105,0.183105,-0.122070
1097251708,0.01191711,0.00703430,-0.99671936,0.061035,0.244141,-0.061035
1107053416,0.01296997,0.00796509,-0.99630737,0.061035,0.183105,-0.122070
1117206708,0.01374817,0.00752258,-0.99607849,0.122070,0.183105,-0.061035
1126923375,0.01264954,0.00660706,-0.99560547,0.000000,0.305176,-0.061035
1137014291,0.01290894,0.00529480,-0.99554443,0.244141,0.183105,0.061035
1147177208,0.01182556,0.00480652,-0.99641418,-0.061035,0.305176,0.000000
1157331666,0.01278687,0.00386047,-0.99632263,0.061035,0.122070,-0.122070
1167472000,0.01312256,0.00221252,-0.99555969,0.061035,0.183105,-0.183105
1177343791,0.01281738,0.00125122,-0.99493408,0.061035,0.122070,0.000000
1187499125,0.01275635,0.00236511,-0.99650574,0.000000,0.183105,0.000000
1197636166,0.01260376,0.00221252,-0.99655151,0.061035,0.183105,0.000000
1207792625,0.01249695,0.00244141,-0.99563599,0.061035,0.122070,-0.061035
1215396666,0.01184082,0.00341797,-0.99717712,0.061035,0.122070,-0.061035
1217942833,0.01184082,0.00341797,-0.99717712,-0.061035,0.000000,-0.183105
1225564000,0.01193237,0.00424194,-0.99684143,-0.061035,0.000000,-0.183105
1228099083,0.01193237,0.00424194,-0.99684143,0.061035,0.305176,-0.244141
1237828833,0.01156616,0.00480652,-0.99566650,0.061035,0.183105,-0.122070
1247602791,0.01193237,0.00625610,-0.99485779,0.061035,0.244141,0.000000
1257189208,0.01199341,0.00627136,-0.99588013,0.000000,0.183105,-0.122070
1267292125,0.01312256,0.00703430,-0.99674988,0.000000,0.061035,-0.122070
1277460166,0.01196289,0.00608826,-0.99554443,0.183105,0.244141,-0.183105
1287598125,0.01199341,0.00541687,-0.99562073,-0.061035,0.061035,-0.061035
1297651916,0.01225281,0.00543213,-0.99496460,-0.061035,0.122070,-0.183105
1307787375,0.01254272,0.00532532,-0.99572754,0.061035,0.183105,0.000000
1317911625,0.01268005,0.00466919,-0.99540710,0.000000,0.061035,-0.122070
1328049250,0.01231384,0.00354004,-0.99598694,0.122070,0.061035,-0.122070
1338217583,0.01045227,0.00428772,-0.99604797,0.244141,0.183105,-0.061035
1345819791,0.01130676,0.00445557,-0.99629211,0.244141,0.183105,-0.061035
1348359333,0.01130676,0.00445557,-0.99629211,0.061035,0.244141,-0.122070
1355944416,0.01202393,0.00495911,-0.99575806,0.061035,0.244141,-0.122070
1358484000,0.01202393,0.00495911,-0.99575806,-0.061035,0.183105,-0.183105
1366127083,0.01173401,0.00491333,-0.99584961,-0.061035,0.183105,-0.183105
1368660416,0.01173401,0.00491333,-0.99584961,0.000000,0.122070,-0.122070
1376241416,0.01365662,0.00524902,-0.99649048,0.000000,0.122070,-0.122070
1378777375,0.01365662,0.00524902,-0.99649048,0.061035,0.122070,-0.122070
1386347250,0.01313782,0.00579834,-0.99647522,0.061035,0.122070,-0.122070
1388886125,0.01313782,0.00579834,-0.99647522,0.122070,0.061035,-0.122070
1396473375,0.01158142,0.00575256,-0.99632263,0.122070,0.061035,-0.122070
1399012833,0.01158142,0.00575256,-0.99632263,0.183105,0.244141,-0.061035
1406604833,0.01202393,0.00567627,-0.99584961,0.183105,0.244141,-0.061035
1409134083,0.01202393,0.00567627,-0.99584961,0.061035,0.183105,-0.122070
1416694416,0.01243591,0.00558472,-0.99584961,0.061035,0.183105,-0.122070
1419242666,0.01243591,0.00558472,-0.99584961,0.061035,0.183105,-0.061035
1426822625,0.01301575,0.00538635,-0.99557495,0.061035,0.183105,-0.061035
1429368333,0.01301575,0.00538635,-0.99557495,0.000000,0.183105,-0.122070
1436966458,0.01220703,0.00373840,-0.99569702,0.000000,0.183105,-0.122070
1439500208,0.01220703,0.00373840,-0.99569702,0.122070,0.122070,-0.122070
1446696416,0.01304626,0.00357056,-0.99528503,0.122070,0.122070,-0.122070
1449017166,0.01304626,0.00357056,-0.99528503,0.122070,0.183105,-0.061035
1458255833,0.01239014,0.00407410,-0.99526978,0.183105,0.244141,0.000000
1468565125,0.01234436,0.00477600,-0.99620056,0.122070,0.244141,-0.183105
1478728500,0.01242065,0.00418091,-0.99537659,0.061035,0.183105,-0.061035
1488622000,0.01145935,0.00367737,-0.99603271,0.061035,0.183105,-0.183105
1498440250,0.01162720,0.00469971,-0.99485779,0.061035,0.183105,-0.061035
1508332708,0.01278687,0.00517273,-0.99548340,0.061035,0.183105,-0.061035
1518209333,0.01184082,0.00627136,-0.99636841,0.000000,0.122070,-0.183105
1528347500,0.01165771,0.00712585,-0.99549866,0.061035,0.183105,-0.122070
1538087375,0.01185608,0.00617981,-0.99482727,0.122070,0.366211,-0.122070
1549736458,0.01220703,0.00598145,-0.99586487,0.000000,0.244141,-0.061035
1557453375,0.01197815,0.00596619,-0.99559021,0.000000,0.244141,-0.061035
1560034458,0.01197815,0.00596619,-0.99559021,0.000000,0.244141,-0.183105
1567648000,0.01293945,0.00517273,-0.99472046,0.061035,0.244141,-0.122070
1577694083,0.01251221,0.00390625,-0.99525452,0.122070,0.244141,-0.061035
1586881666,0.01295471,0.00402832,-0.99610901,0.122070,0.244141,-0.061035
1589461875,0.01295471,0.00402832,-0.99610901,0.061035,0.305176,-0.061035
1597047333,0.01327515,0.00376892,-0.99642944,0.061035,0.305176,-0.061035
1599591416,0.01327515,0.00376892,-0.99642944,0.000000,0.122070,-0.061035
1606681083,0.01199341,0.00305176,-0.99615479,0.000000,0.122070,-0.061035
1609210958,0.01199341,0.00305176,-0.99615479,0.122070,0.122070,0.000000
1616809541,0.01255798,0.00323486,-0.99412537,0.122070,0.122070,0.000000
1619356708,0.01255798,0.00323486,-0.99412537,0.061035,0.183105,0.000000
1626877375,0.01292419,0.00363159,-0.99629211,0.061035,0.183105,0.000000
1629414041,0.01292419,0.00363159,-0.99629211,0.122070,0.183105,-0.183105
1636981958,0.01211548,0.00321960,-0.99523926,0.122070,0.183105,-0.183105
1639530166,0.01211548,0.00321960,-0.99523926,0.122070,0.122070,-0.122070
1646622833,0.01177979,0.00398254,-0.99630737,0.122070,0.122070,-0.122070
1649161250,0.01177979,0.00398254,-0.99630737,0.183105,0.183105,-0.122070
1656467500,0.01200867,0.00498962,-0.99551392,0.183105,0.183105,-0.122070
1659015000,0.01200867,0.00498962,-0.99551392,0.000000,0.061035,-0.183105
1666597291,0.01379395,0.00524902,-0.99601746,0.000000,0.061035,-0.183105
1669141291,0.01379395,0.00524902,-0.99601746,0.122070,0.183105,0.000000
1676747333,0.01336670,0.00495911,-0.99539185,0.122070,0.183105,0.000000
1679273583,0.01336670,0.00495911,-0.99539185,0.061035,0.122070,-0.061035
1686881375,0.01210022,0.00590515,-0.99620056,0.061035,0.122070,-0.061035
1689434791,0.01210022,0.00590515,-0.99620056,0.183105,0.122070,-0.122070
1697027625,0.01237488,0.00587463,-0.99644470,0.183105,0.122070,-0.122070
1699576541,0.01237488,0.00587463,-0.99644470,0.061035,0.122070,-0.122070
1707446958,0.01240540,0.00564575,-0.99528503,0.061035,0.122070,-0.122070
1709643500,0.01240540,0.00564575,-0.99528503,0.061035,0.244141,-0.122070
1717265000,0.01283264,0.00630188,-0.99581909,0.061035,0.244141,-0.122070
1719837083,0.01283264,0.00630188,-0.99581909,0.061035,0.244141,0.000000
1727465916,0.01260376,0.00567627,-0.99536133,0.061035,0.244141,0.000000
1730029291,0.01260376,0.00567627,-0.99536133,0.000000,0.122070,-0.183105
1737395458,0.01123047,0.00502014,-0.99650574,0.000000,0.122070,-0.183105
1739954041,0.01123047,0.00502014,-0.99650574,0.061035,0.183105,-0.061035
1747572500,0.01301575,0.00550842,-0.99691772,0.061035,0.183105,-0.061035
1750132708,0.01301575,0.00550842,-0.99691772,0.122070,0.244141,-0.122070
1757740250,0.01313782,0.00494385,-0.99552917,0.122070,0.244141,-0.122070
1760301208,0.01313782,0.00494385,-0.99552917,0.000000,0.122070,-0.122070
1767902208,0.01177979,0.00404358,-0.99649048,0.000000,0.122070,-0.122070
1770449708,0.01177979,0.00404358,-0.99649048,0.122070,0.061035,-0.061035
1777717125,0.01246643,0.00433350,-0.99493408,0.122070,0.061035,-0.061035
1780281291,0.01246643,0.00433350,-0.99493408,0.061035,0.244141,-0.122070
1787879416,0.01344299,0.00485229,-0.99717712,0.061035,0.244141,-0.122070
1790495666,0.01344299,0.00485229,-0.99717712,-0.061035,0.244141,-0.061035
1797796041,0.01286316,0.00511169,-0.99641418,-0.061035,0.244141,-0.061035
1800353583,0.01286316,0.00511169,-0.99641418,0.061035,0.183105,-0.061035
1807980250,0.01258850,0.00474548,-0.99580383,0.061035,0.183105,-0.061035
1810513041,0.01258850,0.00474548,-0.99580383,0.061035,0.061035,-0.122070
1818157541,0.01249695,0.00459290,-0.99586487,0.061035,0.061035,-0.122070
1820725500,0.01249695,0.00459290,-0.99586487,0.061035,0.183105,-0.122070
1828281958,0.01298523,0.00473022,-0.99629211,0.244141,0.244141,0.000000
1838413416,0.01197815,0.00497437,-0.99656677,0.183105,0.183105,-0.122070
1848189833,0.01153564,0.00491333,-0.99707031,0.183105,0.183105,-0.122070
1850783291,0.01153564,0.00491333,-0.99707031,0.061035,0.183105,-0.122070
1858402625,0.01252747,0.00514221,-0.99783325,0.061035,0.244141,0.000000
1868275083,0.01370239,0.00453186,-0.99502563,0.000000,0.305176,-0.122070
1878390083,0.01269531,0.00354004,-0.99574280,0.061035,0.061035,-0.061035
1888494250,0.01161194,0.00460815,-0.99563599,0.122070,0.122070,-0.244141
1898702666,0.01190186,0.00347900,-0.99562073,0.183105,0.122070,0.000000
1908314333,0.01200867,0.00216675,-0.99700928,0.183105,0.122070,0.000000
1910865791,0.01200867,0.00216675,-0.99700928,0.183105,0.183105,-0.183105
1918490500,0.01315308,0.00354004,-0.99557495,0.244141,0.122070,-0.061035
1928660500,0.01383972,0.00402832,-0.99612427,0.122070,0.061035,-0.122070
1938860458,0.01336670,0.00410461,-0.99499512,0.244141,0.183105,-0.122070
1949004291,0.01293945,0.00457764,-0.99591064,0.061035,0.122070,-0.122070
1958935291,0.01293945,0.00517273,-0.99629211,0.122070,0.183105,-0.122070
1969076125,0.01319885,0.00495911,-0.99627686,0.183105,0.183105,0.000000
1979191625,0.01200867,0.00579834,-0.99661255,0.122070,0.305176,-0.183105
1989275541,0.01210022,0.00669861,-0.99580383,0.000000,0.183105,-0.244141
1999430708,0.01084900,0.00656128,-0.99522400,0.122070,0.244141,-0.061035
2009295416,0.01132202,0.00679016,-0.99595642,0.061035,0.305176,-0.122070
2019438208,0.01292419,0.00624084,-0.99746704,0.122070,0.000000,-0.061035
2029547166,0.01325989,0.00529480,-0.99584961,0.000000,0.000000,0.000000
2039309458,0.01310730,0.00431824,-0.99674988,0.061035,0.183105,-0.061035
2049111416,0.01245117,0.00526428,-0.99597168,0.000000,0.183105,-0.061035
2059255166,0.01232910,0.00563049,-0.99598694,0.122070,0.183105,-0.122070
2069381666,0.01300049,0.00418091,-0.99552917,0.000000,0.183105,-0.061035
2079497083,0.01306152,0.00343323,-0.99438477,0.061035,0.305176,-0.183105
2089350041,0.01202393,0.00411987,-0.99508667,0.122070,0.183105,-0.061035
2099517583,0.01255798,0.00497437,-0.99542236,0.000000,0.122070,-0.183105
2109734500,0.01271057,0.00459290,-0.99459839,0.122070,0.183105,0.000000
2119858125,0.01243591,0.00512695,-0.99539185,0.122070,0.183105,0.000000
2129375041,0.01127625,0.00642395,-0.99687195,0.000000,0.183105,-0.061035
2139501708,0.01231384,0.00761414,-0.99693298,-0.061035,0.122070,-0.122070
2149638250,0.01179504,0.00663757,-0.99581909,-0.061035,0.122070,-0.183105
2159684791,0.01199341,0.00764465,-0.99748230,0.122070,0.183105,-0.061035
2169809583,0.01171875,0.00624084,-0.99491882,0.000000,0.244141,-0.122070
2179788125,0.01167297,0.00527954,-0.99398804,0.122070,0.244141,-0.122070
2189912916,0.01306152,0.00518799,-0.99375916,0.183105,0.061035,-0.061035
2200031958,0.01268005,0.00419617,-0.99612427,0.122070,0.183105,0.061035
2210191750,0.01383972,0.00395203,-0.99584961,0.183105,0.183105,0.061035
2217822500,0.01303101,0.00300598,-0.99597168,0.183105,0.183105,0.061035
2220362375,0.01303101,0.00300598,-0.99597168,0.122070,0.183105,-0.061035
2227912583,0.01237488,0.00344849,-0.99681091,0.122070,0.183105,-0.061035
2230472541,0.01237488,0.00344849,-0.99681091,0.122070,0.244141,0.000000
2238065250,0.01303101,0.00311279,-0.99586487,0.122070,0.244141,0.000000
2240606083,0.01303101,0.00311279,-0.99586487,0.122070,0.183105,-0.122070
2248223958,0.01365662,0.00338745,-0.99665833,0.122070,0.183105,-0.122070
2250775041,0.01365662,0.00338745,-0.99665833,0.122070,0.244141,-0.061035
2258634500,0.01269531,0.00401306,-0.99490356,0.122070,0.244141,-0.061035
2261183083,0.01269531,0.00401306,-0.99490356,0.000000,0.244141,-0.122070
2268773958,0.01254272,0.00494385,-0.99559021,0.000000,0.244141,-0.122070
2271324166,0.01254272,0.00494385,-0.99559021,0.061035,0.305176,-0.061035
2278700958,0.01156616,0.00451660,-0.99652100,0.061035,0.305176,-0.061035
2281243750,0.01156616,0.00451660,-0.99652100,0.061035,0.305176,-0.122070
2288853416,0.01052856,0.00538635,-0.99468994,0.061035,0.305176,-0.122070
2291411708,0.01052856,0.00538635,-0.99468994,0.061035,0.183105,0.000000
2299020500,0.01220703,0.00581360,-0.99493408,0.061035,0.183105,0.000000
2301564666,0.01220703,0.00581360,-0.99493408,0.183105,0.183105,-0.061035
2309176750,0.01281738,0.00523376,-0.99473572,0.183105,0.183105,-0.061035
2311728875,0.01281738,0.00523376,-0.99473572,0.244141,0.122070,-0.061035
2319344333,0.01281738,0.00488281,-0.99636841,0.061035,0.305176,0.000000
2329486166,0.01312256,0.00375366,-0.99607849,0.000000,0.183105,-0.122070
2339175791,0.01280212,0.00379944,-0.99685669,0.000000,0.183105,-0.122070
2341700291,0.01280212,0.00379944,-0.99685669,0.122070,0.122070,-0.122070
2349142458,0.01235962,0.00320435,-0.99450684,0.122070,0.122070,-0.122070
2351694000,0.01235962,0.00320435,-0.99450684,0.000000,0.244141,-0.061035
2359359791,0.01217651,0.00366211,-0.99606323,0.122070,0.122070,-0.183105
2369538250,0.01226807,0.00386047,-0.99563599,0.122070,0.061035,-0.061035
2379655750,0.01084900,0.00376892,-0.99607849,0.122070,0.183105,0.000000
2389813250,0.01179504,0.00433350,-0.99652100,0.122070,0.244141,-0.061035
2399939750,0.01234436,0.00402832,-0.99508667,0.122070,0.122070,0.000000
2410075875,0.01161194,0.00491333,-0.99812317,0.000000,0.122070,-0.122070
2420211000,0.01313782,0.00567627,-0.99720764,-0.061035,0.244141,0.000000
2430359250,0.01400757,0.00532532,-0.99537659,0.061035,0.244141,-0.122070
2440489791,0.01315308,0.00578308,-0.99423218,0.122070,0.122070,-0.061035
2450618250,0.01316833,0.00546265,-0.99636841,0.061035,0.122070,-0.122070
2460630291,0.01310730,0.00506592,-0.99707031,0.122070,0.122070,-0.061035
2470781250,0.01280212,0.00477600,-0.99603271,0.000000,0.122070,-0.183105
2478394375,0.01380920,0.00457764,-0.99633789,0.000000,0.122070,-0.183105
2480952041,0.01380920,0.00457764,-0.99633789,-0.061035,0.244141,-0.122070
2488537208,0.01339722,0.00360107,-0.99600220,-0.061035,0.244141,-0.122070
2491063916,0.01339722,0.00360107,-0.99600220,0.000000,0.183105,-0.061035
2498626208,0.01289368,0.00376892,-0.99481201,0.000000,0.183105,-0.061035
2501187958,0.01289368,0.00376892,-0.99481201,0.244141,0.183105,-0.061035
2508840500,0.01258850,0.00352478,-0.99403381,0.244141,0.183105,-0.061035
2511393250,0.01258850,0.00352478,-0.99403381,0.061035,0.122070,-0.183105
2518990375,0.01293945,0.00399780,-0.99636841,0.061035,0.122070,-0.183105
2521536125,0.01293945,0.00399780,-0.99636841,0.061035,0.061035,-0.122070
2529137416,0.01226807,0.00448608,-0.99726868,0.061035,0.061035,-0.122070
2531681958,0.01226807,0.00448608,-0.99726868,0.061035,0.061035,-0.122070
2539274500,0.01220703,0.00587463,-0.99627686,0.061035,0.061035,-0.122070
2541811875,0.01220703,0.00587463,-0.99627686,0.061035,0.183105,-0.061035
2549442083,0.01264954,0.00515747,-0.99531555,0.061035,0.183105,-0.061035
2552005541,0.01264954,0.00515747,-0.99531555,0.061035,0.244141,-0.183105
2559604666,0.01196289,0.00498962,-0.99520874,0.061035,0.244141,-0.183105
2562153583,0.01196289,0.00498962,-0.99520874,0.000000,0.183105,-0.061035
2569753250,0.01210022,0.00619507,-0.99540710,0.000000,0.183105,-0.061035
2572296458,0.01210022,0.00619507,-0.99540710,0.061035,0.244141,-0.122070
2579931750,0.01219177,0.00497437,-0.99613953,0.061035,0.244141,-0.122070
2582476875,0.01219177,0.00497437,-0.99613953,0.000000,0.183105,-0.122070
2590089916,0.01161194,0.00384521,-0.99601746,0.000000,0.183105,-0.122070
2592640875,0.01161194,0.00384521,-0.99601746,0.183105,0.183105,-0.061035
2600255791,0.01217651,0.00395203,-0.99475098,0.183105,0.183105,-0.061035
2602814333,0.01217651,0.00395203,-0.99475098,0.122070,0.122070,-0.061035
2610452583,0.01287842,0.00341797,-0.99531555,0.061035,0.244141,0.000000
2620589500,0.01272583,0.00349426,-0.99530029,0.061035,0.244141,-0.183105
2630726875,0.01260376,0.00239563,-0.99565125,0.183105,0.122070,-0.183105
2640862416,0.01350403,0.00231934,-0.99609375,0.061035,0.244141,-0.061035
2650968208,0.01275635,0.00405884,-0.99606323,0.000000,0.183105,-0.183105
2661064750,0.01132202,0.00431824,-0.99639893,0.061035,0.244141,-0.061035
2670791375,0.01223755,0.00512695,-0.99607849,0.061035,0.183105,-0.122070
2680929916,0.01226807,0.00526428,-0.99548340,0.122070,0.122070,-0.061035
2690908916,0.01170349,0.00483704,-0.99555969,-0.061035,0.061035,-0.061035
2700612416,0.01184082,0.00587463,-0.99693298,-0.061035,0.183105,-0.122070
2710421750,0.01229858,0.00556946,-0.99548340,0.183105,0.244141,-0.183105
2720563000,0.01295471,0.00556946,-0.99588013,0.122070,0.122070,-0.183105
2730708208,0.01332092,0.00506592,-0.99697876,0.122070,0.244141,0.000000
2740838083,0.01345825,0.00543213,-0.99595642,0.061035,0.122070,-0.183105
2750688250,0.01362610,0.00526428,-0.99687195,-0.061035,0.183105,-0.183105
2760831791,0.01213074,0.00573730,-0.99630737,0.061035,0.183105,-0.122070
2770975375,0.01246643,0.00492859,-0.99618530,0.183105,0.244141,0.000000
2781109291,0.01119995,0.00512695,-0.99526978,0.061035,0.183105,-0.061035
2791261083,0.01094055,0.00389099,-0.99696350,0.122070,0.183105,-0.061035
2801366458,0.01214600,0.00196838,-0.99555969,0.061035,0.183105,-0.122070
2811497083,0.01156616,0.00318909,-0.99581909,0.122070,0.122070,0.000000
2821658958,0.01243591,0.00230408,-0.99600220,0.061035,0.061035,-0.122070
2831801958,0.01330566,0.00347900,-0.99551392,0.122070,0.244141,-0.122070
2839399375,0.01235962,0.00436401,-0.99517822,0.122070,0.244141,-0.122070
2841951833,0.01235962,0.00436401,-0.99517822,0.000000,0.305176,-0.183105
2851640166,0.01289368,0.00402832,-0.99685669,0.061035,0.183105,-0.122070
2861844208,0.01242065,0.00447083,-0.99655151,0.122070,0.000000,-0.061035
2871639625,0.01235962,0.00550842,-0.99496460,0.122070,0.122070,-0.122070
2881482541,0.01272583,0.00593567,-0.99600220,0.183105,0.305176,-0.183105
2891619833,0.01264954,0.00535583,-0.99656677,0.122070,0.122070,-0.061035
2901775125,0.01167297,0.00473022,-0.99589539,0.122070,0.244141,0.000000
2909396583,0.01223755,0.00479126,-0.99734497,0.122070,0.244141,0.000000
2911945625,0.01223755,0.00479126,-0.99734497,0.000000,0.244141,-0.061035
2919543541,0.01258850,0.00425720,-0.99528503,0.000000,0.244141,-0.061035
2922086125,0.01258850,0.00425720,-0.99528503,0.000000,0.244141,-0.061035
2931899083,0.01365662,0.00387573,-0.99665833,0.000000,0.183105,-0.183105
2941858291,0.01289368,0.00558472,-0.99609375,0.061035,0.183105,-0.122070
2952001708,0.01249695,0.00553894,-0.99595642,0.000000,0.122070,0.000000
2959571291,0.01284790,0.00576782,-0.99636841,0.000000,0.122070,0.000000
2962094708,0.01284790,0.00576782,-0.99636841,0.000000,0.122070,-0.061035
2971868500,0.01304626,0.00576782,-0.99633789,0.061035,0.122070,-0.122070
2982008083,0.01205444,0.00474548,-0.99610901,0.061035,0.183105,-0.122070
2992127041,0.01147461,0.00404358,-0.99586487,0.061035,0.183105,0.000000
3002291250,0.01152039,0.00473022,-0.99461365,0.000000,0.122070,0.000000
3009917000,0.01242065,0.00395203,-0.99626160,0.000000,0.122070,0.000000
3012460875,0.01242065,0.00395203,-0.99626160,0.183105,0.366211,-0.122070
3020056500,0.01388550,0.00273132,-0.99607849,0.183105,0.366211,-0.122070
3022266166,0.01388550,0.00273132,-0.99607849,0.061035,0.183105,-0.061035
3029936333,0.01321411,0.00318909,-0.99552917,0.061035,0.183105,-0.061035
3032475958,0.01321411,0.00318909,-0.99552917,0.122070,0.244141,-0.061035
3040093083,0.01239014,0.00244141,-0.99588013,0.122070,0.244141,-0.061035
3042633291,0.01239014,0.00244141,-0.99588013,-0.061035,0.183105,-0.061035
3049812666,0.01243591,0.00286865,-0.99687195,-0.061035,0.183105,-0.061035
3052359250,0.01243591,0.00286865,-0.99687195,0.122070,0.244141,-0.122070
3062212375,0.01356506,0.00387573,-0.99511719,0.000000,0.244141,-0.122070
3069863291,0.01278687,0.00439453,-0.99620056,0.000000,0.244141,-0.122070
3072413083,0.01278687,0.00439453,-0.99620056,0.000000,0.244141,-0.061035
3080027500,0.01202393,0.00456238,-0.99476624,0.000000,0.244141,-0.061035
3082578625,0.01202393,0.00456238,-0.99476624,0.122070,0.122070,-0.061035
3090196666,0.01174927,0.00408936,-0.99543762,0.122070,0.122070,-0.061035
3092750333,0.01174927,0.00408936,-0.99543762,0.061035,0.183105,-0.183105
3102877208,0.01295471,0.00488281,-0.99531555,0.122070,0.122070,-0.061035
3110438375,0.01364136,0.00413513,-0.99546814,0.122070,0.122070,-0.061035
3112966791,0.01364136,0.00413513,-0.99546814,0.061035,0.244141,-0.122070
3120507875,0.01318359,0.00334167,-0.99618530,0.061035,0.244141,-0.122070
3123031333,0.01318359,0.00334167,-0.99618530,0.183105,0.183105,-0.122070
3132724083,0.01373291,0.00451660,-0.99691772,0.000000,0.244141,-0.061035
3140354291,0.01416016,0.00480652,-0.99745178,0.000000,0.244141,-0.061035
3142883291,0.01416016,0.00480652,-0.99745178,0.000000,0.122070,-0.061035
3150469708,0.01354980,0.00601196,-0.99563599,0.000000,0.122070,-0.061035
3152993041,0.01354980,0.00601196,-0.99563599,0.122070,0.244141,-0.122070
3160586791,0.01187134,0.00650024,-0.99516296,0.122070,0.244141,-0.122070
3162985291,0.01187134,0.00650024,-0.99516296,0.000000,0.244141,0.061035
3170597625,0.01260376,0.00747681,-0.99513245,0.000000,0.244141,0.061035
3173140250,0.01260376,0.00747681,-0.99513245,0.061035,0.122070,0.000000
3180761833,0.01203918,0.00688171,-0.99589539,0.061035,0.122070,0.000000
3183307583,0.01203918,0.00688171,-0.99589539,0.122070,0.061035,-0.061035
3190442833,0.01191711,0.00579834,-0.99620056,0.122070,0.061035,-0.061035
3192997583,0.01191711,0.00579834,-0.99620056,0.061035,0.000000,0.000000
3200615041,0.01168823,0.00480652,-0.99568176,0.061035,0.000000,0.000000
3203159625,0.01168823,0.00480652,-0.99568176,-0.061035,0.122070,0.000000
3210749166,0.01246643,0.00390625,-0.99613953,-0.061035,0.122070,0.000000
3213287791,0.01246643,0.00390625,-0.99613953,0.122070,0.183105,0.000000
3220620416,0.01348877,0.00299072,-0.99482727,0.122070,0.183105,0.000000
3223153416,0.01348877,0.00299072,-0.99482727,0.122070,0.183105,-0.122070
3230718416,0.01217651,0.00222778,-0.99545288,0.122070,0.183105,-0.122070
3233245208,0.01217651,0.00222778,-0.99545288,0.000000,0.122070,-0.183105
3240593625,0.01159668,0.00141907,-0.99482727,0.000000,0.122070,-0.183105
3242983875,0.01159668,0.00141907,-0.99482727,-0.061035,0.183105,0.000000
3250546416,0.01216125,0.00251770,-0.99540710,-0.061035,0.183105,0.000000
3253087875,0.01216125,0.00251770,-0.99540710,0.061035,0.244141,-0.061035
3260654833,0.01284790,0.00317383,-0.99526978,0.061035,0.244141,-0.061035
3263196958,0.01284790,0.00317383,-0.99526978,0.122070,0.244141,-0.122070
3270765416,0.01339722,0.00410461,-0.99533081,0.122070,0.244141,-0.122070
3273296791,0.01339722,0.00410461,-0.99533081,0.000000,0.183105,-0.122070
3280881666,0.01235962,0.00509644,-0.99691772,0.000000,0.183105,-0.122070
3283423625,0.01235962,0.00509644,-0.99691772,-0.122070,0.122070,-0.244141
3291010791,0.01277161,0.00498962,-0.99681091,-0.122070,0.122070,-0.244141
3293554791,0.01277161,0.00498962,-0.99681091,0.000000,0.061035,-0.122070
3301171541,0.01168823,0.00459290,-0.99667358,0.000000,0.061035,-0.122070
3303712791,0.01168823,0.00459290,-0.99667358,0.061035,0.244141,-0.122070
3311179708,0.01222229,0.00463867,-0.99569702,0.061035,0.244141,-0.122070
3313734416,0.01222229,0.00463867,-0.99569702,0.000000,0.183105,0.000000
3321272791,0.01277161,0.00457764,-0.99592590,0.000000,0.183105,0.000000
3323524416,0.01277161,0.00457764,-0.99592590,-0.061035,0.061035,-0.183105
3330730875,0.01205444,0.00360107,-0.99502563,-0.061035,0.061035,-0.183105
3333301666,0.01205444,0.00360107,-0.99502563,0.122070,0.305176,-0.122070
3340856083,0.01353455,0.00413513,-0.99578857,0.122070,0.305176,-0.122070
3343378333,0.01353455,0.00413513,-0.99578857,0.122070,0.244141,-0.061035
3350926250,0.01422119,0.00579834,-0.99594116,0.122070,0.244141,-0.061035
3353451000,0.01422119,0.00579834,-0.99594116,0.183105,0.122070,-0.122070
3361006625,0.01280212,0.00659180,-0.99601746,0.183105,0.122070,-0.122070
3363536083,0.01280212,0.00659180,-0.99601746,-0.061035,0.061035,-0.122070
3371098625,0.01264954,0.00636292,-0.99452209,-0.061035,0.061035,-0.122070
3373621291,0.01264954,0.00636292,-0.99452209,0.122070,0.305176,-0.122070
3381202791,0.01197815,0.00691223,-0.99560547,0.122070,0.305176,-0.122070
3383740166,0.01197815,0.00691223,-0.99560547,0.000000,0.183105,0.000000
3391325625,0.01115417,0.00674438,-0.99539185,0.000000,0.183105,0.000000
3393859208,0.01115417,0.00674438,-0.99539185,-0.061035,0.183105,-0.122070
3401344250,0.01155090,0.00488281,-0.99603271,-0.061035,0.183105,-0.122070
3403881833,0.01155090,0.00488281,-0.99603271,0.122070,0.183105,0.000000
3410793750,0.01170349,0.00424194,-0.99670410,0.122070,0.183105,0.000000
3413324666,0.01170349,0.00424194,-0.99670410,0.061035,0.122070,-0.183105
3420897833,0.01177979,0.00396729,-0.99615479,0.061035,0.122070,-0.183105
3423424708,0.01177979,0.00396729,-0.99615479,0.000000,0.122070,-0.122070
3430724791,0.01205444,0.00318909,-0.99603271,0.000000,0.122070,-0.122070
3433274833,0.01205444,0.00318909,-0.99603271,0.061035,0.122070,-0.061035
3440886250,0.01251221,0.00285339,-0.99612427,0.061035,0.122070,-0.061035
3443446000,0.01251221,0.00285339,-0.99612427,0.000000,0.305176,-0.122070
3451040375,0.01200867,0.00364685,-0.99620056,0.000000,0.305176,-0.122070
3453581250,0.01200867,0.00364685,-0.99620056,0.183105,0.183105,0.000000
3463251458,0.01293945,0.00341797,-0.99685669,0.061035,0.305176,-0.122070
3470913708,0.01281738,0.00376892,-0.99588013,0.061035,0.305176,-0.122070
3473356625,0.01281738,0.00376892,-0.99588013,0.000000,0.122070,0.000000
3480952166,0.01306152,0.00282288,-0.99641418,0.000000,0.122070,0.000000
3483494583,0.01306152,0.00282288,-0.99641418,0.061035,0.122070,-0.122070
3491102791,0.01245117,0.00358582,-0.99549866,0.061035,0.122070,-0.122070
3493660083,0.01245117,0.00358582,-0.99549866,0.061035,0.183105,-0.244141
3501283750,0.01231384,0.00367737,-0.99598694,0.061035,0.183105,-0.244141
3503837958,0.01231384,0.00367737,-0.99598694,0.061035,0.244141,-0.061035
3511474541,0.01225281,0.00369263,-0.99603271,0.061035,0.244141,-0.061035
3513801083,0.01225281,0.00369263,-0.99603271,0.000000,0.122070,-0.061035
3523629375,0.01190186,0.00308228,-0.99734497,0.061035,0.244141,-0.122070
3533779083,0.01348877,0.00413513,-0.99656677,0.061035,0.183105,-0.122070
3541418125,0.01280212,0.00404358,-0.99603271,0.061035,0.183105,-0.122070
3543966958,0.01280212,0.00404358,-0.99603271,0.122070,0.061035,0.000000
3551572791,0.01281738,0.00532532,-0.99555969,0.122070,0.061035,0.000000
3554111666,0.01281738,0.00532532,-0.99555969,0.000000,0.122070,-0.122070
3561740125,0.01292419,0.00653076,-0.99563599,0.000000,0.122070,-0.122070
3564291666,0.01292419,0.00653076,-0.99563599,-0.061035,0.122070,-0.122070
3571904708,0.01202393,0.00750732,-0.99601746,-0.061035,0.122070,-0.122070
3574431166,0.01202393,0.00750732,-0.99601746,0.061035,0.183105,-0.122070
3581997625,0.01248169,0.00729370,-0.99586487,0.061035,0.183105,-0.122070
3584523333,0.01248169,0.00729370,-0.99586487,0.183105,0.244141,0.000000
3592095750,0.01103210,0.00669861,-0.99568176,0.183105,0.244141,0.000000
3594642458,0.01103210,0.00669861,-0.99568176,0.061035,0.183105,0.061035
3602275916,0.01196289,0.00604248,-0.99577332,0.061035,0.183105,0.061035
3604831625,0.01196289,0.00604248,-0.99577332,0.122070,0.244141,-0.061035
3612031583,0.01242065,0.00544739,-0.99476624,0.122070,0.244141,-0.061035
3614572875,0.01242065,0.00544739,-0.99476624,0.061035,0.183105,-0.061035
3622158291,0.01254272,0.00439453,-0.99539185,0.061035,0.183105,-0.061035
3624336208,0.01254272,0.00439453,-0.99539185,0.122070,0.122070,-0.061035
3631470625,0.01187134,0.00221252,-0.99479675,0.122070,0.122070,-0.061035
3634020541,0.01187134,0.00221252,-0.99479675,0.061035,0.183105,0.061035
3643895041,0.01211548,0.00166321,-0.99644470,-0.122070,0.305176,-0.061035
3651522416,0.01310730,0.00186157,-0.99470520,-0.122070,0.305176,-0.061035
3654064500,0.01310730,0.00186157,-0.99470520,-0.061035,0.244141,-0.122070
3661675458,0.01206970,0.00205994,-0.99565125,-0.061035,0.244141,-0.122070
3664216333,0.01206970,0.00205994,-0.99565125,0.061035,0.244141,-0.061035
3671824541,0.01332092,0.00267029,-0.99612427,0.061035,0.244141,-0.061035
3674382416,0.01332092,0.00267029,-0.99612427,0.061035,0.305176,-0.061035
3682000500,0.01312256,0.00382996,-0.99661255,0.061035,0.305176,-0.061035
3684300375,0.01312256,0.00382996,-0.99661255,0.000000,0.183105,-0.122070
3691888041,0.01199341,0.00416565,-0.99597168,0.000000,0.183105,-0.122070
3694227166,0.01199341,0.00416565,-0.99597168,0.000000,0.183105,-0.183105
3701789000,0.01243591,0.00361633,-0.99575806,0.000000,0.183105,-0.183105
3704315625,0.01243591,0.00361633,-0.99575806,0.061035,0.244141,-0.122070
3711907875,0.01191711,0.00440979,-0.99691772,0.061035,0.244141,-0.122070
3714451750,0.01191711,0.00440979,-0.99691772,0.183105,0.244141,-0.061035
3723755000,0.01365662,0.00415039,-0.99693298,0.183105,0.122070,-0.183105
3731369666,0.01158142,0.00378418,-0.99627686,0.183105,0.122070,-0.183105
3733914666,0.01158142,0.00378418,-0.99627686,0.061035,0.122070,-0.122070
3741458666,0.01263428,0.00442505,-0.99507141,0.061035,0.122070,-0.122070
3744068333,0.01263428,0.00442505,-0.99507141,0.183105,0.183105,-0.244141
3751672708,0.01368713,0.00439453,-0.99577332,0.183105,0.183105,-0.244141
3754214791,0.01368713,0.00439453,-0.99577332,0.000000,0.183105,-0.122070
3761789500,0.01345825,0.00491333,-0.99513245,0.000000,0.183105,-0.122070
3764333958,0.01345825,0.00491333,-0.99513245,0.061035,0.122070,-0.122070
3771930833,0.01359558,0.00575256,-0.99548340,0.061035,0.122070,-0.122070
3774220458,0.01359558,0.00575256,-0.99548340,0.000000,0.122070,-0.061035
3781828458,0.01206970,0.00691223,-0.99658203,0.000000,0.122070,-0.061035
3784371083,0.01206970,0.00691223,-0.99658203,0.122070,0.183105,0.061035
3791982958,0.01223755,0.00746155,-0.99444580,0.122070,0.183105,0.061035
3794523083,0.01223755,0.00746155,-0.99444580,0.000000,0.183105,-0.122070
3802123125,0.01216125,0.00697327,-0.99566650,0.000000,0.183105,-0.122070
3804674208,0.01216125,0.00697327,-0.99566650,0.061035,0.000000,-0.122070
3812317083,0.01184082,0.00593567,-0.99635315,0.061035,0.000000,-0.122070
3814858625,0.01184082,0.00593567,-0.99635315,0.122070,0.061035,-0.061035
3822454958,0.01191711,0.00492859,-0.99548340,0.122070,0.061035,-0.061035
3825001333,0.01191711,0.00492859,-0.99548340,0.061035,0.183105,0.000000
3832667291,0.01200867,0.00387573,-0.99618530,0.061035,0.183105,0.000000
3835212000,0.01200867,0.00387573,-0.99618530,0.061035,0.122070,0.061035
3842814666,0.01278687,0.00355530,-0.99560547,0.061035,0.122070,0.061035
3845393958,0.01278687,0.00355530,-0.99560547,0.122070,0.061035,-0.122070
3852960166,0.01271057,0.00277710,-0.99572754,0.122070,0.061035,-0.122070
3855162791,0.01271057,0.00277710,-0.99572754,0.061035,0.183105,-0.122070
3862768458,0.01255798,0.00248718,-0.99740601,0.061035,0.183105,-0.122070
3865353500,0.01255798,0.00248718,-0.99740601,0.183105,0.244141,-0.183105
3872972000,0.01274109,0.00302124,-0.99725342,0.183105,0.244141,-0.183105
3875510833,0.01274109,0.00302124,-0.99725342,0.061035,0.244141,-0.122070
3883092791,0.01274109,0.00334167,-0.99484253,0.061035,0.244141,-0.122070
3885626916,0.01274109,0.00334167,-0.99484253,0.122070,0.183105,-0.183105
3892826291,0.01286316,0.00314331,-0.99537659,0.122070,0.183105,-0.183105
3895383500,0.01286316,0.00314331,-0.99537659,0.061035,0.183105,-0.122070
3903008041,0.01322937,0.00329590,-0.99588013,0.061035,0.183105,-0.122070
3905553125,0.01322937,0.00329590,-0.99588013,0.122070,0.244141,-0.122070
3912866208,0.01263428,0.00404358,-0.99603271,0.122070,0.244141,-0.122070
3915434291,0.01263428,0.00404358,-0.99603271,0.000000,0.183105,-0.183105
3923056083,0.01257324,0.00428772,-0.99533081,0.000000,0.183105,-0.183105
3925612708,0.01257324,0.00428772,-0.99533081,0.061035,0.183105,-0.122070
3933205791,0.01266479,0.00395203,-0.99684143,0.061035,0.183105,-0.122070
3935764375,0.01266479,0.00395203,-0.99684143,0.061035,0.183105,-0.183105
3943402416,0.01177979,0.00376892,-0.99679565,-0.061035,0.244141,-0.061035
3953361625,0.01162720,0.00488281,-0.99711609,0.000000,0.122070,-0.061035
3963510166,0.01275635,0.00559998,-0.99555969,0.000000,0.122070,0.000000
3973659208,0.01251221,0.00555420,-0.99620056,0.061035,0.244141,0.000000
3983808958,0.01260376,0.00645447,-0.99656677,0.122070,0.183105,-0.061035
3993970416,0.01213074,0.00686646,-0.99548340,0.122070,0.183105,-0.061035
4004113291,0.01205444,0.00569153,-0.99536133,0.000000,0.305176,-0.061035
4014251291,0.01187134,0.00538635,-0.99551392,0.122070,0.122070,-0.061035
4024368833,0.01240540,0.00486755,-0.99586487,0.122070,0.244141,-0.061035
4034528166,0.01248169,0.00312805,-0.99598694,0.061035,0.183105,-0.122070
4044313083,0.01188660,0.00305176,-0.99652100,0.000000,0.183105,-0.061035
4054442791,0.01103210,0.00274658,-0.99580383,0.061035,0.183105,-0.122070
4064614791,0.01307678,0.00257874,-0.99501038,0.061035,0.122070,-0.122070
4074789541,0.01234436,0.00321960,-0.99597168,0.183105,0.183105,-0.122070
4082431041,0.01252747,0.00302124,-0.99557495,0.183105,0.183105,-0.122070
4084991666,0.01252747,0.00302124,-0.99557495,-0.122070,0.183105,-0.183105
4092597666,0.01217651,0.00311279,-0.99668884,-0.122070,0.183105,-0.183105
4095138666,0.01217651,0.00311279,-0.99668884,0.122070,0.244141,-0.183105
4102603541,0.01286316,0.00289917,-0.99620056,0.122070,0.244141,-0.183105
4105143083,0.01286316,0.00289917,-0.99620056,0.000000,0.122070,-0.061035
4112760541,0.01313782,0.00347900,-0.99620056,0.000000,0.122070,-0.061035
4115302583,0.01313782,0.00347900,-0.99620056,0.000000,0.061035,-0.122070
4122907333,0.01202393,0.00442505,-0.99655151,0.000000,0.061035,-0.122070
4125449875,0.01202393,0.00442505,-0.99655151,0.000000,0.122070,-0.061035
4132626166,0.01188660,0.00474548,-0.99560547,0.000000,0.122070,-0.061035
4135172958,0.01188660,0.00474548,-0.99560547,0.061035,0.366211,-0.122070
4142774083,0.01275635,0.00479126,-0.99551392,0.061035,0.366211,-0.122070
4145315875,0.01275635,0.00479126,-0.99551392,0.000000,0.183105,-0.061035
4152931250,0.01373291,0.00498962,-0.99563599,0.000000,0.183105,-0.061035
4155471166,0.01373291,0.00498962,-0.99563599,0.061035,0.122070,0.061035
4163066875,0.01202393,0.00445557,-0.99516296,0.061035,0.122070,0.061035
4165605416,0.01202393,0.00445557,-0.99516296,0.061035,0.122070,-0.183105
4173221000,0.01202393,0.00621033,-0.99615479,0.061035,0.122070,-0.183105
4175762750,0.01202393,0.00621033,-0.99615479,0.000000,0.183105,-0.122070
4183392291,0.01322937,0.00668335,-0.99571228,0.000000,0.183105,-0.122070
4185942541,0.01322937,0.00668335,-0.99571228,0.000000,0.305176,-0.061035
4193529833,0.01179504,0.00532532,-0.99667358,0.000000,0.305176,-0.061035
4196053125,0.01179504,0.00532532,-0.99667358,-0.061035,0.183105,-0.061035
4203605375,0.01126099,0.00491333,-0.99543762,-0.061035,0.183105,-0.061035
4206148625,0.01126099,0.00491333,-0.99543762,0.000000,0.183105,-0.122070
4213742583,0.01101685,0.00549316,-0.99694824,0.061035,0.183105,-0.061035
4223879375,0.01197815,0.00517273,-0.99555969,-0.061035,0.244141,0.000000
4234029041,0.01133728,0.00405884,-0.99626160,0.000000,0.183105,0.000000
4244188916,0.01185608,0.00375366,-0.99694824,0.183105,0.183105,-0.183105
4254327791,0.01171875,0.00311279,-0.99618530,0.000000,0.183105,-0.122070
4264053958,0.01239014,0.00411987,-0.99589539,-0.061035,0.122070,0.000000
4274182416,0.01214600,0.00431824,-0.99465942,-0.061035,0.122070,0.000000
4276731625,0.01214600,0.00431824,-0.99465942,0.122070,0.183105,-0.061035
4284031916,0.01155090,0.00315857,-0.99516296,0.122070,0.183105,-0.061035
4286582583,0.01155090,0.00315857,-0.99516296,0.061035,0.122070,-0.183105
4294189583,0.01220703,0.00421143,-0.99610901,0.061035,0.122070,-0.183105
4296788333,0.01220703,0.00421143,-0.99610901,0.000000,0.305176,-0.061035
4304382208,0.01176453,0.00341797,-0.99600220,0.000000,0.122070,-0.122070
4314503125,0.01226807,0.00312805,-0.99531555,0.000000,0.183105,-0.061035
4324644041,0.01277161,0.00379944,-0.99555969,0.061035,0.061035,-0.122070
4334805708,0.01213074,0.00395203,-0.99627686,0.122070,0.305176,-0.122070
4345035416,0.01229858,0.00279236,-0.99537659,0.000000,0.122070,-0.061035
4355104125,0.01374817,0.00350952,-0.99618530,0.061035,0.183105,0.000000
4365217125,0.01277161,0.00550842,-0.99594116,0.000000,0.244141,0.000000
4375406083,0.01167297,0.00567627,-0.99662781,0.061035,0.183105,-0.183105
4385581833,0.01235962,0.00683594,-0.99507141,0.122070,0.122070,0.000000
4395735583,0.01235962,0.00788879,-0.99572754,0.122070,0.305176,0.000000
4405905833,0.01139832,0.00691223,-0.99519348,0.061035,0.244141,-0.061035
4413505416,0.01127625,0.00556946,-0.99458313,0.061035,0.244141,-0.061035
4416050875,0.01127625,0.00556946,-0.99458313,0.061035,0.061035,0.000000
4423641208,0.01287842,0.00450134,-0.99610901,0.061035,0.061035,0.000000
4426179875,0.01287842,0.00450134,-0.99610901,0.061035,0.183105,0.000000
4433766833,0.01332092,0.00416565,-0.99676514,0.061035,0.183105,0.000000
4436307083,0.01332092,0.00416565,-0.99676514,0.000000,0.244141,-0.122070
4443908416,0.01203918,0.00271606,-0.99536133,0.000000,0.244141,-0.122070
4446444750,0.01203918,0.00271606,-0.99536133,0.000000,0.183105,-0.183105
4453734541,0.01310730,0.00256348,-0.99578857,0.000000,0.183105,-0.183105
4456280791,0.01310730,0.00256348,-0.99578857,0.122070,0.183105,-0.061035
4463943083,0.01315308,0.00361633,-0.99601746,0.122070,0.183105,-0.061035
4466489541,0.01315308,0.00361633,-0.99601746,-0.122070,0.061035,-0.183105
4473615916,0.01206970,0.00430298,-0.99542236,-0.122070,0.061035,-0.183105
4476155041,0.01206970,0.00430298,-0.99542236,0.000000,0.183105,-0.183105
4483767958,0.01251221,0.00450134,-0.99531555,0.000000,0.183105,-0.183105
4486309875,0.01251221,0.00450134,-0.99531555,0.000000,0.183105,-0.122070
4493911958,0.01193237,0.00474548,-0.99578857,0.000000,0.183105,-0.122070
4496451083,0.01193237,0.00474548,-0.99578857,0.000000,0.183105,-0.122070
4503885541,0.01197815,0.00476074,-0.99467468,0.000000,0.183105,-0.122070
4506416625,0.01197815,0.00476074,-0.99467468,0.122070,0.000000,-0.183105
4513984166,0.01303101,0.00422668,-0.99645996,0.122070,0.000000,-0.183105
4516534166,0.01303101,0.00422668,-0.99645996,0.183105,0.183105,-0.061035
4523745166,0.01213074,0.00344849,-0.99563599,0.183105,0.183105,-0.061035
4526293583,0.01213074,0.00344849,-0.99563599,0.000000,0.183105,-0.061035
4533890541,0.01264954,0.00337219,-0.99665833,0.000000,0.183105,-0.061035
4536449708,0.01264954,0.00337219,-0.99665833,0.122070,0.122070,-0.122070
4544057958,0.01306152,0.00343323,-0.99607849,0.122070,0.122070,-0.122070
4546602291,0.01306152,0.00343323,-0.99607849,0.061035,0.122070,-0.183105
4554209041,0.01176453,0.00396729,-0.99560547,0.061035,0.122070,-0.183105
4556755875,0.01176453,0.00396729,-0.99560547,0.122070,0.183105,-0.061035
4564346375,0.01234436,0.00514221,-0.99526978,0.122070,0.183105,-0.061035
4566886333,0.01234436,0.00514221,-0.99526978,0.000000,0.122070,-0.183105
4574600333,0.01289368,0.00556946,-0.99641418,0.122070,0.183105,-0.122070
4584306333,0.01216125,0.00616455,-0.99694824,0.122070,0.183105,-0.122070
4586858458,0.01216125,0.00616455,-0.99694824,0.000000,0.183105,-0.122070
4594088083,0.01168823,0.00656128,-0.99536133,0.000000,0.183105,-0.122070
4596293708,0.01168823,0.00656128,-0.99536133,0.122070,0.061035,-0.122070
4603925916,0.01191711,0.00628662,-0.99514771,0.122070,0.061035,-0.122070
4606470458,0.01191711,0.00628662,-0.99514771,0.000000,0.183105,-0.122070
4614065666,0.01182556,0.00569153,-0.99580383,0.000000,0.183105,-0.122070
4616322416,0.01182556,0.00569153,-0.99580383,-0.061035,0.122070,-0.122070
4623916750,0.01269531,0.00422668,-0.99569702,-0.061035,0.122070,-0.122070
4626456833,0.01269531,0.00422668,-0.99569702,0.000000,0.122070,-0.061035
4634074791,0.01296997,0.00427246,-0.99554443,0.000000,0.122070,-0.061035
4636623208,0.01296997,0.00427246,-0.99554443,0.061035,0.305176,-0.183105
4644230541,0.01229858,0.00422668,-0.99545288,0.061035,0.305176,-0.183105
4646697250,0.01229858,0.00422668,-0.99545288,0.061035,0.244141,0.000000
4654295041,0.01156616,0.00338745,-0.99603271,0.061035,0.244141,0.000000
4656828583,0.01156616,0.00338745,-0.99603271,0.000000,0.183105,-0.122070
4664389416,0.01280212,0.00338745,-0.99557495,0.000000,0.183105,-0.122070
4666933791,0.01280212,0.00338745,-0.99557495,0.122070,0.244141,0.000000
4674525458,0.01269531,0.00350952,-0.99592590,0.122070,0.244141,0.000000
4677066875,0.01269531,0.00350952,-0.99592590,0.000000,0.122070,-0.183105
4684644791,0.01289368,0.00410461,-0.99539185,0.000000,0.122070,-0.183105
4687188875,0.01289368,0.00410461,-0.99539185,-0.061035,0.183105,-0.122070
4694792125,0.01245117,0.00492859,-0.99612427,-0.061035,0.183105,-0.122070
4697336958,0.01245117,0.00492859,-0.99612427,0.061035,0.183105,-0.122070
4704939833,0.01110840,0.00518799,-0.99644470,0.061035,0.183105,-0.122070
4707493458,0.01110840,0.00518799,-0.99644470,-0.061035,0.183105,-0.183105
4715099375,0.01142883,0.00392151,-0.99597168,-0.061035,0.183105,-0.183105
4717643125,0.01142883,0.00392151,-0.99597168,0.122070,0.305176,-0.061035
4725061500,0.01202393,0.00372314,-0.99594116,0.122070,0.305176,-0.061035
4727603083,0.01202393,0.00372314,-0.99594116,0.061035,0.061035,-0.122070
4735205958,0.01150513,0.00430298,-0.99577332,0.061035,0.061035,-0.122070
4737753750,0.01150513,0.00430298,-0.99577332,0.122070,0.244141,-0.183105
4745361416,0.01339722,0.00457764,-0.99569702,0.183105,0.122070,-0.122070
4755552916,0.01339722,0.00492859,-0.99572754,0.122070,0.122070,0.000000
4765683166,0.01292419,0.00450134,-0.99562073,0.122070,0.244141,0.061035
4775914708,0.01350403,0.00558472,-0.99511719,0.183105,0.061035,-0.061035
4786057458,0.01264954,0.00599670,-0.99679565,0.000000,0.000000,-0.183105
4795909875,0.01222229,0.00614929,-0.99571228,0.061035,0.244141,-0.122070
4805832666,0.01199341,0.00527954,-0.99598694,-0.061035,0.061035,-0.061035
4815933958,0.01213074,0.00474548,-0.99661255,0.000000,0.183105,-0.122070
4826029125,0.01280212,0.00411987,-0.99607849,0.122070,0.061035,-0.122070
4836196666,0.01213074,0.00257874,-0.99578857,0.122070,0.122070,-0.122070
4846314916,0.01351929,0.00254822,-0.99667358,0.061035,0.183105,-0.122070
4856007083,0.01351929,0.00285339,-0.99645996,0.061035,0.244141,-0.122070
4866136458,0.01339722,0.00346375,-0.99668884,-0.061035,0.183105,0.000000
4876164708,0.01240540,0.00381470,-0.99519348,0.122070,0.183105,-0.061035
4886286916,0.01200867,0.00480652,-0.99543762,0.061035,0.183105,-0.122070
4896390208,0.01240540,0.00508118,-0.99539185,0.000000,0.366211,-0.061035
4906555083,0.01252747,0.00466919,-0.99682617,0.061035,0.122070,-0.061035
4916263833,0.01152039,0.00465393,-0.99586487,0.000000,0.183105,-0.061035
4926402916,0.01269531,0.00476074,-0.99588013,-0.122070,0.183105,-0.122070
4936546875,0.01351929,0.00376892,-0.99417114,0.061035,0.183105,-0.183105
4946728666,0.01325989,0.00491333,-0.99632263,0.122070,0.183105,-0.183105
4954359500,0.01373291,0.00460815,-0.99604797,0.122070,0.183105,-0.183105
4956903458,0.01373291,0.00460815,-0.99604797,0.061035,0.122070,-0.122070
4964466375,0.01341248,0.00419617,-0.99671936,0.061035,0.122070,-0.122070
4966993875,0.01341248,0.00419617,-0.99671936,0.061035,0.244141,-0.122070
4974565583,0.01344299,0.00492859,-0.99681091,0.061035,0.244141,-0.122070
4977104333,0.01344299,0.00492859,-0.99681091,0.000000,0.183105,-0.183105
4984701208,0.01292419,0.00538635,-0.99574280,0.000000,0.183105,-0.183105
4987246083,0.01292419,0.00538635,-0.99574280,0.061035,0.122070,-0.183105
4994850583,0.01234436,0.00553894,-0.99539185,0.061035,0.122070,-0.183105
4997390791,0.01234436,0.00553894,-0.99539185,0.061035,0.122070,-0.061035
5004992666,0.01234436,0.00604248,-0.99645996,0.061035,0.122070,-0.061035
5007538625,0.01234436,0.00604248,-0.99645996,0.061035,0.183105,-0.061035
5014827000,0.01275635,0.00471497,-0.99687195,0.061035,0.183105,-0.061035
5017369791,0.01275635,0.00471497,-0.99687195,0.000000,0.305176,-0.061035
5024986250,0.01130676,0.00387573,-0.99545288,0.000000,0.305176,-0.061035
5027055291,0.01130676,0.00387573,-0.99545288,0.061035,0.183105,-0.061035
5034643041,0.01255798,0.00286865,-0.99557495,0.061035,0.183105,-0.061035
5037184083,0.01255798,0.00286865,-0.99557495,0.061035,0.183105,0.000000
5044775583,0.01280212,0.00267029,-0.99510193,0.061035,0.183105,0.000000
5047314666,0.01280212,0.00267029,-0.99510193,0.183105,0.061035,0.000000
5054921125,0.01210022,0.00201416,-0.99578857,0.183105,0.061035,0.000000
5057468500,0.01210022,0.00201416,-0.99578857,0.122070,0.305176,-0.061035
5065070208,0.01296997,0.00256348,-0.99609375,0.122070,0.305176,-0.061035
5067632000,0.01296997,0.00256348,-0.99609375,0.122070,0.122070,-0.122070
5075241625,0.01278687,0.00421143,-0.99430847,0.122070,0.122070,-0.122070
5077790000,0.01278687,0.00421143,-0.99430847,0.122070,0.122070,-0.122070
5085445541,0.01239014,0.00454712,-0.99623108,0.122070,0.122070,-0.122070
5088000583,0.01239014,0.00454712,-0.99623108,0.122070,0.183105,-0.061035
5095607250,0.01245117,0.00486755,-0.99510193,0.122070,0.183105,-0.061035
5098157416,0.01245117,0.00486755,-0.99510193,0.122070,0.305176,0.000000
5105481250,0.01261902,0.00520325,-0.99499512,0.122070,0.305176,0.000000
5108023750,0.01261902,0.00520325,-0.99499512,0.061035,0.183105,-0.061035
5115640083,0.01257324,0.00498962,-0.99513245,0.061035,0.183105,-0.061035
5118189333,0.01257324,0.00498962,-0.99513245,0.122070,0.244141,-0.183105
5125652875,0.01263428,0.00405884,-0.99526978,0.122070,0.244141,-0.183105
5128148041,0.01263428,0.00405884,-0.99526978,0.000000,0.122070,-0.183105
5135311666,0.01208496,0.00337219,-0.99565125,0.000000,0.122070,-0.183105
5137854875,0.01208496,0.00337219,-0.99565125,0.122070,0.122070,-0.061035
5145432916,0.01155090,0.00357056,-0.99519348,0.122070,0.122070,-0.061035
5147971083,0.01155090,0.00357056,-0.99519348,-0.061035,0.122070,-0.061035
5155549875,0.01322937,0.00312805,-0.99652100,-0.061035,0.122070,-0.061035
5158080958,0.01322937,0.00312805,-0.99652100,-0.061035,0.061035,-0.244141
5165672875,0.01278687,0.00421143,-0.99685669,-0.061035,0.061035,-0.244141
5168211166,0.01278687,0.00421143,-0.99685669,0.244141,0.183105,-0.061035
5175808208,0.01242065,0.00503540,-0.99662781,0.244141,0.183105,-0.061035
5178350500,0.01242065,0.00503540,-0.99662781,0.061035,0.305176,0.000000
5185985375,0.01266479,0.00564575,-0.99589539,0.061035,0.305176,0.000000
5188285666,0.01266479,0.00564575,-0.99589539,0.122070,0.122070,0.000000
5195915250,0.01211548,0.00680542,-0.99578857,0.122070,0.122070,0.000000
5198483375,0.01211548,0.00680542,-0.99578857,0.061035,0.122070,-0.061035
5206091166,0.01092529,0.00714111,-0.99645996,0.061035,0.122070,-0.061035
5208636166,0.01092529,0.00714111,-0.99645996,0.000000,0.061035,0.000000
5216202208,0.01181030,0.00668335,-0.99563599,0.000000,0.122070,-0.122070
5226435791,0.01202393,0.00518799,-0.99603271,0.122070,0.122070,-0.183105
5236559500,0.01354980,0.00398254,-0.99424744,-0.061035,0.061035,-0.122070
5246786541,0.01261902,0.00308228,-0.99584961,0.000000,0.244141,-0.061035
5256947583,0.01168823,0.00177002,-0.99540710,0.122070,0.183105,-0.122070
5267089041,0.01219177,0.00283813,-0.99594116,0.122070,0.122070,-0.061035
5277193083,0.01269531,0.00361633,-0.99661255,0.000000,0.183105,-0.061035
5287026750,0.01213074,0.00358582,-0.99714661,0.000000,0.183105,-0.183105
5297153708,0.01205444,0.00350952,-0.99580383,0.000000,0.122070,-0.122070
5307282041,0.01191711,0.00393677,-0.99560547,0.000000,0.122070,-0.122070
5317126750,0.01219177,0.00421143,-0.99598694,-0.122070,0.183105,-0.244141
5327253041,0.01240540,0.00404358,-0.99597168,0.061035,0.183105,-0.122070
5336958833,0.01258850,0.00358582,-0.99664307,0.000000,0.183105,-0.244141
5347004208,0.01243591,0.00340271,-0.99632263,-0.061035,0.122070,-0.061035
5357128333,0.01164246,0.00390625,-0.99629211,-0.061035,0.183105,-0.122070
5367222291,0.01181030,0.00465393,-0.99667358,-0.061035,0.122070,-0.244141
5376963583,0.01199341,0.00520325,-0.99620056,0.122070,0.183105,-0.061035
5387136958,0.01234436,0.00550842,-0.99554443,-0.061035,0.061035,-0.244141
5396809291,0.01257324,0.00553894,-0.99531555,0.000000,0.000000,-0.061035
5406584416,0.01260376,0.00683594,-0.99531555,0.061035,0.183105,-0.122070
5416714416,0.01205444,0.00656128,-0.99508667,0.000000,0.183105,-0.061035
5426871083,0.01228333,0.00517273,-0.99754333,-0.061035,0.122070,0.000000
5436685791,0.01284790,0.00463867,-0.99609375,0.122070,0.122070,-0.122070
5446035541,0.01242065,0.00358582,-0.99481201,0.122070,0.122070,-0.122070
5448556708,0.01242065,0.00358582,-0.99481201,-0.183105,0.183105,-0.061035
5455660041,0.01148987,0.00367737,-0.99388123,-0.183105,0.183105,-0.061035
5458207250,0.01148987,0.00367737,-0.99388123,0.000000,0.244141,-0.061035
5465813541,0.01246643,0.00279236,-0.99676514,0.000000,0.244141,-0.061035
5468344125,0.01246643,0.00279236,-0.99676514,0.061035,0.183105,-0.122070
5475945375,0.01232910,0.00315857,-0.99615479,0.061035,0.183105,-0.122070
5478504583,0.01232910,0.00315857,-0.99615479,-0.061035,0.244141,-0.061035
5486088208,0.01342773,0.00454712,-0.99559021,-0.061035,0.244141,-0.061035
5488630125,0.01342773,0.00454712,-0.99559021,0.122070,0.122070,-0.122070
5496241000,0.01309204,0.00457764,-0.99633789,0.122070,0.122070,-0.122070
5498793958,0.01309204,0.00457764,-0.99633789,0.061035,0.000000,-0.122070
5506403500,0.01240540,0.00569153,-0.99497986,0.061035,0.000000,-0.122070
5508958125,0.01240540,0.00569153,-0.99497986,0.122070,0.122070,-0.122070
5516177250,0.01274109,0.00485229,-0.99620056,0.122070,0.122070,-0.122070
5518728250,0.01274109,0.00485229,-0.99620056,0.183105,0.061035,-0.061035
5526344375,0.01190186,0.00453186,-0.99497986,0.183105,0.061035,-0.061035
5528907166,0.01190186,0.00453186,-0.99497986,0.061035,0.183105,-0.061035
5536513583,0.01081848,0.00463867,-0.99566650,0.061035,0.183105,-0.061035
5539059458,0.01081848,0.00463867,-0.99566650,0.000000,0.061035,-0.061035
5546664125,0.01182556,0.00387573,-0.99589539,0.000000,0.061035,-0.061035
5549206375,0.01182556,0.00387573,-0.99589539,0.183105,0.122070,-0.061035
5556850541,0.01249695,0.00473022,-0.99624634,0.183105,0.122070,-0.061035
5559393750,0.01249695,0.00473022,-0.99624634,0.061035,0.244141,-0.183105
5566990291,0.01188660,0.00402832,-0.99647522,0.061035,0.244141,-0.183105
5569533416,0.01188660,0.00402832,-0.99647522,0.000000,0.061035,-0.061035
5577168375,0.01229858,0.00364685,-0.99694824,0.000000,0.061035,-0.061035
5579722291,0.01229858,0.00364685,-0.99694824,0.061035,0.244141,-0.061035
5587289541,0.01322937,0.00299072,-0.99670410,0.122070,0.122070,-0.061035
5597410750,0.01333618,0.00263977,-0.99502563,0.122070,0.122070,-0.061035
5607537708,0.01292419,0.00328064,-0.99420166,0.000000,0.122070,-0.183105
5617674125,0.01313782,0.00486755,-0.99629211,0.000000,0.244141,0.000000
5627812625,0.01234436,0.00715637,-0.99595642,0.061035,0.061035,-0.122070
5638034250,0.01197815,0.00738525,-0.99653625,0.122070,0.244141,-0.061035
5648160916,0.01106262,0.00733948,-0.99487305,0.122070,0.244141,-0.061035
5658313708,0.01119995,0.00773621,-0.99723816,-0.061035,0.244141,0.000000
5668466625,0.01171875,0.00688171,-0.99584961,0.061035,0.122070,-0.122070
5678311583,0.01156616,0.00540161,-0.99555969,0.000000,0.366211,0.000000
5688487041,0.01296997,0.00392151,-0.99583435,0.061035,0.061035,-0.061035
5698638416,0.01293945,0.00331116,-0.99642944,0.000000,0.000000,-0.122070
5708815333,0.01348877,0.00289917,-0.99685669,0.000000,0.061035,-0.244141
5718574000,0.01278687,0.00311279,-0.99473572,0.061035,0.122070,-0.183105
5728758083,0.01226807,0.00369263,-0.99711609,0.122070,0.244141,-0.122070
5736400250,0.01188660,0.00364685,-0.99645996,0.122070,0.244141,-0.122070
5738946291,0.01188660,0.00364685,-0.99645996,0.183105,0.183105,-0.183105
5746503750,0.01203918,0.00468445,-0.99607849,0.183105,0.183105,-0.183105
5749027291,0.01203918,0.00468445,-0.99607849,0.122070,0.244141,0.122070
5756596833,0.01222229,0.00555420,-0.99690247,0.122070,0.244141,0.122070
5759132625,0.01222229,0.00555420,-0.99690247,0.000000,0.183105,-0.122070
5766737416,0.01130676,0.00595093,-0.99649048,0.000000,0.183105,-0.122070
5769285791,0.01130676,0.00595093,-0.99649048,0.000000,0.183105,-0.061035
5776879166,0.01194763,0.00495911,-0.99662781,0.000000,0.183105,-0.061035
5779418458,0.01194763,0.00495911,-0.99662781,0.000000,0.122070,-0.183105
5787030583,0.01307678,0.00355530,-0.99581909,0.000000,0.122070,-0.183105
5789596958,0.01307678,0.00355530,-0.99581909,0.061035,0.122070,-0.061035
5797186500,0.01281738,0.00355530,-0.99566650,0.061035,0.122070,-0.061035
5799724500,0.01281738,0.00355530,-0.99566650,0.122070,0.183105,0.000000
5807309500,0.01368713,0.00337219,-0.99449158,0.122070,0.183105,0.000000
5809369500,0.01368713,0.00337219,-0.99449158,0.122070,0.122070,-0.183105
5816992666,0.01332092,0.00297546,-0.99774170,0.122070,0.122070,-0.183105
5819534375,0.01332092,0.00297546,-0.99774170,0.061035,0.122070,-0.122070
5827137458,0.01338196,0.00267029,-0.99536133,0.061035,0.122070,-0.122070
5829681416,0.01338196,0.00267029,-0.99536133,0.061035,0.244141,-0.122070
5837286916,0.01254272,0.00369263,-0.99540710,0.061035,0.244141,-0.122070
5839831458,0.01254272,0.00369263,-0.99540710,-0.061035,-0.183105,-0.183105
5847449291,0.01155090,0.00590515,-0.99684143,-0.061035,-0.183105,-0.183105
5850009916,0.01155090,0.00590515,-0.99684143,-0.305176,0.183105,-0.122070
5857616541,0.01153564,0.00711060,-0.99357605,0.183105,0.305176,-0.061035
5867781791,0.01228333,0.00785828,-0.99679565,0.000000,0.183105,-0.244141
5877888958,0.01240540,0.00756836,-0.99728394,0.183105,0.183105,-0.183105
5887996041,0.01173401,0.00585938,-0.99389648,0.122070,0.244141,0.000000
5898092125,0.01249695,0.00532532,-0.99623108,0.000000,0.244141,0.000000
5907894958,0.01342773,0.00401306,-0.99389648,0.000000,0.244141,-0.183105
5918027416,0.01168823,0.00283813,-0.99749756,0.000000,0.244141,-0.061035
5928150000,0.01219177,0.00209045,-0.99488831,-0.061035,0.488281,-0.061035
5938289791,0.01303101,0.00276184,-0.99461365,-0.244141,0.244141,-0.061035
5948031250,0.01295471,0.00234985,-1.00047302,0.000000,0.122070,-0.061035
5958163875,0.01292419,0.00309753,-0.99156189,0.183105,0.122070,-0.183105
5968337833,0.01242065,0.00372314,-0.99685669,0.122070,0.183105,-0.183105
5978507500,0.01226807,0.00337219,-0.99415588,0.000000,0.366211,-0.061035
5988563083,0.01176453,0.00422668,-0.99679565,-0.061035,0.305176,-0.183105
5998802666,0.01213074,0.00486755,-0.99438477,0.122070,0.122070,-0.122070
6008972333,0.01167297,0.00421143,-0.99688721,0.122070,0.183105,-0.122070
6019110291,0.01167297,0.00444031,-0.99552917,0.122070,0.244141,-0.061035
6029278791,0.01339722,0.00433350,-0.99647522,0.061035,0.244141,-0.183105
6036882041,0.01376343,0.00425720,-0.99661255,0.061035,0.244141,-0.183105
6039425916,0.01376343,0.00425720,-0.99661255,0.000000,0.122070,-0.122070
6046952083,0.01239014,0.00469971,-0.99522400,0.000000,0.122070,-0.122070
6049482083,0.01239014,0.00469971,-0.99522400,0.061035,0.183105,-0.183105
6057042666,0.01176453,0.00495911,-0.99588013,0.061035,0.183105,-0.183105
6059570250,0.01176453,0.00495911,-0.99588013,0.061035,0.244141,-0.061035
6067152333,0.01226807,0.00454712,-0.99580383,0.061035,0.244141,-0.061035
6069702458,0.01226807,0.00454712,-0.99580383,0.122070,0.061035,-0.061035
6079877541,0.01228333,0.00425720,-0.99633789,0.061035,0.183105,-0.244141
6087484083,0.01187134,0.00466919,-0.99548340,0.061035,0.183105,-0.244141
6090035125,0.01187134,0.00466919,-0.99548340,0.122070,0.244141,-0.122070
6097648458,0.01248169,0.00570679,-0.99534607,0.122070,0.244141,-0.122070
6100189375,0.01248169,0.00570679,-0.99534607,0.122070,0.183105,-0.061035
6107781500,0.01188660,0.00556946,-0.99673462,0.122070,0.183105,-0.061035
6110326541,0.01188660,0.00556946,-0.99673462,0.000000,0.183105,-0.122070
6117915208,0.01202393,0.00558472,-0.99707031,0.000000,0.183105,-0.122070
6120466666,0.01202393,0.00558472,-0.99707031,0.061035,0.122070,-0.122070
6127743750,0.01307678,0.00502014,-0.99729919,0.061035,0.122070,-0.122070
6130289333,0.01307678,0.00502014,-0.99729919,0.061035,0.183105,-0.061035
6137897333,0.01307678,0.00518799,-0.99679565,0.061035,0.183105,-0.061035
6140446166,0.01307678,0.00518799,-0.99679565,0.061035,0.244141,-0.122070
6148037750,0.01252747,0.00509644,-0.99496460,0.061035,0.244141,-0.122070
6150574375,0.01252747,0.00509644,-0.99496460,0.061035,0.183105,-0.122070
6158175791,0.01200867,0.00408936,-0.99571228,0.061035,0.183105,-0.122070
6160745375,0.01200867,0.00408936,-0.99571228,0.122070,0.183105,-0.244141
6168347125,0.01165771,0.00463867,-0.99429321,0.122070,0.183105,-0.244141
6170894041,0.01165771,0.00463867,-0.99429321,0.488281,0.183105,-0.061035
6178494500,0.01223755,0.00328064,-0.99166870,-0.427246,0.305176,-0.061035
6188155875,0.01286316,0.00325012,-0.99557495,-0.427246,0.305176,-0.061035
6190701708,0.01286316,0.00325012,-0.99557495,1.098633,-0.061035,-0.122070
6198301666,0.01213074,0.00364685,-0.99298096,1.098633,-0.061035,-0.122070
6200793666,0.01213074,0.00364685,-0.99298096,0.183105,-0.061035,-0.061035
6208410583,0.01219177,0.00354004,-1.01065063,-0.122070,0.427246,-0.183105
6218564625,0.01272583,0.00390625,-0.98719788,-0.183105,0.244141,-0.183105
6228773541,0.01216125,0.00590515,-1.00358582,-0.061035,0.061035,0.000000
6238562375,0.01216125,0.00491333,-0.99003601,0.000000,0.000000,-0.061035
6248387166,0.01350403,0.00466919,-1.00117493,0.000000,0.000000,-0.061035
6250939708,0.01350403,0.00466919,-1.00117493,0.000000,0.061035,-0.122070
6258558500,0.01330566,0.00544739,-0.99176025,-0.122070,0.122070,-0.122070
6268687541,0.01240540,0.00503540,-0.99868774,-0.061035,0.183105,-0.061035
6278835708,0.01203918,0.00547791,-0.99314880,0.061035,0.061035,-0.122070
6288608625,0.01147461,0.00593567,-0.99636841,-0.183105,0.122070,-0.061035
6298644333,0.01112366,0.00587463,-0.99247742,0.366211,0.183105,-0.061035
6308765458,0.01206970,0.00592041,-1.00590515,-0.122070,0.183105,-0.122070
6318870750,0.01266479,0.00486755,-0.98352051,0.122070,0.366211,0.000000
6329026666,0.01272583,0.00415039,-1.00099182,0.305176,0.061035,-0.061035
6339154875,0.01278687,0.00398254,-0.99165344,0.122070,0.061035,-0.061035
6349306041,0.01318359,0.00402832,-0.99977112,-0.061035,0.061035,-0.061035
6359413625,0.01275635,0.00366211,-0.99378967,0.000000,0.305176,-0.122070
6369488666,0.01226807,0.00332642,-0.99768066,-0.061035,0.183105,-0.122070
6379593541,0.01133728,0.00355530,-0.99659729,-0.061035,0.244141,-0.061035
6389721416,0.01100159,0.00375366,-0.99682617,0.061035,0.061035,-0.122070
6399848041,0.01199341,0.00311279,-0.99531555,0.061035,0.122070,-0.183105
6409995750,0.01228333,0.00370789,-0.99507141,0.183105,0.183105,0.000000
6420111666,0.01333618,0.00494385,-0.99578857,0.000000,0.244141,-0.183105
6429984791,0.01219177,0.00570679,-0.99484253,0.000000,0.061035,0.000000
6440124291,0.01290894,0.00628662,-0.99626160,0.000000,0.061035,0.000000
6450293083,0.01268005,0.00613403,-0.99645996,0.122070,0.122070,-0.061035
6457901291,0.01257324,0.00643921,-0.99647522,0.122070,0.122070,-0.061035
6460027166,0.01257324,0.00643921,-0.99647522,0.000000,0.183105,-0.122070
6470166958,0.01300049,0.00523376,-0.99580383,0.122070,0.000000,-0.183105
6479929833,0.01225281,0.00471497,-0.99514771,0.000000,0.061035,-0.183105
6490064708,0.01229858,0.00390625,-0.99545288,0.122070,0.183105,-0.122070
6500219666,0.01211548,0.00396729,-0.99682617,0.061035,0.122070,-0.061035
6510110750,0.01185608,0.00466919,-0.99713135,0.183105,0.122070,-0.061035
6520210458,0.01303101,0.00563049,-0.99468994,0.000000,0.244141,-0.122070
6530373750,0.01319885,0.00474548,-0.99583435,-0.061035,0.122070,-0.122070
6540485750,0.01257324,0.00418091,-0.99699402,0.061035,0.244141,-0.122070
6550590208,0.01205444,0.00561523,-0.99546814,0.244141,0.305176,-0.122070
6560695083,0.01284790,0.00460815,-0.99546814,0.305176,0.183105,-0.061035
6570815541,0.01312256,0.00543213,-0.99540710,-0.427246,0.366211,-0.061035
6578442750,0.01171875,0.00460815,-0.99897766,-0.427246,0.366211,-0.061035
6580994208,0.01171875,0.00460815,-0.99897766,1.098633,0.061035,-0.061035
6590701666,0.01133728,0.00570679,-0.98989868,0.305176,-0.122070,-0.061035
6600088041,0.01106262,0.00595093,-1.00701904,-0.244141,0.427246,0.000000
6610204208,0.01319885,0.00466919,-0.98667908,0.061035,0.122070,-0.183105
6620308500,0.01312256,0.00416565,-1.00260925,0.061035,0.244141,0.061035
6630462666,0.01283264,0.00379944,-0.99020386,0.122070,0.122070,-0.183105
6640598000,0.01206970,0.00343323,-0.99958801,-0.122070,0.305176,-0.061035
6650572208,0.01274109,0.00340271,-0.99360657,-0.061035,0.183105,-0.122070
6660721416,0.01229858,0.00338745,-0.99636841,-0.061035,0.183105,-0.122070
6668316333,0.01135254,0.00321960,-0.99441528,-0.061035,0.183105,-0.122070
6670840291,0.01135254,0.00321960,-0.99441528,-0.244141,0.610352,-0.122070
6678394750,0.01173401,0.00381470,-0.99121094,-0.244141,0.610352,-0.122070
6680925375,0.01173401,0.00381470,-0.99121094,0.427246,-0.061035,-0.122070
6690832291,0.01312256,0.00474548,-1.00570679,0.000000,0.122070,-0.122070
6700576000,0.01153564,0.00498962,-0.98233032,0.305176,0.122070,0.000000
6710701666,0.01208496,0.00556946,-1.00172424,-0.122070,0.122070,-0.061035
6718315916,0.01235962,0.00450134,-0.99275208,-0.122070,0.122070,-0.061035
6720861791,0.01235962,0.00450134,-0.99275208,-0.061035,0.183105,-0.122070
6730742916,0.01246643,0.00463867,-0.99891663,-0.061035,0.122070,-0.183105
6738411708,0.01263428,0.00396729,-0.99539185,-0.061035,0.122070,-0.183105
6740958750,0.01263428,0.00396729,-0.99539185,0.000000,0.183105,0.000000
6748596875,0.01231384,0.00425720,-0.99420166,0.000000,0.183105,0.000000
6750945291,0.01231384,0.00425720,-0.99420166,-0.122070,0.061035,-0.183105
6758537416,0.01095581,0.00564575,-0.99124146,-0.122070,0.061035,-0.183105
6761083083,0.01095581,0.00564575,-0.99124146,0.366211,0.183105,-0.122070
6768673250,0.01158142,0.00608826,-1.00077820,0.366211,0.183105,-0.122070
6771222541,0.01158142,0.00608826,-1.00077820,0.061035,0.244141,0.000000
6778853083,0.01200867,0.00534058,-0.99389648,0.061035,0.244141,0.000000
6781411000,0.01200867,0.00534058,-0.99389648,0.183105,0.122070,-0.122070
6789015125,0.01225281,0.00558472,-0.99829102,0.183105,0.122070,-0.122070
6791556416,0.01225281,0.00558472,-0.99829102,0.000000,0.305176,-0.122070
6799164291,0.01451111,0.00512695,-0.99523926,0.000000,0.305176,-0.122070
6801712125,0.01451111,0.00512695,-0.99523926,0.061035,0.061035,-0.244141
6809323708,0.01397705,0.00370789,-0.99819946,0.061035,0.061035,-0.244141
6811863458,0.01397705,0.00370789,-0.99819946,0.000000,0.061035,-0.061035
6819457416,0.01269531,0.00413513,-0.99778748,0.000000,0.061035,-0.061035
6821871708,0.01269531,0.00413513,-0.99778748,-0.122070,0.061035,-0.061035
6829441083,0.01214600,0.00445557,-0.99633789,-0.122070,0.061035,-0.061035
6831996083,0.01214600,0.00445557,-0.99633789,-0.122070,0.122070,-0.183105
6839611791,0.01260376,0.00424194,-0.99520874,-0.122070,0.122070,-0.183105
6842158916,0.01260376,0.00424194,-0.99520874,0.122070,0.244141,-0.122070
6849760291,0.01194763,0.00326538,-0.99610901,0.122070,0.244141,-0.122070
6852319458,0.01194763,0.00326538,-0.99610901,-0.061035,0.183105,0.000000
6859940166,0.01101685,0.00302124,-0.99577332,-0.061035,0.183105,0.000000
6862488833,0.01101685,0.00302124,-0.99577332,-0.122070,0.305176,-0.061035
6869643416,0.01193237,0.00360107,-0.99496460,-0.122070,0.305176,-0.061035
6872199958,0.01193237,0.00360107,-0.99496460,0.122070,0.244141,-0.122070
6879400333,0.01188660,0.00523376,-0.99568176,0.122070,0.244141,-0.122070
6881948375,0.01188660,0.00523376,-0.99568176,0.061035,0.122070,-0.061035
6889397500,0.01243591,0.00659180,-0.99563599,0.061035,0.122070,-0.061035
6891947250,0.01243591,0.00659180,-0.99563599,0.061035,0.244141,-0.183105
6899572375,0.01388550,0.00709534,-0.99632263,0.061035,0.244141,-0.183105
6902129083,0.01388550,0.00709534,-0.99632263,0.000000,0.183105,0.000000
6909734000,0.01174927,0.00717163,-0.99461365,0.000000,0.183105,0.000000
6912288291,0.01174927,0.00717163,-0.99461365,0.427246,0.244141,-0.061035
6919740791,0.01174927,0.00604248,-0.99433899,0.427246,0.244141,-0.061035
6922289541,0.01174927,0.00604248,-0.99433899,0.061035,0.122070,-0.122070
6929442500,0.01280212,0.00471497,-0.99468994,0.061035,0.122070,-0.122070
6931995041,0.01280212,0.00471497,-0.99468994,0.427246,0.183105,-0.122070
6939602250,0.01245117,0.00268555,-0.99642944,0.427246,0.183105,-0.122070
6942149041,0.01245117,0.00268555,-0.99642944,0.427246,0.244141,-0.061035
6949742541,0.01252747,0.00305176,-0.99339294,0.427246,0.244141,-0.061035
6952280666,0.01252747,0.00305176,-0.99339294,-0.610352,0.122070,-0.122070
6959906666,0.01333618,0.00204468,-0.99681091,-0.610352,0.122070,-0.122070
6962458500,0.01333618,0.00204468,-0.99681091,-0.610352,0.061035,-0.122070
6969839708,0.01257324,0.00346375,-0.98861694,-0.610352,0.061035,-0.122070
6972347333,0.01257324,0.00346375,-0.98861694,0.427246,0.061035,-0.122070
6979916750,0.01283264,0.00534058,-1.00608826,0.427246,0.061035,-0.122070
6982448083,0.01283264,0.00534058,-1.00608826,-0.183105,0.061035,0.000000
6990017750,0.01217651,0.00611877,-0.99195862,-0.183105,0.061035,0.000000
6992559833,0.01217651,0.00611877,-0.99195862,-0.061035,0.244141,-0.122070
7000187708,0.01304626,0.00514221,-1.00172424,-0.061035,0.244141,-0.122070
7002738666,0.01304626,0.00514221,-1.00172424,-0.244141,0.061035,-0.122070
7010344083,0.01245117,0.00451660,-0.99574280,-0.122070,0.000000,-0.183105
7020476750,0.01306152,0.00500488,-0.99801636,-0.122070,0.122070,-0.061035
7030615250,0.01152039,0.00460815,-0.99623108,-0.122070,0.183105,0.000000
7040391083,0.01100159,0.00540161,-0.99374390,-0.244141,0.061035,-0.122070
7050561166,0.01045227,0.00596619,-0.99670410,0.122070,0.000000,-0.122070
7060289750,0.01141357,0.00656128,-0.99414062,0.122070,0.000000,-0.122070
7062855791,0.01141357,0.00656128,-0.99414062,-0.427246,0.061035,-0.061035
7070471625,0.01281738,0.00578308,-0.99386597,0.244141,0.061035,-0.061035
7080600541,0.01451111,0.00590515,-0.99839783,0.122070,0.061035,-0.122070
7090714208,0.01486206,0.00448608,-0.99320984,0.061035,0.122070,-0.183105
7100818875,0.01318359,0.00306702,-0.99774170,0.122070,0.366211,-0.061035
7110946041,0.01266479,0.00294495,-0.99555969,0.122070,0.183105,-0.183105
7121067375,0.01196289,0.00321960,-0.99546814,0.061035,0.061035,-0.061035
7130903916,0.01141357,0.00285339,-0.99623108,0.122070,0.183105,0.000000
7141038666,0.01168823,0.00318909,-0.99548340,0.061035,0.244141,-0.061035
7150974916,0.01187134,0.00312805,-0.99639893,0.000000,0.183105,-0.183105
7160961083,0.01113892,0.00437927,-0.99638367,0.244141,0.061035,-0.061035
7171090875,0.01350403,0.00581360,-0.99581909,0.122070,0.244141,-0.061035
7181222500,0.01359558,0.00627136,-0.99504089,0.061035,0.061035,-0.122070
7191461083,0.01171875,0.00544739,-0.99623108,0.000000,0.244141,-0.061035
7201167000,0.01155090,0.00599670,-0.99739075,0.000000,0.183105,-0.061035
7211318458,0.01251221,0.00408936,-0.99563599,0.000000,0.061035,-0.061035
7221446875,0.01339722,0.00382996,-0.99594116,0.000000,0.122070,-0.244141
7231605583,0.01350403,0.00332642,-0.99496460,0.061035,0.244141,-0.122070
7241234375,0.01338196,0.00292969,-0.99746704,0.061035,0.244141,-0.122070
7243782708,0.01338196,0.00292969,-0.99746704,0.183105,0.305176,-0.122070
7251412500,0.01344299,0.00444031,-0.99452209,0.183105,0.183105,-0.061035
7261334041,0.01225281,0.00471497,-0.99520874,0.183105,0.183105,-0.061035
7263886250,0.01225281,0.00471497,-0.99520874,0.122070,0.183105,-0.122070
7271505708,0.01223755,0.00483704,-0.99592590,0.244141,0.000000,-0.061035
7281240458,0.01246643,0.00508118,-0.99432373,0.244141,0.000000,-0.061035
7283793250,0.01246643,0.00508118,-0.99432373,0.122070,0.122070,-0.122070
7291380833,0.01199341,0.00456238,-0.99462891,-0.183105,0.122070,-0.244141
7301485708,0.01225281,0.00514221,-0.99969482,-0.244141,0.000000,-0.122070
7311605458,0.01164246,0.00709534,-0.99723816,-0.183105,0.366211,0.000000
7321705333,0.00912476,0.00672913,-0.99360657,0.061035,0.122070,-0.061035
7331808041,0.01124573,0.00453186,-0.99707031,0.244141,0.305176,0.000000
7341952000,0.01239014,0.00357056,-0.99681091,0.061035,0.183105,-0.061035
7352123916,0.01515198,0.00375366,-0.99449158,0.000000,0.122070,-0.122070
7361814291,0.01614380,0.00309753,-0.99546814,0.122070,0.244141,-0.122070
7371823458,0.01333618,0.00274658,-0.99578857,0.244141,0.122070,-0.061035
7381798833,0.01188660,0.00463867,-0.99597168,-0.061035,0.244141,0.000000
7391618625,0.01126099,0.00520325,-0.99542236,0.305176,0.305176,-0.122070
7401717041,0.01255798,0.00616455,-0.99546814,0.244141,0.183105,-0.061035
7411861750,0.01249695,0.00511169,-0.99583435,0.244141,0.305176,-0.122070
7421991625,0.01164246,0.00422668,-0.99565125,0.061035,0.183105,-0.061035
7431993208,0.01277161,0.00398254,-0.99742126,0.061035,0.000000,-0.061035
7441587541,0.01458740,0.00381470,-0.99539185,0.000000,0.061035,-0.122070
7451696875,0.01324463,0.00314331,-0.99542236,-0.244141,0.122070,-0.122070
7461913375,0.01202393,0.00311279,-0.99557495,0.000000,0.122070,-0.061035
7472037208,0.01087952,0.00320435,-0.99710083,0.000000,0.183105,-0.183105
7482167208,0.00985718,0.00378418,-0.99574280,0.061035,0.305176,-0.061035
7492186375,0.01243591,0.00424194,-0.99670410,0.061035,0.183105,-0.122070
7502282916,0.01229858,0.00421143,-0.99552917,0.061035,0.061035,0.061035
7512413916,0.01313782,0.00561523,-0.99517822,0.244141,-0.061035,-0.122070
7522528041,0.01171875,0.00671387,-0.99168396,0.000000,0.305176,-0.183105
7532646291,0.01147461,0.00648499,-0.99803162,0.122070,0.183105,0.000000
7542687166,0.01046753,0.00665283,-1.00106812,0.244141,0.061035,-0.061035
7552652750,0.01205444,0.00717163,-0.99165344,-0.244141,0.061035,-0.061035
7562821916,0.01254272,0.00463867,-0.99990845,-0.244141,0.061035,-0.061035
7570482500,0.01327515,0.00303650,-0.99620056,-0.244141,0.061035,-0.061035
7573035708,0.01327515,0.00303650,-0.99620056,-0.061035,0.244141,-0.183105
7580636750,0.01333618,0.00306702,-0.99716187,-0.061035,0.244141,-0.183105
7583169541,0.01333618,0.00306702,-0.99716187,0.122070,0.183105,-0.244141
7590695166,0.01284790,0.00286865,-0.99421692,0.122070,0.183105,-0.244141
7593248250,0.01284790,0.00286865,-0.99421692,0.000000,0.122070,-0.122070
7600833291,0.01324463,0.00344849,-0.99517822,0.000000,0.122070,-0.122070
7603370041,0.01324463,0.00344849,-0.99517822,0.183105,0.183105,-0.122070
7610964958,0.01225281,0.00338745,-0.99568176,0.183105,0.183105,-0.122070
7613516916,0.01225281,0.00338745,-0.99568176,0.122070,0.244141,-0.122070
7620719666,0.01258850,0.00303650,-0.99583435,0.122070,0.244141,-0.122070
7623256750,0.01258850,0.00303650,-0.99583435,0.183105,0.244141,-0.122070
7630870333,0.01260376,0.00427246,-0.99594116,0.183105,0.244141,-0.122070
7633439666,0.01260376,0.00427246,-0.99594116,0.122070,0.061035,0.000000
7641026000,0.01315308,0.00482178,-0.99540710,0.122070,0.061035,0.000000
7643565125,0.01315308,0.00482178,-0.99540710,-0.061035,0.183105,-0.122070
7651157333,0.01275635,0.00637817,-0.99667358,-0.061035,0.183105,-0.122070
7653712125,0.01275635,0.00637817,-0.99667358,0.000000,0.122070,0.000000
7661316500,0.01264954,0.00718689,-0.99511719,0.000000,0.122070,0.000000
7663861833,0.01264954,0.00718689,-0.99511719,-0.122070,0.244141,-0.061035
7671408166,0.01219177,0.00581360,-0.99775696,-0.122070,0.244141,-0.061035
7673952041,0.01219177,0.00581360,-0.99775696,0.061035,0.244141,-0.122070
7681559500,0.01150513,0.00570679,-0.99462891,0.061035,0.244141,-0.122070
7684112791,0.01150513,0.00570679,-0.99462891,0.061035,0.183105,-0.183105
7691337333,0.01174927,0.00421143,-0.99757385,0.061035,0.183105,-0.183105
7693873416,0.01174927,0.00421143,-0.99757385,0.000000,0.244141,-0.122070
7701441458,0.01213074,0.00286865,-0.99581909,0.000000,0.244141,-0.122070
7703971125,0.01213074,0.00286865,-0.99581909,0.061035,0.122070,-0.122070
7711597500,0.01289368,0.00384521,-0.99589539,0.061035,0.122070,-0.122070
7714156916,0.01289368,0.00384521,-0.99589539,0.061035,0.244141,0.000000
7721756708,0.01339722,0.00440979,-0.99613953,0.061035,0.244141,0.000000
7724315958,0.01339722,0.00440979,-0.99613953,-0.061035,0.122070,-0.183105
7731903708,0.01248169,0.00390625,-0.99557495,-0.061035,0.122070,-0.183105
7734466541,0.01248169,0.00390625,-0.99557495,0.000000,0.183105,-0.122070
7742073250,0.01295471,0.00453186,-0.99531555,0.000000,0.183105,-0.122070
7744602708,0.01295471,0.00453186,-0.99531555,0.000000,0.122070,-0.122070
7752152833,0.01208496,0.00563049,-0.99664307,0.000000,0.122070,-0.122070
7754688333,0.01208496,0.00563049,-0.99664307,0.000000,0.183105,0.000000
7762265208,0.01261902,0.00445557,-0.99504089,0.000000,0.183105,0.000000
7764835250,0.01261902,0.00445557,-0.99504089,0.061035,0.183105,-0.122070
7772447875,0.01235962,0.00521851,-0.99577332,0.122070,0.183105,0.000000
7782565250,0.01284790,0.00485229,-0.99577332,0.122070,0.305176,-0.061035
7792721625,0.01196289,0.00538635,-0.99681091,0.061035,0.244141,-0.061035
7802620625,0.01150513,0.00444031,-0.99479675,0.183105,0.183105,-0.061035
7812747791,0.01229858,0.00500488,-0.99650574,0.122070,0.122070,0.000000
7822871416,0.01342773,0.00569153,-0.99560547,0.061035,0.183105,-0.061035
7833026208,0.01333618,0.00518799,-0.99702454,0.122070,0.183105,-0.061035
7843198166,0.01277161,0.00415039,-0.99485779,-0.061035,0.061035,-0.061035
7853343583,0.01296997,0.00430298,-0.99623108,0.244141,0.183105,-0.061035
7863532791,0.01277161,0.00454712,-0.99661255,0.000000,0.183105,-0.061035
7873685708,0.01286316,0.00431824,-0.99455261,0.061035,0.183105,-0.183105
7883830666,0.01316833,0.00357056,-0.99632263,-0.122070,0.061035,0.000000
7891449291,0.01203918,0.00474548,-0.99540710,-0.122070,0.061035,0.000000
7894026500,0.01203918,0.00474548,-0.99540710,0.122070,0.122070,-0.061035
7901609250,0.01203918,0.00396729,-0.99603271,0.122070,0.122070,-0.061035
7904148916,0.01203918,0.00396729,-0.99603271,0.122070,0.244141,-0.122070
7911733625,0.01272583,0.00479126,-0.99551392,0.122070,0.244141,-0.122070
7914298458,0.01272583,0.00479126,-0.99551392,0.061035,0.061035,-0.061035
7921501500,0.01161194,0.00489807,-0.99569702,0.061035,0.061035,-0.061035
7924062708,0.01161194,0.00489807,-0.99569702,0.061035,0.183105,-0.061035
7931676416,0.01132202,0.00471497,-0.99562073,0.061035,0.183105,-0.061035
7934223666,0.01132202,0.00471497,-0.99562073,0.000000,0.122070,-0.183105
7941828375,0.01174927,0.00457764,-0.99588013,0.000000,0.122070,-0.183105
7944291000,0.01174927,0.00457764,-0.99588013,0.000000,0.183105,-0.183105
7951890541,0.01148987,0.00494385,-0.99603271,0.000000,0.183105,-0.183105
7954432791,0.01148987,0.00494385,-0.99603271,0.061035,0.000000,0.000000
7961574250,0.01199341,0.00448608,-0.99339294,0.061035,0.000000,0.000000
7964036166,0.01199341,0.00448608,-0.99339294,0.122070,0.122070,-0.122070
7971656500,0.01263428,0.00495911,-0.99693298,0.122070,0.122070,-0.122070
7974198166,0.01263428,0.00495911,-0.99693298,0.122070,0.183105,-0.061035
7981366541,0.01260376,0.00581360,-0.99598694,0.122070,0.183105,-0.061035
7983908708,0.01260376,0.00581360,-0.99598694,0.122070,0.488281,-0.061035
7993578500,0.01147461,0.00767517,-0.99705505,0.122070,0.122070,-0.122070
8003692833,0.01307678,0.00874329,-0.99345398,0.000000,0.122070,-0.061035
8013857416,0.01298523,0.00857544,-0.99897766,0.000000,0.305176,-0.122070
8024034333,0.01211548,0.00793457,-0.99533081,0.183105,0.305176,0.000000
8031648416,0.01185608,0.00743103,-0.99708557,0.183105,0.305176,0.000000
8034202458,0.01185608,0.00743103,-0.99708557,0.183105,0.183105,0.000000
8041696166,0.01095581,0.00735474,-0.99504089,0.183105,0.183105,0.000000
8044262333,0.01095581,0.00735474,-0.99504089,0.183105,0.244141,0.000000
8051876291,0.01176453,0.00584412,-0.99328613,0.183105,0.244141,0.000000
8054413125,0.01176453,0.00584412,-0.99328613,-0.061035,0.305176,0.122070
8061997708,0.01164246,0.00393677,-0.99874878,-0.061035,0.305176,0.122070
8064530958,0.01164246,0.00393677,-0.99874878,0.183105,0.244141,0.061035
8071923500,0.01329041,0.00382996,-0.99365234,0.183105,0.244141,0.061035
8074479875,0.01329041,0.00382996,-0.99365234,0.122070,0.244141,-0.061035
8082085583,0.01324463,0.00283813,-0.99700928,0.122070,0.244141,-0.061035
8084613458,0.01324463,0.00283813,-0.99700928,-0.061035,0.122070,-0.061035
8092192000,0.01446533,0.00181580,-0.99359131,-0.061035,0.122070,-0.061035
8094732708,0.01446533,0.00181580,-0.99359131,0.183105,0.061035,-0.122070
8102084583,0.01379395,0.00146484,-0.99635315,0.183105,0.061035,-0.122070
8104660291,0.01379395,0.00146484,-0.99635315,-0.061035,0.244141,0.000000
8112269708,0.01254272,0.00177002,-0.99626160,-0.061035,0.244141,0.000000
8114807333,0.01254272,0.00177002,-0.99626160,0.122070,0.122070,-0.061035
8122404541,0.01261902,0.00207520,-0.99557495,0.122070,0.122070,-0.061035
8124933458,0.01261902,0.00207520,-0.99557495,0.122070,0.244141,0.000000
8134194250,0.01040649,0.00358582,-0.99522400,0.122070,0.183105,-0.061035
8141823458,0.01173401,0.00428772,-0.99525452,0.122070,0.183105,-0.061035
8144369250,0.01173401,0.00428772,-0.99525452,0.000000,0.305176,-0.122070
8151966708,0.01168823,0.00340271,-0.99584961,0.000000,0.305176,-0.122070
8154518875,0.01168823,0.00340271,-0.99584961,0.061035,0.122070,-0.122070
8164163041,0.01202393,0.00526428,-0.99580383,0.305176,0.366211,0.000000
8174295875,0.01223755,0.00622559,-0.99607849,0.061035,0.305176,-0.122070
8181873750,0.01199341,0.00617981,-0.99607849,0.061035,0.305176,-0.122070
8184405166,0.01199341,0.00617981,-0.99607849,0.244141,0.061035,-0.122070
8192010166,0.01356506,0.00714111,-0.99606323,0.244141,0.061035,-0.122070
8194571166,0.01356506,0.00714111,-0.99606323,0.122070,0.061035,0.000000
8204717458,0.01412964,0.00717163,-0.99641418,0.061035,0.183105,0.061035
8214524958,0.01240540,0.00701904,-0.99714661,0.183105,0.122070,-0.061035
8224666416,0.01211548,0.00706482,-0.99604797,0.122070,0.244141,-0.061035
8234828541,0.01213074,0.00679016,-0.99534607,0.122070,0.183105,-0.061035
8242455750,0.01264954,0.00636292,-0.99597168,0.122070,0.183105,-0.061035
8245002958,0.01264954,0.00636292,-0.99597168,0.244141,0.244141,0.061035
8252356375,0.01319885,0.00645447,-0.99644470,0.244141,0.244141,0.061035
8254914583,0.01319885,0.00645447,-0.99644470,0.122070,0.122070,-0.122070
8262519833,0.01289368,0.00332642,-0.99632263,0.122070,0.122070,-0.122070
8265069583,0.01289368,0.00332642,-0.99632263,0.183105,0.122070,-0.061035
8272674333,0.01258850,0.00253296,-0.99568176,0.183105,0.122070,-0.061035
8275207916,0.01258850,0.00253296,-0.99568176,0.061035,0.244141,0.000000
8282796541,0.01232910,0.00358582,-0.99566650,0.061035,0.244141,0.000000
8285333916,0.01232910,0.00358582,-0.99566650,0.183105,0.183105,-0.122070
8292914625,0.01278687,0.00286865,-0.99549866,0.183105,0.183105,-0.122070
8295475500,0.01278687,0.00286865,-0.99549866,0.061035,0.244141,-0.183105
8302648666,0.01390076,0.00265503,-0.99548340,0.061035,0.244141,-0.183105
8305184000,0.01390076,0.00265503,-0.99548340,0.061035,0.244141,-0.183105
8312778083,0.01332092,0.00291443,-0.99624634,0.061035,0.244141,-0.183105
8315320583,0.01332092,0.00291443,-0.99624634,0.122070,0.122070,-0.061035
8322929875,0.01249695,0.00285339,-0.99572754,0.122070,0.122070,-0.061035
8325478583,0.01249695,0.00285339,-0.99572754,0.061035,0.244141,0.061035
8333060375,0.01235962,0.00386047,-0.99513245,0.061035,0.244141,0.061035
8335596666,0.01235962,0.00386047,-0.99513245,0.122070,0.122070,-0.122070
8343199000,0.01219177,0.00398254,-0.99603271,0.122070,0.122070,-0.122070
8345746208,0.01219177,0.00398254,-0.99603271,0.061035,0.183105,-0.122070
8353403083,0.01066589,0.00411987,-0.99554443,0.061035,0.183105,-0.122070
8355965958,0.01066589,0.00411987,-0.99554443,0.122070,0.122070,-0.122070
8363566875,0.01098633,0.00457764,-0.99739075,0.122070,0.183105,-0.122070
8373643291,0.01301575,0.00436401,-0.99601746,0.000000,0.183105,-0.122070
8383754541,0.01246643,0.00503540,-0.99661255,-0.061035,0.183105,-0.183105
8393557041,0.01248169,0.00444031,-0.99528503,0.061035,0.122070,-0.122070
8403696541,0.01300049,0.00399780,-0.99497986,0.122070,0.183105,-0.061035
8413814000,0.01274109,0.00415039,-0.99539185,0.061035,0.183105,-0.122070
8423960500,0.01132202,0.00497437,-0.99629211,0.000000,0.183105,-0.122070
8433709333,0.01135254,0.00578308,-0.99629211,0.183105,0.122070,-0.061035
8443860666,0.01206970,0.00680542,-0.99633789,0.122070,0.183105,-0.122070
8453722708,0.01220703,0.00685120,-0.99656677,0.000000,0.122070,-0.061035
8463858416,0.01185608,0.00697327,-0.99601746,0.122070,0.183105,0.000000
8473659666,0.01301575,0.00613403,-0.99378967,0.122070,0.183105,0.000000
8476214750,0.01301575,0.00613403,-0.99378967,0.061035,0.122070,-0.183105
8483866958,0.01271057,0.00584412,-0.99882507,0.000000,0.183105,-0.122070
8494028333,0.01318359,0.00520325,-0.99632263,0.122070,0.000000,-0.122070
8504251250,0.01417542,0.00396729,-0.99670410,0.000000,0.183105,-0.061035
8514071666,0.01289368,0.00285339,-0.99507141,0.000000,0.183105,-0.061035
8516232958,0.01289368,0.00285339,-0.99507141,0.000000,0.183105,-0.122070
8523749708,0.01272583,0.00231934,-0.99517822,0.000000,0.183105,-0.122070
8526280958,0.01272583,0.00231934,-0.99517822,0.122070,0.183105,-0.122070
8533836041,0.01258850,0.00358582,-0.99746704,0.122070,0.183105,-0.122070
8536400875,0.01258850,0.00358582,-0.99746704,0.244141,0.305176,-0.061035
8543996708,0.01176453,0.00534058,-0.99548340,0.244141,0.305176,-0.061035
8546519250,0.01176453,0.00534058,-0.99548340,0.061035,0.244141,-0.061035
8554105333,0.01118469,0.00488281,-0.99501038,0.061035,0.244141,-0.061035
8556652083,0.01118469,0.00488281,-0.99501038,0.122070,0.061035,-0.122070
8564268958,0.01235962,0.00390625,-0.99667358,0.122070,0.061035,-0.122070
8566823708,0.01235962,0.00390625,-0.99667358,0.061035,0.183105,-0.061035
8574431750,0.01335144,0.00387573,-0.99574280,0.122070,0.183105,-0.244141
8584572041,0.01296997,0.00382996,-0.99612427,0.122070,0.122070,-0.122070
8594695291,0.01394653,0.00227356,-0.99497986,0.061035,0.122070,-0.122070
8604826166,0.01339722,0.00230408,-0.99620056,0.061035,0.122070,-0.122070
8614689458,0.01210022,0.00296021,-0.99620056,0.061035,0.183105,-0.061035
8624673458,0.01148987,0.00274658,-0.99644470,0.061035,0.244141,-0.244141
8634882708,0.01249695,0.00395203,-0.99739075,0.122070,0.061035,0.000000
8645031083,0.01348877,0.00561523,-0.99681091,-0.122070,0.183105,-0.183105
8654951291,0.01127625,0.00582886,-0.99577332,0.183105,0.366211,-0.244141
8665143166,0.01194763,0.00782776,-0.99087524,0.244141,0.305176,-0.183105
8675246875,0.01106262,0.00808716,-0.99525452,0.183105,0.244141,-0.122070
8685377333,0.01116943,0.00640869,-1.00064087,0.061035,0.000000,-0.061035
8695554875,0.01194763,0.00556946,-0.99531555,0.000000,0.122070,-0.122070
8705699041,0.01232910,0.00572205,-1.00039673,-0.122070,0.183105,0.000000
8713751833,0.01284790,0.00698853,-0.99406433,-0.122070,0.183105,0.000000
8716418208,0.01284790,0.00698853,-0.99406433,0.122070,0.183105,0.000000
8723710875,0.01304626,0.00799561,-0.99647522,0.122070,0.183105,0.000000
8726260875,0.01304626,0.00799561,-0.99647522,-0.122070,0.061035,-0.061035
8733944250,0.01237488,0.00617981,-0.99349976,-0.122070,0.061035,-0.061035
8736321625,0.01237488,0.00617981,-0.99349976,0.122070,0.183105,-0.061035
8743914625,0.01286316,0.00482178,-0.99882507,0.122070,0.183105,-0.061035
8746448958,0.01286316,0.00482178,-0.99882507,-0.122070,0.122070,-0.061035
8754031666,0.01310730,0.00476074,-0.99423218,-0.122070,0.122070,-0.061035
8756589875,0.01310730,0.00476074,-0.99423218,0.305176,0.183105,0.000000
8763829208,0.01179504,0.00428772,-0.99638367,0.305176,0.183105,0.000000
8766431875,0.01179504,0.00428772,-0.99638367,0.122070,0.061035,-0.122070
8774010166,0.01239014,0.00253296,-0.99774170,0.122070,0.061035,-0.122070
8776582000,0.01239014,0.00253296,-0.99774170,0.122070,0.183105,-0.122070
8784215291,0.01286316,0.00222778,-0.99510193,0.122070,0.183105,-0.122070
8786778666,0.01286316,0.00222778,-0.99510193,0.061035,0.122070,-0.061035
8794589500,0.01156616,0.00239563,-0.99688721,0.061035,0.122070,-0.061035
8798027875,0.01156616,0.00239563,-0.99688721,0.061035,0.183105,-0.061035
8805530208,0.01103210,0.00173950,-0.99380493,0.061035,0.122070,-0.122070
8815701000,0.01159668,0.00260925,-0.99745178,0.000000,0.061035,-0.122070
8823335791,0.01292419,0.00299072,-0.99647522,0.000000,0.061035,-0.122070
8825883458,0.01292419,0.00299072,-0.99647522,0.000000,0.244141,-0.061035
8835906500,0.01306152,0.00427246,-0.99613953,0.000000,0.244141,-0.061035
8838778500,0.01306152,0.00427246,-0.99613953,0.000000,0.244141,-0.061035
8843608541,0.01249695,0.00381470,-0.99754333,0.000000,0.244141,-0.061035
8846165208,0.01249695,0.00381470,-0.99754333,0.061035,0.183105,-0.061035
8853873125,0.01206970,0.00442505,-0.99600220,0.061035,0.183105,-0.061035
8856629291,0.01206970,0.00442505,-0.99600220,0.122070,0.000000,-0.122070
8864462583,0.01139832,0.00617981,-0.99716187,0.122070,0.000000,-0.122070
8878521333,0.01142883,0.00608826,-0.99508667,0.061035,0.183105,-0.061035
8878531208,0.01142883,0.00608826,-0.99508667,0.061035,0.122070,-0.122070
8883602416,0.01338196,0.00541687,-0.99568176,0.061035,0.122070,-0.122070
8886123750,0.01338196,0.00541687,-0.99568176,0.122070,0.061035,-0.122070
8893655666,0.01333618,0.00500488,-0.99589539,0.122070,0.061035,-0.122070
8896194458,0.01333618,0.00500488,-0.99589539,-0.122070,0.061035,0.000000
8903753500,0.01232910,0.00587463,-0.99630737,-0.122070,0.061035,0.000000
8906280333,0.01232910,0.00587463,-0.99630737,0.061035,0.183105,-0.122070
8913828625,0.01292419,0.00596619,-0.99534607,0.061035,0.183105,-0.122070
8916349666,0.01292419,0.00596619,-0.99534607,0.000000,0.122070,0.061035
8924022250,0.01165771,0.00648499,-0.99572754,0.000000,0.122070,0.061035
8926582875,0.01165771,0.00648499,-0.99572754,0.000000,0.122070,0.000000
8934299291,0.01133728,0.00685120,-0.99649048,0.000000,0.122070,0.000000
8936879208,0.01133728,0.00685120,-0.99649048,0.000000,0.000000,-0.122070
8944507333,0.01176453,0.00755310,-0.99496460,0.000000,0.000000,-0.122070
8947077750,0.01176453,0.00755310,-0.99496460,-0.061035,0.183105,0.000000
8954374333,0.01179504,0.00701904,-0.99583435,-0.061035,0.183105,0.000000
8957556375,0.01179504,0.00701904,-0.99583435,-0.061035,0.122070,-0.061035
8964016916,0.01237488,0.00587463,-0.99526978,-0.061035,0.122070,-0.061035
8966591000,0.01237488,0.00587463,-0.99526978,0.000000,0.122070,-0.061035
8974106500,0.01173401,0.00401306,-0.99606323,0.000000,0.122070,-0.061035
8977179125,0.01173401,0.00401306,-0.99606323,-0.061035,0.061035,-0.122070
8985106166,0.01333618,0.00228882,-0.99472046,-0.061035,0.061035,-0.122070
8987727208,0.01333618,0.00228882,-0.99472046,0.000000,0.244141,0.000000
8995418250,0.01319885,0.00085449,-0.99612427,0.183105,0.183105,0.000000
9005697000,0.01295471,0.00019836,-0.99531555,0.061035,0.244141,-0.122070
9016484666,0.01383972,0.00053406,-0.99601746,-0.122070,0.244141,-0.183105
9024307708,0.01243591,0.00067139,-0.99630737,-0.122070,0.244141,-0.183105
9026978416,0.01243591,0.00067139,-0.99630737,0.000000,0.122070,-0.183105
9034578708,0.01248169,0.00212097,-0.99577332,0.000000,0.122070,-0.183105
9037124041,0.01248169,0.00212097,-0.99577332,0.000000,0.122070,-0.122070
9044741666,0.01237488,0.00476074,-0.99459839,0.000000,0.122070,-0.122070
9047292000,0.01237488,0.00476074,-0.99459839,0.000000,0.244141,-0.061035
9054886458,0.01210022,0.00607300,-0.99475098,0.000000,0.244141,-0.061035
9057425416,0.01210022,0.00607300,-0.99475098,0.000000,0.061035,-0.122070
9065040375,0.01199341,0.00704956,-0.99543762,0.000000,0.061035,-0.122070
9067577000,0.01199341,0.00704956,-0.99543762,0.122070,0.305176,-0.183105
9075013750,0.01249695,0.00854492,-0.99618530,0.122070,0.305176,-0.183105
9077557750,0.01249695,0.00854492,-0.99618530,0.183105,0.183105,-0.183105
9085152333,0.01141357,0.00691223,-0.99534607,0.183105,0.183105,-0.183105
9087717541,0.01141357,0.00691223,-0.99534607,0.061035,0.061035,-0.183105
9095328291,0.01275635,0.00694275,-0.99645996,0.122070,0.183105,-0.122070
9105519500,0.01371765,0.00546265,-0.99476624,0.122070,0.122070,-0.122070
9115653375,0.01303101,0.00372314,-0.99554443,0.000000,0.183105,-0.122070
9125693666,0.01216125,0.00405884,-0.99420166,0.000000,0.122070,0.000000
9135720125,0.01296997,0.00296021,-0.99581909,0.000000,0.244141,0.000000
9145824541,0.01240540,0.00213623,-0.99621582,0.122070,0.183105,-0.183105
9155325791,0.01298523,0.00335693,-0.99563599,0.061035,0.244141,-0.061035
9165414458,0.01213074,0.00511169,-0.99623108,0.000000,0.244141,-0.122070
9175510125,0.01246643,0.00575256,-0.99555969,0.183105,0.122070,-0.122070
9185174041,0.01152039,0.00622559,-0.99539185,0.183105,0.122070,-0.122070
9187718875,0.01152039,0.00622559,-0.99539185,0.061035,0.122070,-0.061035
9195351375,0.01153564,0.00714111,-0.99525452,0.061035,0.122070,-0.061035
9197924625,0.01153564,0.00714111,-0.99525452,0.000000,0.244141,0.061035
9205535583,0.01174927,0.00665283,-0.99565125,-0.061035,0.244141,-0.061035
9215672416,0.01269531,0.00634766,-0.99697876,-0.061035,0.244141,-0.061035
9225853833,0.01295471,0.00498962,-0.99665833,0.061035,0.183105,-0.061035
9235996000,0.01351929,0.00402832,-0.99679565,0.122070,0.305176,0.000000
9246144541,0.01261902,0.00337219,-0.99505615,0.000000,0.366211,0.000000
9256297833,0.01231384,0.00192261,-0.99725342,-0.122070,0.183105,-0.183105
9266445541,0.01319885,0.00148010,-0.99583435,-0.183105,0.183105,-0.122070
9276021875,0.01350403,0.00267029,-0.99713135,-0.061035,0.244141,-0.061035
9286127583,0.01287842,0.00387573,-0.99420166,-0.244141,0.122070,-0.183105
9296151166,0.01271057,0.00456238,-0.99621582,-0.183105,0.183105,-0.183105
9306256083,0.01248169,0.00695801,-0.99499512,-0.122070,0.122070,-0.183105
9316392083,0.01170349,0.00872803,-0.99670410,-0.183105,0.183105,0.000000
9326279791,0.01101685,0.01062012,-0.99688721,0.000000,0.183105,0.061035
9336430041,0.01174927,0.01020813,-0.99583435,-0.061035,0.244141,0.000000
9346236208,0.01231384,0.00868225,-0.99526978,0.061035,0.183105,-0.061035
9356356791,0.01194763,0.00709534,-0.99671936,0.000000,0.305176,-0.061035
9366472958,0.01293945,0.00205994,-0.99517822,0.061035,0.244141,-0.061035
9376272125,0.01402283,-0.00178528,-0.99775696,0.061035,0.244141,-0.061035
9378839041,0.01402283,-0.00178528,-0.99775696,0.061035,0.122070,-0.183105
9386577791,0.01367188,-0.00025940,-0.99606323,0.183105,0.122070,-0.122070
9396724250,0.01339722,0.00013733,-0.99693298,0.061035,0.183105,-0.122070
9406887500,0.01377869,0.00132751,-0.99461365,0.183105,0.244141,-0.183105
9417040083,0.01376343,0.00395203,-0.99710083,0.061035,0.183105,-0.061035
9427203875,0.01263428,0.00630188,-0.99551392,0.061035,0.183105,-0.061035
9434826000,0.01095581,0.00822449,-0.99604797,0.061035,0.183105,-0.061035
9437367416,0.01095581,0.00822449,-0.99604797,0.061035,0.183105,-0.122070
9444974708,0.01071167,0.00862122,-0.99481201,0.061035,0.183105,-0.122070
9447530166,0.01071167,0.00862122,-0.99481201,0.183105,0.244141,0.000000
9455115166,0.01103210,0.00909424,-0.99656677,0.183105,0.244141,0.000000
9457657041,0.01103210,0.00909424,-0.99656677,0.061035,0.183105,-0.122070
9465242000,0.01147461,0.00901794,-0.99707031,0.061035,0.183105,-0.122070
9467799958,0.01147461,0.00901794,-0.99707031,0.000000,0.061035,0.000000
9477542041,0.01127625,0.00822449,-0.99383545,0.061035,0.122070,-0.061035
9487708625,0.01303101,0.00619507,-0.99627686,0.122070,0.244141,0.000000
9497572125,0.01388550,0.00556946,-0.99639893,-0.061035,0.061035,-0.061035
9507707416,0.01347351,0.00354004,-0.99630737,0.000000,0.061035,0.000000
9515374041,0.01264954,0.00102234,-0.99450684,0.000000,0.061035,0.000000
9517930916,0.01264954,0.00102234,-0.99450684,0.061035,0.122070,-0.061035
9525517125,0.01252747,0.00086975,-0.99594116,0.061035,0.122070,-0.061035
9528118041,0.01252747,0.00086975,-0.99594116,0.000000,0.122070,0.000000
9535674666,0.01240540,0.00161743,-0.99504089,0.000000,0.122070,0.000000
9538223458,0.01240540,0.00161743,-0.99504089,0.122070,0.122070,-0.122070
9545823166,0.01060486,0.00350952,-0.99620056,0.122070,0.122070,-0.122070
9548375000,0.01060486,0.00350952,-0.99620056,0.061035,0.122070,0.000000
9555964500,0.01187134,0.00558472,-0.99549866,0.061035,0.122070,0.000000
9558502291,0.01187134,0.00558472,-0.99549866,0.000000,0.183105,-0.122070
9565703666,0.01177979,0.00646973,-0.99549866,0.000000,0.183105,-0.122070
9568246625,0.01177979,0.00646973,-0.99549866,0.122070,0.183105,-0.183105
9575842291,0.01246643,0.00785828,-0.99603271,0.122070,0.183105,-0.183105
9578390083,0.01246643,0.00785828,-0.99603271,0.183105,0.122070,-0.061035
9585974541,0.01208496,0.00782776,-0.99470520,0.183105,0.122070,-0.061035
9588294875,0.01208496,0.00782776,-0.99470520,0.000000,0.061035,-0.061035
9595485750,0.01293945,0.00856018,-0.99676514,0.000000,0.061035,-0.061035
9598028833,0.01293945,0.00856018,-0.99676514,0.061035,0.061035,-0.122070
9605586166,0.01371765,0.00773621,-0.99568176,0.061035,0.061035,-0.122070
9608108416,0.01371765,0.00773621,-0.99568176,0.000000,0.244141,0.000000
9615675208,0.01312256,0.00640869,-0.99537659,0.000000,0.244141,0.000000
9618214541,0.01312256,0.00640869,-0.99537659,0.061035,0.183105,-0.122070
9625793875,0.01292419,0.00480652,-0.99568176,0.061035,0.183105,-0.122070
9628027666,0.01292419,0.00480652,-0.99568176,0.061035,0.244141,0.061035
9635361333,0.01193237,0.00402832,-0.99580383,0.061035,0.244141,0.061035
9637902125,0.01193237,0.00402832,-0.99580383,0.061035,0.244141,0.000000
9648058708,0.01184082,0.00338745,-0.99639893,0.061035,0.061035,0.000000
9655661041,0.01194763,0.00274658,-0.99497986,0.061035,0.061035,0.000000
9658206375,0.01194763,0.00274658,-0.99497986,0.183105,0.305176,-0.122070
9665797458,0.01232910,0.00283813,-0.99610901,0.183105,0.305176,-0.122070
9668296208,0.01232910,0.00283813,-0.99610901,0.122070,0.183105,-0.183105
9675890583,0.01300049,0.00392151,-0.99516296,0.122070,0.183105,-0.183105
9678455833,0.01300049,0.00392151,-0.99516296,0.061035,0.244141,-0.061035
9686084541,0.01287842,0.00480652,-0.99613953,0.061035,0.244141,-0.061035
9688640833,0.01287842,0.00480652,-0.99613953,0.122070,0.183105,-0.122070
9696237958,0.01196289,0.00437927,-0.99490356,0.122070,0.183105,-0.122070
9698775791,0.01196289,0.00437927,-0.99490356,0.061035,0.122070,-0.183105
9706363416,0.01296997,0.00457764,-0.99760437,0.061035,0.122070,-0.183105
9708918333,0.01296997,0.00457764,-0.99760437,0.183105,0.183105,-0.122070
9716389416,0.01275635,0.00526428,-0.99661255,0.183105,0.183105,-0.122070
9718601958,0.01275635,0.00526428,-0.99661255,0.183105,0.122070,-0.122070
9726225458,0.01211548,0.00633240,-0.99583435,0.183105,0.122070,-0.122070
9728766541,0.01211548,0.00633240,-0.99583435,0.183105,0.244141,0.000000
9736353958,0.01113892,0.00814819,-0.99656677,0.183105,0.244141,0.000000
9738913791,0.01113892,0.00814819,-0.99656677,0.061035,0.122070,-0.061035
9746506333,0.01217651,0.00814819,-0.99542236,0.061035,0.122070,-0.061035
9749047458,0.01217651,0.00814819,-0.99542236,0.061035,0.122070,-0.122070
9756654166,0.01255798,0.00740051,-0.99537659,0.061035,0.122070,-0.122070
9759220375,0.01255798,0.00740051,-0.99537659,0.061035,0.122070,0.000000
9766808583,0.01269531,0.00698853,-0.99632263,0.000000,0.244141,-0.122070
9776930250,0.01248169,0.00654602,-0.99635315,0.122070,0.122070,-0.061035
9787054583,0.01275635,0.00483704,-0.99601746,0.122070,0.122070,-0.061035
9789589666,0.01275635,0.00483704,-0.99601746,0.061035,0.183105,-0.061035
9797202125,0.01269531,0.00402832,-0.99543762,0.061035,0.183105,-0.061035
9799738125,0.01269531,0.00402832,-0.99543762,0.122070,0.122070,-0.061035
9807333750,0.01289368,0.00350952,-0.99537659,0.122070,0.122070,-0.061035
9809902625,0.01289368,0.00350952,-0.99537659,0.000000,0.244141,0.000000
9817518458,0.01190186,0.00332642,-0.99552917,0.061035,0.244141,-0.061035
9827666250,0.01162720,0.00379944,-0.99557495,0.061035,0.183105,-0.122070
9837806916,0.01245117,0.00366211,-0.99433899,0.122070,0.183105,-0.122070
9847602625,0.01205444,0.00410461,-0.99720764,0.122070,0.183105,0.061035
9857738416,0.01185608,0.00601196,-0.99603271,0.183105,0.122070,-0.061035
9867871416,0.01242065,0.00639343,-0.99693298,-0.244141,0.305176,-0.122070
9878029958,0.01210022,0.00604248,-0.99340820,0.366211,0.183105,-0.061035
9888164875,0.01155090,0.00714111,-0.99818420,0.061035,0.122070,-0.122070
9898348416,0.01275635,0.00636292,-0.99482727,0.061035,0.244141,-0.061035
9908486583,0.01313782,0.00411987,-0.99446106,0.305176,0.061035,-0.061035
9918546250,0.01402283,-0.00018311,-0.99630737,-0.061035,0.183105,-0.183105
9928712458,0.01536560,-0.00357056,-0.99299622,0.244141,0.244141,-0.244141
9936349958,0.01383972,0.00015259,-0.99868774,0.244141,0.244141,-0.244141
9938895458,0.01383972,0.00015259,-0.99868774,0.000000,0.244141,-0.122070
9946536041,0.01118469,0.00526428,-0.99369812,0.000000,0.244141,-0.122070
9949095625,0.01118469,0.00526428,-0.99369812,0.061035,0.183105,-0.122070
9956712375,0.01068115,0.01091003,-0.99565125,0.061035,0.183105,-0.122070
9959268541,0.01068115,0.01091003,-0.99565125,0.000000,0.061035,-0.061035
9966658416,0.01115417,0.01066589,-0.99606323,0.000000,0.061035,-0.061035
9969202625,0.01115417,0.01066589,-0.99606323,0.366211,0.122070,-0.061035
9976788916,0.01368713,0.00997925,-0.99424744,0.366211,0.122070,-0.061035
9979328083,0.01368713,0.00997925,-0.99424744,0.366211,0.244141,-0.122070
9986834833,0.01615906,0.00762939,-0.99537659,0.366211,0.244141,-0.122070
9989393916,0.01615906,0.00762939,-0.99537659,0.366211,0.183105,-0.061035
9997007333,0.01486206,0.00605774,-0.99324036,0.366211,0.183105,-0.061035
9999556250,0.01486206,0.00605774,-0.99324036,0.427246,0.183105,-0.183105
10007161125,0.01211548,0.00567627,-0.99678040,0.427246,0.183105,-0.183105
10009716458,0.01211548,0.00567627,-0.99678040,0.366211,0.244141,-0.183105
10017334083,0.01017761,0.00384521,-0.99375916,0.793457,0.305176,-0.061035
10027297875,0.00808716,0.00169373,-0.99342346,0.793457,0.305176,-0.061035
10029857666,0.00808716,0.00169373,-0.99342346,3.112793,0.976562,-0.244141
10037469333,0.00679016,-0.00239563,-0.97265625,-4.943848,-0.061035,-0.061035
10047506291,0.01475525,-0.00811768,-1.01980591,3.784180,-0.488281,0.000000
10057666250,0.00793457,0.02740479,-1.03924561,-0.732422,0.488281,0.244141
10067819583,-0.00805664,0.02091980,-0.95350647,-0.732422,0.427246,0.122070
10077890833,0.00573730,0.00724792,-0.96577454,0.671387,-0.061035,0.122070
10087973375,0.02125549,0.00895691,-1.06346130,0.183105,0.427246,-0.061035
10098085375,0.02182007,0.00033569,-0.94282532,0.488281,0.061035,-0.366211
10108208083,0.03115845,-0.00770569,-1.02073669,0.061035,0.244141,-0.488281
10118328875,0.03114319,-0.01364136,-0.99935913,0.488281,0.549316,-0.366211
10128441875,0.02352905,-0.00813293,-0.97695923,0.000000,0.061035,-0.366211
10138570916,0.02091980,-0.00497437,-1.00498962,0.549316,0.183105,-0.305176
10148687583,0.01301575,0.00108337,-1.00579834,-0.183105,0.244141,-0.244141
10158840625,0.00680542,0.00807190,-0.98542786,0.122070,0.122070,-0.183105
10169037166,0.00843811,0.00814819,-0.99815369,0.183105,0.183105,0.000000
10176663500,0.00349426,0.01507568,-1.00311279,0.183105,0.183105,0.000000
10179227875,0.00349426,0.01507568,-1.00311279,-0.183105,0.183105,0.061035
10186839166,0.00341797,0.01870728,-0.98970032,-0.183105,0.183105,0.061035
10189380458,0.00341797,0.01870728,-0.98970032,0.061035,0.183105,-0.183105
10196975791,0.00479126,0.01870728,-1.00419617,0.061035,0.183105,-0.183105
10199518416,0.00479126,0.01870728,-1.00419617,-0.183105,0.183105,-0.061035
10207137208,-0.00068665,0.01983643,-0.99429321,-0.183105,0.183105,-0.061035
10209699791,-0.00068665,0.01983643,-0.99429321,0.183105,0.183105,-0.061035
10217299708,0.00471497,0.02189636,-0.99317932,0.183105,0.183105,-0.061035
10219829166,0.00471497,0.02189636,-0.99317932,0.122070,0.122070,0.000000
10227389333,0.01123047,0.01785278,-0.99807739,0.122070,0.122070,0.000000
10229919958,0.01123047,0.01785278,-0.99807739,-0.061035,0.122070,0.122070
10237512375,0.01441956,0.00888062,-0.99597168,-0.061035,0.122070,0.122070
10240052083,0.01441956,0.00888062,-0.99597168,0.122070,0.183105,0.061035
10247674708,0.01683044,-0.00228882,-0.99516296,0.122070,0.183105,0.061035
10249827291,0.01683044,-0.00228882,-0.99516296,0.000000,0.183105,-0.122070
10257176916,0.01759338,-0.00793457,-0.99536133,0.000000,0.183105,-0.122070
10259729875,0.01759338,-0.00793457,-0.99536133,-0.061035,0.122070,-0.061035
10267331583,0.01795959,-0.01004028,-0.99713135,-0.061035,0.122070,-0.061035
10269872791,0.01795959,-0.01004028,-0.99713135,0.122070,0.183105,-0.061035
10277493666,0.01539612,-0.01173401,-0.99516296,0.122070,0.183105,-0.061035
10280060083,0.01539612,-0.01173401,-0.99516296,0.000000,0.244141,-0.183105
10287675125,0.01066589,-0.01075745,-0.99308777,0.000000,0.244141,-0.183105
10290229416,0.01066589,-0.01075745,-0.99308777,-0.061035,0.244141,-0.183105
10297842708,0.00862122,-0.00688171,-0.99662781,-0.061035,0.244141,-0.183105
10300389250,0.00862122,-0.00688171,-0.99662781,-0.122070,0.061035,-0.061035
10308031916,0.00544739,0.00212097,-0.99748230,-0.122070,0.061035,-0.061035
10310595500,0.00544739,0.00212097,-0.99748230,-0.061035,0.061035,0.000000
10318273166,0.00517273,0.00738525,-0.99511719,-0.061035,0.061035,0.000000
10320538375,0.00517273,0.00738525,-0.99511719,-0.122070,0.305176,0.000000
10328176791,0.00863647,0.01071167,-0.99581909,-0.122070,0.305176,0.000000
10330725416,0.00863647,0.01071167,-0.99581909,-0.183105,0.061035,0.000000
10338324458,0.01028442,0.01652527,-0.99790955,-0.183105,0.061035,0.000000
10340878875,0.01028442,0.01652527,-0.99790955,-0.061035,0.061035,0.000000
10348485666,0.01002502,0.01806641,-0.99714661,-0.183105,0.122070,0.061035
10358615916,0.01210022,0.01657104,-0.99636841,-0.061035,0.183105,0.061035
10368750916,0.01138306,0.01205444,-0.99501038,0.061035,0.244141,0.000000
10378872500,0.01187134,0.00622559,-0.99624634,0.000000,0.122070,-0.122070
10388987583,0.01387024,-0.00025940,-0.99642944,-0.122070,0.183105,0.061035
10399110416,0.01689148,-0.00666809,-0.99533081,-0.061035,0.183105,-0.122070
10409240041,0.01898193,-0.01300049,-0.99429321,-0.061035,0.183105,-0.061035
10419415625,0.01963806,-0.01496887,-0.99729919,-0.061035,-0.061035,-0.244141
10429559208,0.01843262,-0.01181030,-0.99337769,-0.061035,0.122070,-0.427246
10439730416,0.01533508,-0.00817871,-0.99502563,-0.183105,0.122070,-0.427246
10447372083,0.01248169,-0.00001526,-0.99606323,-0.183105,0.122070,-0.427246
10449924583,0.01248169,-0.00001526,-0.99606323,-0.244141,0.000000,-0.244141
10457545250,0.01377869,0.00831604,-0.99650574,-0.244141,0.000000,-0.244141
10460114875,0.01377869,0.00831604,-0.99650574,-0.183105,0.000000,-0.366211
10467740666,0.01635742,0.01614380,-0.99722290,-0.183105,0.000000,-0.366211
10470288708,0.01635742,0.01614380,-0.99722290,-0.244141,0.183105,-0.183105
10477928166,0.01535034,0.02249146,-0.99798584,-0.244141,0.183105,-0.183105
10480482750,0.01535034,0.02249146,-0.99798584,-0.183105,0.122070,-0.183105
10488089375,0.01368713,0.02517700,-0.99600220,-0.183105,0.122070,-0.183105
10490639458,0.01368713,0.02517700,-0.99600220,-0.427246,0.000000,0.000000
10498265041,0.01155090,0.02462769,-0.99784851,-0.427246,0.000000,0.000000
10500730250,0.01155090,0.02462769,-0.99784851,-0.244141,0.000000,0.061035
10508334375,0.00859070,0.02285767,-0.99769592,-0.244141,0.000000,0.061035
10510560541,0.00859070,0.02285767,-0.99769592,-0.305176,0.061035,0.183105
10518161458,0.00587463,0.01666260,-0.99095154,-0.305176,0.061035,0.183105
10520702750,0.00587463,0.01666260,-0.99095154,0.244141,0.183105,0.122070
10528292208,0.00415039,0.00843811,-0.99652100,0.244141,0.183105,0.122070
10530817500,0.00415039,0.00843811,-0.99652100,-0.183105,0.122070,0.061035
10538370208,0.00756836,0.00086975,-0.99470520,-0.183105,0.122070,0.061035
10540889000,0.00756836,0.00086975,-0.99470520,0.061035,0.305176,0.122070
10548487083,0.01119995,-0.00546265,-0.99569702,0.061035,0.305176,0.122070
10550729666,0.01119995,-0.00546265,-0.99569702,0.122070,0.122070,0.000000
10558313291,0.01506042,-0.01165771,-0.99763489,0.122070,0.122070,0.000000
10560853875,0.01506042,-0.01165771,-0.99763489,-0.061035,0.122070,-0.122070
10568455708,0.01673889,-0.01295471,-0.99182129,-0.061035,0.122070,-0.122070
10571012500,0.01673889,-0.01295471,-0.99182129,0.000000,0.000000,-0.183105
10577937333,0.01710510,-0.01028442,-0.99769592,0.000000,0.000000,-0.183105
10580303291,0.01710510,-0.01028442,-0.99769592,0.183105,0.122070,-0.244141
10587915750,0.01586914,-0.00642395,-0.99316406,0.183105,0.122070,-0.244141
10590469291,0.01586914,-0.00642395,-0.99316406,0.000000,0.183105,-0.183105
10598079958,0.01390076,-0.00077820,-0.99714661,0.000000,0.183105,-0.183105
10600638875,0.01390076,-0.00077820,-0.99714661,-0.122070,0.061035,-0.305176
10608256291,0.01210022,0.00570679,-0.99507141,-0.122070,0.061035,-0.305176
10610806625,0.01210022,0.00570679,-0.99507141,0.183105,0.183105,-0.122070
10618434958,0.01217651,0.01142883,-0.99597168,0.183105,0.183105,-0.122070
10621009708,0.01217651,0.01142883,-0.99597168,-0.061035,-0.061035,-0.183105
10628622333,0.01208496,0.01539612,-0.99562073,-0.061035,-0.061035,-0.183105
10631185083,0.01208496,0.01539612,-0.99562073,0.183105,0.122070,0.000000
10638790083,0.01142883,0.01637268,-0.99623108,0.183105,0.122070,0.000000
10641330833,0.01142883,0.01637268,-0.99623108,0.122070,0.183105,-0.061035
10648962375,0.01203918,0.01641846,-0.99729919,0.122070,0.183105,-0.061035
10651506750,0.01203918,0.01641846,-0.99729919,0.061035,0.061035,-0.061035
10659104416,0.01260376,0.01484680,-0.99513245,0.061035,0.061035,-0.061035
10661650333,0.01260376,0.01484680,-0.99513245,0.183105,0.183105,0.061035
10669299500,0.01245117,0.01239014,-0.99595642,0.000000,0.244141,-0.061035
10679446291,0.01280212,0.00793457,-0.99601746,0.122070,0.122070,0.000000
10689108250,0.01277161,0.00251770,-0.99633789,0.122070,0.122070,0.000000
10691632666,0.01277161,0.00251770,-0.99633789,0.000000,0.183105,-0.122070
10699194000,0.01383972,-0.00082397,-0.99508667,0.000000,0.183105,-0.122070
10701730250,0.01383972,-0.00082397,-0.99508667,0.061035,0.183105,-0.061035
10709405125,0.01325989,-0.00468445,-0.99659729,0.000000,0.183105,-0.122070
10719334500,0.01101685,-0.00605774,-0.99606323,0.122070,0.183105,-0.183105
10729488041,0.01063538,-0.00582886,-0.99592590,0.000000,0.183105,-0.244141
10739640291,0.01226807,-0.00161743,-0.99545288,0.000000,0.305176,-0.122070
10749819625,0.01232910,0.00453186,-0.99472046,0.122070,0.122070,-0.061035
10759838041,0.01194763,0.00930786,-0.99691772,0.122070,0.183105,-0.122070
10769983333,0.01206970,0.01364136,-0.99653625,0.122070,0.183105,-0.061035
10780157291,0.01274109,0.01745605,-0.99617004,0.000000,0.122070,-0.061035
10790312208,0.01257324,0.01802063,-0.99650574,0.061035,0.183105,0.000000
10800478791,0.01296997,0.01501465,-0.99459839,0.000000,0.244141,0.000000
10810632583,0.01358032,0.01115417,-0.99636841,0.061035,0.244141,-0.061035
10820788583,0.01347351,0.00529480,-0.99751282,0.061035,0.122070,-0.061035
10828405250,0.01374817,0.00148010,-0.99674988,0.061035,0.122070,-0.061035
10830954958,0.01374817,0.00148010,-0.99674988,0.122070,0.183105,-0.122070
10838560500,0.01239014,-0.00239563,-0.99644470,0.122070,0.183105,-0.122070
10840856833,0.01239014,-0.00239563,-0.99644470,0.061035,0.122070,0.061035
10848433458,0.01312256,-0.00543213,-0.99601746,0.061035,0.122070,0.061035
10850708208,0.01312256,-0.00543213,-0.99601746,0.183105,0.122070,-0.122070
10860876458,0.01206970,-0.00569153,-0.99629211,0.183105,0.183105,-0.183105
10868514250,0.01240540,-0.00364685,-0.99559021,0.183105,0.183105,-0.183105
10871069958,0.01240540,-0.00364685,-0.99559021,0.122070,0.183105,-0.122070
10880816458,0.01258850,-0.00128174,-0.99594116,0.183105,0.183105,-0.183105
10888405458,0.01318359,0.00219727,-0.99571228,0.183105,0.183105,-0.183105
10890982583,0.01318359,0.00219727,-0.99571228,0.122070,0.122070,-0.244141
10898587291,0.01316833,0.00611877,-0.99539185,0.122070,0.122070,-0.244141
10901130916,0.01316833,0.00611877,-0.99539185,0.000000,0.183105,-0.183105
10908719208,0.01211548,0.01142883,-0.99609375,0.000000,0.183105,-0.183105
10911261916,0.01211548,0.01142883,-0.99609375,0.061035,0.122070,-0.183105
10918884458,0.01072693,0.01405334,-0.99641418,0.061035,0.122070,-0.183105
10921449041,0.01072693,0.01405334,-0.99641418,0.000000,0.061035,-0.183105
10929070166,0.01069641,0.01472473,-0.99667358,0.000000,0.061035,-0.183105
10931618625,0.01069641,0.01472473,-0.99667358,0.061035,0.183105,-0.122070
10939231458,0.01181030,0.01416016,-0.99621582,0.061035,0.183105,-0.122070
10941655833,0.01181030,0.01416016,-0.99621582,0.061035,0.122070,0.061035
10949296375,0.01277161,0.01312256,-0.99615479,0.061035,0.122070,0.061035
