timestamp_ns,accel_x,accel_y,accel_z,gyro_x,gyro_y,gyro_z
100666250,0.01162720,0.00462341,-0.99777222,0.000000,0.122070,-0.244141
108746000,0.01162720,0.00462341,-0.99777222,0.061035,0.000000,-0.183105
111761166,0.01231384,0.00535583,-0.99552917,0.061035,0.000000,-0.183105
130405333,0.01187134,0.00653076,-0.99655151,0.000000,0.122070,-0.061035
133089166,0.01197815,0.00566101,-0.99546814,0.122070,0.183105,-0.061035
139414958,0.01231384,0.00645447,-0.99668884,0.122070,0.122070,0.000000
148100625,0.01345825,0.00688171,-0.99769592,0.122070,0.122070,0.000000
150728833,0.01345825,0.00688171,-0.99769592,0.000000,0.183105,-0.122070
158269541,0.01301575,0.00566101,-0.99507141,0.000000,0.183105,-0.122070
161423666,0.01301575,0.00566101,-0.99507141,0.061035,0.183105,0.000000
167675666,0.01405334,0.00442505,-0.99632263,0.061035,0.183105,0.000000
170197041,0.01405334,0.00442505,-0.99632263,0.061035,0.061035,-0.061035
180253500,0.01254272,0.00282288,-0.99615479,0.061035,0.122070,-0.183105
187782833,0.01332092,0.00216675,-0.99674988,0.061035,0.122070,-0.183105
190297916,0.01332092,0.00216675,-0.99674988,0.183105,0.244141,0.000000
197819375,0.01329041,0.00296021,-0.99522400,0.183105,0.244141,0.000000
200331166,0.01329041,0.00296021,-0.99522400,0.183105,0.122070,-0.183105
207870875,0.01293945,0.00314331,-0.99597168,0.183105,0.122070,-0.183105
210386291,0.01293945,0.00314331,-0.99597168,0.183105,0.183105,-0.183105
217922000,0.01254272,0.00369263,-0.99688721,0.183105,0.183105,-0.183105
220457666,0.01254272,0.00369263,-0.99688721,0.183105,0.183105,-0.244141
228014083,0.01272583,0.00509644,-0.99610901,0.183105,0.183105,-0.244141
230548833,0.01272583,0.00509644,-0.99610901,0.183105,0.061035,-0.061035
238124958,0.01106262,0.00625610,-0.99617004,0.183105,0.061035,-0.061035
240664416,0.01106262,0.00625610,-0.99617004,0.000000,0.122070,-0.122070
248222500,0.01039124,0.00663757,-0.99739075,0.000000,0.122070,-0.122070
250757666,0.01039124,0.00663757,-0.99739075,0.122070,0.061035,-0.122070
258332875,0.01126099,0.00827026,-0.99748230,0.122070,0.061035,-0.122070
260873291,0.01126099,0.00827026,-0.99748230,0.000000,0.061035,-0.061035
268465500,0.01181030,0.00946045,-0.99636841,0.000000,0.061035,-0.061035
271001291,0.01181030,0.00946045,-0.99636841,0.061035,0.244141,0.000000
278598125,0.01147461,0.00842285,-0.99629211,0.061035,0.244141,0.000000
281135791,0.01147461,0.00842285,-0.99629211,0.183105,0.122070,0.000000
288711708,0.01406860,0.00642395,-0.99700928,0.183105,0.122070,0.000000
291252083,0.01406860,0.00642395,-0.99700928,0.122070,0.183105,0.061035
298810416,0.01394653,0.00477600,-0.99507141,0.183105,0.244141,-0.061035
308894791,0.01219177,0.00407410,-0.99606323,0.000000,0.122070,-0.061035
318978041,0.01216125,0.00289917,-0.99607849,0.061035,0.183105,-0.061035
329061583,0.01252747,0.00183105,-0.99665833,0.000000,0.244141,0.000000
339171791,0.01147461,0.00193787,-0.99461365,0.122070,0.244141,-0.122070
349260416,0.01313782,0.00175476,-0.99713135,0.061035,0.183105,-0.061035
359345375,0.01387024,0.00218201,-0.99633789,0.122070,0.061035,-0.244141
369397708,0.01322937,0.00230408,-0.99665833,0.000000,0.183105,-0.061035
379454250,0.01179504,0.00390625,-0.99732971,0.183105,0.122070,-0.183105
389527916,0.01216125,0.00418091,-0.99630737,0.061035,0.183105,-0.122070
399637250,0.01327515,0.00424194,-0.99668884,0.061035,0.061035,-0.061035
409767708,0.01225281,0.00428772,-0.99722290,0.061035,0.305176,-0.061035
419882291,0.01303101,0.00399780,-0.99786377,0.061035,0.122070,-0.061035
429545083,0.01280212,0.00407410,-0.99673462,-0.061035,0.305176,-0.183105
439411750,0.01264954,0.00358582,-0.99597168,0.183105,0.183105,-0.122070
449357541,0.01286316,0.00523376,-0.99659729,0.122070,0.183105,-0.061035
459376708,0.01197815,0.00546265,-0.99649048,0.000000,0.244141,-0.061035
469513791,0.01158142,0.00576782,-0.99824524,0.000000,0.183105,0.061035
479647958,0.01081848,0.00588989,-0.99562073,0.244141,0.244141,-0.244141
489808416,0.01133728,0.00674438,-0.99510193,0.122070,0.183105,-0.061035
499952958,0.01245117,0.00703430,-0.99491882,0.122070,0.183105,0.000000
510117083,0.01194763,0.00596619,-0.99723816,0.000000,0.122070,-0.122070
519824166,0.01339722,0.00547791,-0.99700928,0.061035,0.183105,0.000000
529862833,0.01335144,0.00515747,-0.99665833,-0.061035,0.183105,-0.122070
539539875,0.01184082,0.00369263,-0.99708557,-0.061035,0.183105,-0.122070
542104333,0.01184082,0.00369263,-0.99708557,0.061035,0.122070,-0.122070
549409833,0.01283264,0.00262451,-0.99600220,0.061035,0.122070,-0.122070
551975708,0.01283264,0.00262451,-0.99600220,0.000000,0.122070,-0.244141
559522041,0.01365662,0.00239563,-0.99784851,0.000000,0.122070,-0.244141
562094625,0.01365662,0.00239563,-0.99784851,0.000000,0.183105,-0.122070
569842333,0.01461792,0.00131226,-0.99700928,-0.061035,0.244141,-0.122070
580045625,0.01417542,0.00125122,-0.99693298,0.000000,0.183105,-0.183105
590216958,0.01245117,0.00306702,-0.99548340,0.061035,0.122070,-0.122070
600351416,0.01200867,0.00354004,-0.99563599,0.000000,0.122070,-0.122070
610576333,0.01179504,0.00427246,-0.99618530,0.061035,0.122070,-0.061035
620713125,0.01280212,0.00547791,-0.99676514,0.122070,0.183105,-0.122070
630730833,0.01298523,0.00503540,-0.99618530,0.122070,0.183105,-0.122070
640727250,0.01287842,0.00514221,-0.99723816,0.122070,0.183105,-0.061035
650872708,0.01213074,0.00531006,-0.99720764,0.122070,0.122070,-0.122070
659329250,0.01083374,0.00556946,-0.99635315,0.122070,0.122070,-0.122070
661919750,0.01083374,0.00556946,-0.99635315,0.122070,0.183105,0.000000
669151291,0.01293945,0.00402832,-0.99607849,0.122070,0.183105,0.000000
671711166,0.01293945,0.00402832,-0.99607849,-0.061035,0.122070,-0.061035
686208583,0.01321411,0.00382996,-0.99726868,0.000000,0.183105,-0.183105
690923000,0.01315308,0.00299072,-0.99665833,-0.061035,0.122070,-0.061035
701118541,0.01261902,0.00331116,-0.99659729,0.000000,0.183105,-0.122070
710889666,0.01268005,0.00431824,-0.99580383,0.000000,0.122070,-0.183105
720993125,0.01222229,0.00459290,-0.99694824,0.061035,0.183105,-0.061035
731129541,0.01126099,0.00564575,-0.99671936,0.000000,0.183105,-0.122070
741274750,0.01190186,0.00628662,-0.99610901,0.000000,0.183105,-0.122070
751177041,0.01168823,0.00550842,-0.99526978,0.122070,0.183105,-0.061035
758728583,0.01313782,0.00498962,-0.99649048,0.122070,0.183105,-0.061035
761306166,0.01313782,0.00498962,-0.99649048,0.183105,0.305176,-0.061035
768891916,0.01292419,0.00532532,-0.99624634,0.183105,0.305176,-0.061035
771265375,0.01292419,0.00532532,-0.99624634,0.122070,0.122070,-0.061035
778830291,0.01289368,0.00473022,-0.99826050,0.122070,0.122070,-0.061035
781381541,0.01289368,0.00473022,-0.99826050,0.000000,0.244141,-0.183105
788976875,0.01216125,0.00346375,-0.99763489,0.000000,0.244141,-0.183105
791546583,0.01216125,0.00346375,-0.99763489,0.122070,0.122070,-0.122070
799496791,0.01289368,0.00294495,-0.99624634,0.122070,0.122070,-0.122070
801783541,0.01289368,0.00294495,-0.99624634,0.122070,0.122070,-0.122070
809688916,0.01275635,0.00257874,-0.99604797,0.122070,0.122070,-0.122070
812327791,0.01275635,0.00257874,-0.99604797,0.000000,0.122070,-0.061035
819479875,0.01173401,0.00271606,-0.99655151,0.000000,0.122070,-0.061035
822053458,0.01173401,0.00271606,-0.99655151,0.122070,0.183105,-0.122070
829318416,0.01176453,0.00393677,-0.99612427,0.122070,0.183105,-0.122070
831863875,0.01176453,0.00393677,-0.99612427,0.061035,0.183105,-0.183105
839436875,0.01284790,0.00398254,-0.99658203,0.061035,0.183105,-0.183105
841984458,0.01284790,0.00398254,-0.99658203,0.061035,0.061035,-0.061035
849574500,0.01255798,0.00582886,-0.99670410,0.061035,0.061035,-0.061035
852127416,0.01255798,0.00582886,-0.99670410,0.122070,0.122070,-0.183105
859704541,0.01269531,0.00668335,-0.99774170,0.122070,0.122070,-0.183105
862242833,0.01269531,0.00668335,-0.99774170,0.061035,0.061035,-0.244141
869829666,0.01226807,0.00628662,-0.99528503,0.061035,0.061035,-0.244141
872371833,0.01226807,0.00628662,-0.99528503,-0.061035,0.366211,-0.122070
879994708,0.01145935,0.00535583,-0.99693298,-0.061035,0.366211,-0.122070
882550833,0.01145935,0.00535583,-0.99693298,0.122070,0.183105,-0.122070
890196750,0.01284790,0.00564575,-0.99623108,0.122070,0.183105,-0.122070
892794583,0.01284790,0.00564575,-0.99623108,0.183105,0.183105,-0.061035
900412958,0.01332092,0.00398254,-0.99751282,0.244141,0.122070,-0.061035
910380833,0.01325989,0.00283813,-0.99697876,0.000000,0.183105,-0.122070
920294875,0.01271057,0.00294495,-0.99645996,0.000000,0.122070,0.000000
930302583,0.01264954,0.00360107,-0.99617004,0.000000,0.122070,0.000000
932855166,0.01264954,0.00360107,-0.99617004,0.061035,0.244141,-0.061035
940094125,0.01251221,0.00361633,-0.99642944,0.061035,0.244141,-0.061035
942631625,0.01251221,0.00361633,-0.99642944,0.061035,0.244141,-0.183105
949761416,0.01264954,0.00382996,-0.99617004,0.061035,0.244141,-0.183105
952284958,0.01264954,0.00382996,-0.99617004,0.000000,0.305176,-0.122070
959881208,0.01242065,0.00506592,-0.99595642,0.000000,0.305176,-0.122070
962431833,0.01242065,0.00506592,-0.99595642,0.000000,0.183105,-0.061035
970045416,0.01170349,0.00498962,-0.99693298,0.000000,0.183105,-0.061035
972595666,0.01170349,0.00498962,-0.99693298,0.061035,0.122070,0.122070
980212041,0.01277161,0.00503540,-0.99589539,0.061035,0.122070,0.122070
982756250,0.01277161,0.00503540,-0.99589539,0.122070,0.183105,-0.244141
990382375,0.01240540,0.00469971,-0.99641418,0.122070,0.183105,-0.244141
992946375,0.01240540,0.00469971,-0.99641418,0.000000,0.183105,-0.122070
1000556041,0.01185608,0.00459290,-0.99737549,0.000000,0.183105,-0.122070
1003107458,0.01185608,0.00459290,-0.99737549,0.061035,0.061035,-0.122070
1010623916,0.01217651,0.00389099,-0.99652100,0.061035,0.061035,-0.122070
1013167500,0.01217651,0.00389099,-0.99652100,0.061035,0.244141,-0.122070
1020771166,0.01275635,0.00485229,-0.99670410,0.061035,0.244141,-0.122070
1023331916,0.01275635,0.00485229,-0.99670410,0.244141,0.122070,-0.122070
1030976666,0.01237488,0.00450134,-0.99589539,0.061035,0.122070,-0.061035
1041020125,0.01235962,0.00402832,-0.99780273,0.000000,0.122070,-0.183105
1051167083,0.01210022,0.00442505,-0.99609375,0.122070,0.244141,-0.061035
1061314916,0.01329041,0.00399780,-0.99630737,0.061035,0.122070,-0.183105
1071425875,0.01287842,0.00396729,-0.99604797,0.122070,0.122070,-0.183105
1081355708,0.01287842,0.00491333,-0.99580383,0.122070,0.244141,-0.061035
1091380791,0.01263428,0.00498962,-0.99664307,0.000000,0.183105,-0.122070
1101443041,0.01249695,0.00463867,-0.99597168,0.061035,0.122070,-0.183105
1111592791,0.01222229,0.00469971,-0.99636841,0.000000,0.244141,-0.061035
1121428083,0.01246643,0.00469971,-0.99621582,0.061035,0.183105,0.000000
1131555500,0.01319885,0.00382996,-0.99778748,0.061035,0.244141,-0.122070
1141676916,0.01255798,0.00444031,-0.99740601,0.000000,0.061035,-0.061035
1151808541,0.01229858,0.00456238,-0.99717712,0.061035,0.244141,-0.122070
1161934250,0.01220703,0.00411987,-0.99694824,0.183105,0.061035,0.000000
1172095583,0.01144409,0.00495911,-0.99723816,0.244141,0.061035,-0.061035
1182244666,0.01342773,0.00541687,-0.99768066,0.122070,0.244141,0.000000
1192262916,0.01330566,0.00521851,-0.99627686,0.061035,0.122070,0.000000
1199876208,0.01307678,0.00457764,-0.99662781,0.061035,0.122070,0.000000
1202422458,0.01307678,0.00457764,-0.99662781,0.000000,0.183105,-0.122070
1210020083,0.01287842,0.00451660,-0.99621582,0.000000,0.183105,-0.122070
1212571708,0.01287842,0.00451660,-0.99621582,0.061035,0.183105,0.000000
1222379500,0.01208496,0.00407410,-0.99649048,0.000000,0.183105,-0.122070
1229977708,0.01228333,0.00352478,-0.99673462,0.000000,0.183105,-0.122070
1232533708,0.01228333,0.00352478,-0.99673462,0.061035,0.061035,-0.061035
1240106416,0.01208496,0.00361633,-0.99694824,0.061035,0.061035,-0.061035
1242681541,0.01208496,0.00361633,-0.99694824,0.000000,0.244141,-0.061035
1250290958,0.01223755,0.00390625,-0.99655151,0.000000,0.244141,-0.061035
1252835625,0.01223755,0.00390625,-0.99655151,0.000000,0.244141,-0.122070
1260446958,0.01239014,0.00375366,-0.99678040,0.000000,0.244141,-0.122070
1262979375,0.01239014,0.00375366,-0.99678040,0.061035,0.000000,-0.061035
1270526708,0.01272583,0.00366211,-0.99682617,0.061035,0.000000,-0.061035
1272779916,0.01272583,0.00366211,-0.99682617,0.000000,0.122070,0.000000
1280394166,0.01292419,0.00430298,-0.99600220,0.000000,0.122070,0.000000
1282945875,0.01292419,0.00430298,-0.99600220,0.061035,0.122070,-0.061035
1290537500,0.01271057,0.00405884,-0.99555969,0.061035,0.122070,-0.061035
1293077833,0.01271057,0.00405884,-0.99555969,0.061035,0.183105,-0.061035
1300684083,0.01176453,0.00491333,-0.99588013,0.061035,0.183105,-0.061035
1303227541,0.01176453,0.00491333,-0.99588013,-0.061035,0.061035,0.000000
1310818708,0.01196289,0.00532532,-0.99691772,-0.061035,0.061035,0.000000
1313375291,0.01196289,0.00532532,-0.99691772,0.122070,0.183105,-0.061035
1320999000,0.01258850,0.00508118,-0.99682617,0.122070,0.183105,-0.061035
1323544000,0.01258850,0.00508118,-0.99682617,0.061035,0.183105,-0.122070
1331136500,0.01170349,0.00509644,-0.99580383,0.061035,0.183105,-0.122070
1333704750,0.01170349,0.00509644,-0.99580383,0.061035,0.244141,-0.061035
1341323500,0.01237488,0.00502014,-0.99723816,0.000000,0.061035,-0.122070
1351445750,0.01257324,0.00555420,-0.99682617,0.000000,0.061035,-0.122070
1354073250,0.01257324,0.00555420,-0.99682617,0.061035,0.122070,-0.061035
1361694916,0.01315308,0.00404358,-0.99720764,0.061035,0.122070,-0.061035
1364238250,0.01315308,0.00404358,-0.99720764,0.061035,0.183105,-0.183105
1371897125,0.01342773,0.00308228,-0.99626160,0.061035,0.244141,-0.122070
1381920125,0.01255798,0.00379944,-0.99584961,0.000000,0.183105,0.000000
1392012125,0.01246643,0.00382996,-0.99562073,0.122070,0.122070,-0.183105
1402142333,0.01261902,0.00245667,-0.99697876,0.122070,0.244141,-0.122070
1412270458,0.01237488,0.00369263,-0.99708557,0.122070,0.183105,-0.183105
1422397625,0.01275635,0.00500488,-0.99719238,0.183105,0.122070,-0.122070
1432580125,0.01246643,0.00460815,-0.99790955,0.061035,0.183105,-0.244141
1442771375,0.01133728,0.00532532,-0.99665833,0.000000,0.122070,-0.061035
1452452291,0.01303101,0.00524902,-0.99786377,-0.122070,0.122070,-0.061035
1462666541,0.01300049,0.00492859,-0.99612427,0.183105,0.000000,-0.183105
1472763958,0.01194763,0.00544739,-0.99693298,0.061035,0.122070,0.000000
1482898583,0.01121521,0.00465393,-0.99588013,0.244141,0.305176,0.000000
1493026125,0.01205444,0.00488281,-0.99714661,0.061035,0.122070,0.000000
1503154125,0.01181030,0.00482178,-0.99707031,0.061035,0.122070,-0.061035
1510796583,0.01239014,0.00361633,-0.99684143,0.061035,0.122070,-0.061035
1513357708,0.01239014,0.00361633,-0.99684143,0.122070,0.244141,-0.122070
1520966375,0.01205444,0.00384521,-0.99694824,0.122070,0.244141,-0.122070
1523509000,0.01205444,0.00384521,-0.99694824,0.061035,0.244141,-0.061035
1531133625,0.01203918,0.00396729,-0.99696350,0.061035,0.244141,-0.061035
1533676541,0.01203918,0.00396729,-0.99696350,0.122070,0.061035,-0.244141
1541232458,0.01293945,0.00421143,-0.99661255,0.122070,0.061035,-0.244141
1543755666,0.01293945,0.00421143,-0.99661255,0.061035,0.305176,-0.122070
1551326958,0.01266479,0.00521851,-0.99588013,0.061035,0.305176,-0.122070
1553885166,0.01266479,0.00521851,-0.99588013,0.122070,0.122070,-0.061035
1561465750,0.01173401,0.00601196,-0.99685669,0.122070,0.122070,-0.061035
1564063791,0.01173401,0.00601196,-0.99685669,0.061035,0.305176,-0.061035
1571251250,0.01225281,0.00453186,-0.99822998,0.061035,0.305176,-0.061035
1573797541,0.01225281,0.00453186,-0.99822998,0.122070,0.183105,0.000000
1581383375,0.01177979,0.00360107,-0.99563599,0.122070,0.183105,0.000000
1583925916,0.01177979,0.00360107,-0.99563599,0.061035,0.183105,-0.244141
1591535250,0.01229858,0.00431824,-0.99729919,0.061035,0.183105,-0.244141
1594082166,0.01229858,0.00431824,-0.99729919,-0.061035,0.244141,-0.122070
1601675583,0.01182556,0.00535583,-0.99731445,-0.061035,0.244141,-0.122070
1603834708,0.01182556,0.00535583,-0.99731445,0.122070,0.244141,-0.183105
1611430625,0.01133728,0.00460815,-0.99789429,0.122070,0.244141,-0.183105
1613973458,0.01133728,0.00460815,-0.99789429,0.061035,0.122070,-0.122070
1621564125,0.01298523,0.00321960,-0.99627686,0.061035,0.122070,-0.122070
1624102625,0.01298523,0.00321960,-0.99627686,0.061035,0.122070,-0.061035
1631705750,0.01290894,0.00373840,-0.99647522,0.061035,0.122070,-0.061035
1634255791,0.01290894,0.00373840,-0.99647522,0.061035,0.244141,-0.061035
1641855958,0.01309204,0.00534058,-0.99716187,0.061035,0.244141,-0.061035
1644088958,0.01309204,0.00534058,-0.99716187,0.122070,0.122070,-0.122070
1651704625,0.01298523,0.00492859,-0.99765015,0.122070,0.122070,-0.122070
1654255416,0.01298523,0.00492859,-0.99765015,0.061035,0.244141,-0.061035
1661842125,0.01235962,0.00444031,-0.99726868,0.061035,0.244141,-0.061035
1664391500,0.01235962,0.00444031,-0.99726868,0.000000,0.122070,-0.061035
1672026791,0.01226807,0.00447083,-0.99664307,0.000000,0.122070,-0.061035
1674573166,0.01226807,0.00447083,-0.99664307,0.122070,0.122070,-0.122070
1682186458,0.01133728,0.00434875,-0.99681091,0.122070,0.061035,-0.061035
1692294583,0.01205444,0.00474548,-0.99713135,0.122070,0.122070,-0.122070
1702075041,0.01148987,0.00445557,-0.99620056,0.122070,0.122070,-0.122070
1704618083,0.01148987,0.00445557,-0.99620056,-0.122070,0.122070,-0.122070
1712206291,0.01237488,0.00495911,-0.99607849,0.061035,0.183105,-0.122070
1722304875,0.01213074,0.00411987,-0.99751282,0.000000,0.183105,-0.183105
1732444291,0.01217651,0.00410461,-0.99705505,-0.061035,0.244141,-0.061035
1742322625,0.01400757,0.00425720,-0.99537659,0.061035,0.183105,-0.122070
1752505208,0.01269531,0.00456238,-0.99812317,0.061035,0.061035,-0.122070
1762652291,0.01112366,0.00332642,-0.99690247,0.061035,0.122070,-0.061035
1772802708,0.01242065,0.00405884,-0.99644470,0.122070,0.183105,-0.122070
1782738708,0.01281738,0.00494385,-0.99581909,0.122070,0.183105,-0.122070
1785278208,0.01281738,0.00494385,-0.99581909,0.000000,0.244141,-0.061035
1792895625,0.01263428,0.00474548,-0.99707031,-0.061035,0.183105,-0.122070
1803015750,0.01177979,0.00396729,-0.99658203,0.122070,0.122070,-0.061035
1813134458,0.01211548,0.00439453,-0.99699402,0.122070,0.122070,-0.122070
1823258125,0.01325989,0.00457764,-0.99682617,0.122070,0.122070,-0.122070
1833313416,0.01135254,0.00424194,-0.99667358,0.122070,0.122070,-0.183105
1843468541,0.01161194,0.00489807,-0.99678040,0.000000,0.122070,-0.122070
1853205416,0.01296997,0.00474548,-0.99635315,0.122070,0.244141,-0.183105
1863324000,0.01235962,0.00436401,-0.99673462,0.122070,0.183105,-0.061035
1873488416,0.01206970,0.00447083,-0.99653625,0.000000,0.183105,-0.061035
1883636000,0.01293945,0.00419617,-0.99673462,0.000000,0.000000,-0.061035
1893837125,0.01290894,0.00471497,-0.99745178,0.122070,0.122070,0.000000
1903989375,0.01208496,0.00534058,-0.99749756,0.122070,0.122070,-0.122070
1914107875,0.01252747,0.00492859,-0.99758911,0.122070,0.061035,-0.061035
1923826583,0.01271057,0.00540161,-0.99668884,0.122070,0.183105,-0.061035
1933973250,0.01208496,0.00422668,-0.99716187,0.000000,0.183105,0.000000
1943927625,0.01145935,0.00425720,-0.99621582,-0.061035,0.244141,-0.122070
1953622458,0.01266479,0.00415039,-0.99629211,0.122070,0.122070,-0.061035
1963760833,0.01202393,0.00389099,-0.99739075,-0.061035,0.183105,0.000000
1973390458,0.01153564,0.00332642,-0.99671936,0.000000,0.244141,0.000000
1983448333,0.01301575,0.00379944,-0.99607849,-0.061035,0.244141,-0.061035
1993315666,0.01330566,0.00384521,-0.99613953,-0.061035,0.061035,-0.122070
2003431000,0.01174927,0.00373840,-0.99755859,0.122070,0.244141,-0.122070
2013508083,0.01235962,0.00462341,-0.99714661,-0.061035,0.183105,-0.122070
2023648583,0.01315308,0.00466919,-0.99766541,0.000000,0.122070,-0.122070
2033804291,0.01220703,0.00479126,-0.99740601,0.122070,0.122070,-0.122070
2043710708,0.01220703,0.00436401,-0.99667358,0.122070,0.122070,-0.183105
2053898083,0.01237488,0.00401306,-0.99609375,0.122070,0.122070,-0.244141
2064028375,0.01167297,0.00401306,-0.99684143,0.122070,0.244141,-0.183105
2073944291,0.01232910,0.00433350,-0.99705505,0.061035,0.244141,-0.122070
2083404708,0.01272583,0.00448608,-0.99597168,0.061035,0.183105,-0.061035
2093632250,0.01254272,0.00378418,-0.99801636,0.061035,0.122070,-0.305176
2103809916,0.01220703,0.00422668,-0.99691772,0.122070,0.305176,-0.122070
2114163416,0.01158142,0.00366211,-0.99652100,0.183105,0.244141,-0.122070
2121921875,0.01264954,0.00437927,-0.99659729,0.183105,0.244141,-0.122070
2124104916,0.01264954,0.00437927,-0.99659729,0.061035,0.122070,0.061035
2134284000,0.01210022,0.00505066,-0.99725342,0.000000,0.000000,-0.122070
2141943416,0.01202393,0.00474548,-0.99858093,0.000000,0.000000,-0.122070
2144504666,0.01202393,0.00474548,-0.99858093,-0.061035,0.061035,-0.183105
2152135291,0.01156616,0.00444031,-0.99665833,-0.061035,0.061035,-0.183105
2154689791,0.01156616,0.00444031,-0.99665833,0.061035,0.061035,-0.061035
2162261125,0.01301575,0.00456238,-0.99682617,0.061035,0.061035,-0.061035
2164789791,0.01301575,0.00456238,-0.99682617,0.061035,0.244141,-0.061035
2172388583,0.01248169,0.00430298,-0.99655151,0.061035,0.244141,-0.061035
2174953916,0.01248169,0.00430298,-0.99655151,0.183105,0.244141,-0.061035
2182543000,0.01094055,0.00503540,-0.99832153,0.183105,0.244141,-0.061035
2185086791,0.01094055,0.00503540,-0.99832153,0.000000,0.244141,-0.061035
2192707375,0.01177979,0.00494385,-0.99612427,0.000000,0.244141,-0.061035
2195279666,0.01177979,0.00494385,-0.99612427,0.061035,0.000000,-0.183105
2202879083,0.01307678,0.00563049,-0.99694824,0.061035,0.000000,-0.183105
2205409333,0.01307678,0.00563049,-0.99694824,0.061035,0.122070,-0.122070
2212985750,0.01188660,0.00460815,-0.99743652,0.061035,0.122070,-0.122070
2215526041,0.01188660,0.00460815,-0.99743652,0.183105,0.183105,-0.122070
2223106041,0.01271057,0.00415039,-0.99658203,0.183105,0.183105,-0.122070
2225408625,0.01271057,0.00415039,-0.99658203,0.122070,0.183105,-0.122070
2233010791,0.01269531,0.00358582,-0.99528503,0.122070,0.183105,-0.122070
2235553333,0.01269531,0.00358582,-0.99528503,-0.061035,0.000000,-0.061035
2243186458,0.01298523,0.00291443,-0.99603271,-0.061035,0.000000,-0.061035
2245734000,0.01298523,0.00291443,-0.99603271,0.061035,0.122070,-0.061035
2253318458,0.01252747,0.00271606,-0.99716187,0.061035,0.122070,-0.061035
2255856208,0.01252747,0.00271606,-0.99716187,0.000000,0.183105,-0.183105
2263456791,0.01358032,0.00341797,-0.99629211,0.000000,0.183105,-0.183105
2265995791,0.01358032,0.00341797,-0.99629211,-0.061035,0.122070,-0.244141
2273483791,0.01283264,0.00343323,-0.99710083,-0.061035,0.122070,-0.244141
2275813458,0.01283264,0.00343323,-0.99710083,0.061035,0.122070,-0.061035
2283452958,0.01193237,0.00387573,-0.99638367,0.061035,0.122070,-0.061035
2286002875,0.01193237,0.00387573,-0.99638367,0.061035,0.183105,-0.122070
2293602166,0.01268005,0.00596619,-0.99638367,0.061035,0.183105,-0.122070
2296140916,0.01268005,0.00596619,-0.99638367,0.122070,0.305176,-0.122070
2303759416,0.01091003,0.00613403,-0.99708557,0.122070,0.305176,-0.122070
2306312208,0.01091003,0.00613403,-0.99708557,0.000000,0.122070,-0.183105
2313904083,0.01156616,0.00616455,-0.99534607,0.000000,0.183105,-0.061035
2324013458,0.01249695,0.00547791,-0.99647522,0.061035,0.183105,-0.061035
2334027333,0.01295471,0.00544739,-0.99726868,0.061035,0.244141,-0.061035
2344269708,0.01370239,0.00405884,-0.99693298,0.061035,0.122070,-0.061035
2354386833,0.01324463,0.00337219,-0.99630737,0.061035,0.183105,-0.122070
2364587958,0.01231384,0.00354004,-0.99691772,-0.061035,0.183105,0.000000
2374473708,0.01156616,0.00314331,-0.99604797,0.000000,0.183105,-0.061035
2384597541,0.01190186,0.00431824,-0.99636841,0.122070,0.244141,-0.061035
2394714041,0.01206970,0.00473022,-0.99667358,0.061035,0.122070,-0.183105
2404849500,0.01283264,0.00422668,-0.99685669,0.122070,0.183105,-0.122070
2414995375,0.01132202,0.00543213,-0.99739075,0.061035,0.122070,0.061035
2425017416,0.01167297,0.00508118,-0.99632263,0.061035,0.183105,0.000000
2435146083,0.01266479,0.00531006,-0.99713135,0.061035,0.122070,0.000000
2445304250,0.01316833,0.00587463,-0.99626160,0.122070,0.183105,-0.183105
2452904250,0.01162720,0.00476074,-0.99665833,0.122070,0.183105,-0.183105
2455470916,0.01162720,0.00476074,-0.99665833,0.000000,0.122070,-0.061035
2462835250,0.01280212,0.00437927,-0.99656677,0.000000,0.122070,-0.061035
2465359166,0.01280212,0.00437927,-0.99656677,0.061035,0.122070,-0.061035
2472934750,0.01399231,0.00305176,-0.99638367,0.061035,0.122070,-0.061035
2475458458,0.01399231,0.00305176,-0.99638367,-0.061035,0.305176,-0.122070
2483077375,0.01333618,0.00369263,-0.99731445,-0.061035,0.305176,-0.122070
2485636583,0.01333618,0.00369263,-0.99731445,0.183105,0.183105,-0.122070
2492848625,0.01211548,0.00492859,-0.99761963,0.183105,0.183105,-0.122070
2495392500,0.01211548,0.00492859,-0.99761963,0.061035,0.244141,0.000000
2502980750,0.01271057,0.00515747,-0.99751282,0.061035,0.244141,0.000000
2505547291,0.01271057,0.00515747,-0.99751282,0.000000,0.122070,-0.061035
2513144291,0.01292419,0.00419617,-0.99617004,0.000000,0.122070,-0.061035
2515686208,0.01292419,0.00419617,-0.99617004,0.061035,0.244141,0.000000
2523295041,0.01237488,0.00512695,-0.99667358,0.061035,0.244141,0.000000
2525839583,0.01237488,0.00512695,-0.99667358,-0.061035,0.183105,-0.122070
2533029916,0.01252747,0.00531006,-0.99632263,-0.061035,0.183105,-0.122070
2535569625,0.01252747,0.00531006,-0.99632263,0.122070,0.122070,-0.061035
2543188541,0.01313782,0.00460815,-0.99618530,0.122070,0.122070,-0.061035
2545410041,0.01313782,0.00460815,-0.99618530,0.061035,0.183105,-0.122070
2553019291,0.01257324,0.00431824,-0.99658203,0.061035,0.183105,-0.122070
2555575958,0.01257324,0.00431824,-0.99658203,0.122070,0.244141,-0.122070
2563203166,0.01246643,0.00457764,-0.99571228,0.122070,0.244141,-0.122070
2565752500,0.01246643,0.00457764,-0.99571228,0.183105,0.244141,-0.061035
2573355083,0.01197815,0.00434875,-0.99531555,0.183105,0.244141,-0.061035
2575896333,0.01197815,0.00434875,-0.99531555,0.061035,0.061035,0.000000
2583483791,0.01278687,0.00439453,-0.99627686,0.061035,0.061035,0.000000
2586029916,0.01278687,0.00439453,-0.99627686,0.000000,0.183105,-0.122070
2593622458,0.01213074,0.00433350,-0.99708557,0.000000,0.183105,-0.122070
2596165625,0.01213074,0.00433350,-0.99708557,0.000000,0.122070,-0.122070
2603768541,0.01286316,0.00402832,-0.99656677,0.000000,0.122070,-0.122070
2606326541,0.01286316,0.00402832,-0.99656677,0.000000,0.061035,-0.061035
2613936916,0.01312256,0.00415039,-0.99667358,0.000000,0.061035,-0.061035
2616493875,0.01312256,0.00415039,-0.99667358,-0.122070,0.122070,-0.122070
2624074500,0.01234436,0.00523376,-0.99755859,-0.122070,0.122070,-0.122070
2626616583,0.01234436,0.00523376,-0.99755859,0.061035,0.061035,0.000000
2634189708,0.01296997,0.00492859,-0.99636841,0.061035,0.061035,0.000000
2636745791,0.01296997,0.00492859,-0.99636841,-0.061035,0.183105,-0.122070
2643936083,0.01258850,0.00480652,-0.99684143,-0.061035,0.183105,-0.122070
2646475500,0.01258850,0.00480652,-0.99684143,-0.061035,0.183105,0.000000
2654076125,0.01231384,0.00473022,-0.99562073,-0.061035,0.183105,0.000000
2656626041,0.01231384,0.00473022,-0.99562073,0.122070,0.183105,-0.061035
2664221416,0.01278687,0.00398254,-0.99670410,0.122070,0.183105,-0.061035
2666765916,0.01278687,0.00398254,-0.99670410,0.000000,0.122070,-0.122070
2674452166,0.01213074,0.00337219,-0.99650574,0.000000,0.122070,-0.122070
2676994166,0.01213074,0.00337219,-0.99650574,0.122070,0.183105,-0.061035
2684585875,0.01264954,0.00291443,-0.99671936,0.122070,0.183105,-0.061035
2687129083,0.01264954,0.00291443,-0.99671936,0.061035,0.122070,-0.122070
2694060750,0.01307678,0.00311279,-0.99690247,0.061035,0.122070,-0.122070
2696604458,0.01307678,0.00311279,-0.99690247,0.061035,0.183105,-0.122070
2704190333,0.01245117,0.00425720,-0.99595642,0.061035,0.183105,-0.122070
2706730125,0.01245117,0.00425720,-0.99595642,0.000000,0.122070,-0.122070
2714328708,0.01315308,0.00492859,-0.99674988,0.000000,0.122070,-0.122070
2716865458,0.01315308,0.00492859,-0.99674988,0.061035,0.183105,-0.061035
2724475166,0.01240540,0.00392151,-0.99615479,0.061035,0.183105,-0.061035
2727016541,0.01240540,0.00392151,-0.99615479,0.061035,0.122070,0.000000
2734627500,0.01219177,0.00502014,-0.99722290,0.061035,0.122070,0.000000
2737172833,0.01219177,0.00502014,-0.99722290,0.061035,0.244141,-0.122070
2744803791,0.01243591,0.00584412,-0.99552917,-0.061035,0.244141,-0.122070
2754958708,0.01301575,0.00492859,-0.99618530,-0.122070,0.122070,-0.122070
2765185625,0.01286316,0.00506592,-0.99728394,0.122070,0.183105,-0.122070
2775288541,0.01284790,0.00515747,-0.99777222,-0.061035,0.122070,-0.122070
2785152333,0.01365662,0.00389099,-0.99630737,0.061035,0.244141,0.000000
2795315625,0.01216125,0.00347900,-0.99641418,0.000000,0.122070,-0.122070
2805458666,0.01211548,0.00416565,-0.99594116,-0.061035,0.061035,-0.061035
2815426083,0.01380920,0.00413513,-0.99697876,0.061035,0.061035,-0.061035
2824907125,0.01280212,0.00418091,-0.99702454,0.122070,0.122070,-0.122070
2835084791,0.01289368,0.00456238,-0.99649048,0.000000,0.122070,-0.122070
2845238500,0.01260376,0.00469971,-0.99594116,0.061035,0.244141,-0.061035
2855374041,0.01200867,0.00480652,-0.99688721,0.000000,0.061035,-0.061035
2865584458,0.01216125,0.00503540,-0.99714661,0.122070,0.244141,0.000000
2875721166,0.01121521,0.00561523,-0.99861145,0.122070,0.305176,-0.061035
2885876625,0.01136780,0.00480652,-0.99574280,0.122070,0.244141,-0.122070
2896016958,0.01258850,0.00479126,-0.99636841,0.061035,0.122070,-0.061035
2906170458,0.01307678,0.00535583,-0.99552917,0.000000,0.305176,-0.061035
2913800958,0.01304626,0.00465393,-0.99702454,0.000000,0.305176,-0.061035
2915861958,0.01304626,0.00465393,-0.99702454,0.061035,0.183105,-0.183105
2925986916,0.01200867,0.00386047,-0.99543762,-0.061035,0.183105,0.000000
2936088333,0.01260376,0.00369263,-0.99618530,0.061035,0.183105,0.000000
2945669750,0.01319885,0.00337219,-0.99694824,0.122070,0.244141,-0.061035
2955168916,0.01119995,0.00340271,-0.99729919,-0.061035,0.183105,-0.061035
2965254541,0.01182556,0.00376892,-0.99691772,0.183105,0.183105,-0.122070
2975375541,0.01210022,0.00396729,-0.99658203,0.061035,0.122070,-0.122070
2985363666,0.01182556,0.00395203,-0.99681091,0.183105,0.122070,-0.122070
2995499083,0.01237488,0.00526428,-0.99720764,0.000000,0.000000,-0.061035
3005628916,0.01281738,0.00526428,-0.99717712,0.000000,0.244141,-0.061035
3015749875,0.01316833,0.00552368,-0.99800110,0.183105,0.244141,-0.122070
3025919208,0.01290894,0.00454712,-0.99673462,0.061035,0.122070,-0.122070
3036046583,0.01235962,0.00320435,-0.99766541,0.122070,0.183105,-0.061035
3046201958,0.01208496,0.00398254,-0.99659729,0.122070,0.183105,-0.061035
3056322250,0.01281738,0.00437927,-0.99742126,0.000000,0.122070,-0.122070
3066482333,0.01274109,0.00378418,-0.99612427,-0.061035,0.183105,0.061035
3076656791,0.01133728,0.00396729,-0.99618530,0.061035,0.061035,0.000000
3086609291,0.01147461,0.00384521,-0.99685669,-0.061035,0.183105,0.000000
3094192916,0.01174927,0.00434875,-0.99777222,-0.061035,0.183105,0.000000
3096747958,0.01174927,0.00434875,-0.99777222,0.061035,0.122070,-0.183105
3106410666,0.01225281,0.00494385,-0.99697876,0.061035,0.305176,-0.244141
3116525291,0.01254272,0.00413513,-0.99696350,0.061035,0.061035,-0.122070
3126653958,0.01292419,0.00444031,-0.99742126,0.000000,0.122070,-0.183105
3134294208,0.01177979,0.00502014,-0.99652100,0.000000,0.122070,-0.183105
3136847000,0.01177979,0.00502014,-0.99652100,0.061035,0.183105,-0.061035
3144505083,0.01165771,0.00448608,-0.99682617,0.061035,0.183105,-0.061035
3147044208,0.01165771,0.00448608,-0.99682617,0.061035,0.244141,-0.122070
3154668125,0.01177979,0.00332642,-0.99725342,0.061035,0.244141,-0.122070
3157220458,0.01177979,0.00332642,-0.99725342,0.000000,0.122070,-0.183105
3164861875,0.01176453,0.00378418,-0.99740601,0.000000,0.122070,-0.183105
3167412333,0.01176453,0.00378418,-0.99740601,0.061035,0.122070,-0.061035
3174796208,0.01217651,0.00402832,-0.99685669,0.061035,0.122070,-0.061035
3177340333,0.01217651,0.00402832,-0.99685669,0.122070,0.305176,-0.244141
3184957875,0.01268005,0.00462341,-0.99642944,0.122070,0.305176,-0.244141
3187503833,0.01268005,0.00462341,-0.99642944,0.061035,0.061035,-0.122070
3195094916,0.01235962,0.00447083,-0.99661255,0.061035,0.061035,-0.122070
3197635875,0.01235962,0.00447083,-0.99661255,0.000000,0.122070,-0.122070
3205220250,0.01182556,0.00473022,-0.99623108,0.000000,0.122070,-0.122070
3207777750,0.01182556,0.00473022,-0.99623108,0.061035,0.244141,-0.122070
3215372416,0.01225281,0.00434875,-0.99685669,0.061035,0.244141,-0.122070
3217413708,0.01225281,0.00434875,-0.99685669,0.183105,0.183105,-0.122070
3225004083,0.01205444,0.00506592,-0.99710083,0.183105,0.183105,-0.122070
3227576000,0.01205444,0.00506592,-0.99710083,0.183105,0.000000,0.000000
3237216083,0.01231384,0.00491333,-0.99690247,0.061035,0.000000,-0.122070
3244784708,0.01289368,0.00527954,-0.99581909,0.061035,0.000000,-0.122070
3247321375,0.01289368,0.00527954,-0.99581909,0.000000,0.061035,-0.122070
3256989416,0.01304626,0.00372314,-0.99617004,0.122070,0.122070,-0.061035
3266703041,0.01342773,0.00361633,-0.99688721,0.061035,0.122070,-0.183105
3276556291,0.01338196,0.00369263,-0.99659729,0.183105,0.183105,-0.183105
3286684208,0.01260376,0.00460815,-0.99551392,0.000000,0.061035,-0.122070
3296828125,0.01289368,0.00502014,-0.99617004,0.122070,0.122070,0.000000
3306967416,0.01220703,0.00370789,-0.99758911,0.183105,0.122070,-0.061035
3317108166,0.01147461,0.00465393,-0.99659729,0.061035,0.183105,-0.061035
3324723583,0.01138306,0.00505066,-0.99737549,0.061035,0.183105,-0.061035
3327263791,0.01138306,0.00505066,-0.99737549,0.000000,0.305176,0.000000
3334776041,0.01251221,0.00515747,-0.99678040,0.000000,0.305176,0.000000
3337328208,0.01251221,0.00515747,-0.99678040,0.061035,0.061035,-0.122070
3344919458,0.01225281,0.00444031,-0.99673462,0.061035,0.061035,-0.122070
3347475333,0.01225281,0.00444031,-0.99673462,0.122070,0.244141,-0.061035
3355102791,0.01268005,0.00413513,-0.99729919,0.122070,0.244141,-0.061035
3357649583,0.01268005,0.00413513,-0.99729919,0.061035,0.305176,-0.061035
3364911666,0.01275635,0.00421143,-0.99627686,0.061035,0.305176,-0.061035
3367460791,0.01275635,0.00421143,-0.99627686,0.061035,0.122070,-0.122070
3375058375,0.01240540,0.00352478,-0.99691772,0.061035,0.122070,-0.122070
3377607000,0.01240540,0.00352478,-0.99691772,0.000000,0.183105,-0.122070
3385152583,0.01200867,0.00375366,-0.99697876,0.000000,0.183105,-0.122070
3387707750,0.01200867,0.00375366,-0.99697876,0.000000,0.244141,-0.061035
3395302916,0.01313782,0.00408936,-0.99681091,0.000000,0.244141,-0.061035
3397838875,0.01313782,0.00408936,-0.99681091,0.122070,0.244141,-0.122070
3405432791,0.01351929,0.00419617,-0.99627686,0.122070,0.244141,-0.122070
3407980125,0.01351929,0.00419617,-0.99627686,0.122070,0.244141,-0.122070
3415591791,0.01263428,0.00415039,-0.99577332,0.122070,0.244141,-0.122070
3418135458,0.01263428,0.00415039,-0.99577332,0.183105,0.122070,-0.122070
3425747208,0.01257324,0.00422668,-0.99688721,0.183105,0.122070,-0.122070
3428306875,0.01257324,0.00422668,-0.99688721,-0.061035,0.183105,-0.122070
3435910333,0.01206970,0.00476074,-0.99638367,-0.061035,0.183105,-0.122070
3438131666,0.01206970,0.00476074,-0.99638367,0.183105,0.122070,0.061035
3445736625,0.01191711,0.00546265,-0.99684143,0.183105,0.122070,0.061035
3448279000,0.01191711,0.00546265,-0.99684143,0.122070,0.183105,0.000000
3455876541,0.01347351,0.00498962,-0.99612427,0.122070,0.183105,0.000000
3458423583,0.01347351,0.00498962,-0.99612427,0.183105,0.122070,-0.061035
3466015333,0.01268005,0.00451660,-0.99693298,0.183105,0.122070,-0.061035
3468068875,0.01268005,0.00451660,-0.99693298,0.061035,0.244141,-0.061035
3475601833,0.01226807,0.00460815,-0.99650574,0.061035,0.244141,-0.061035
3478141583,0.01226807,0.00460815,-0.99650574,0.000000,0.244141,-0.061035
3485736541,0.01196289,0.00331116,-0.99699402,0.000000,0.244141,-0.061035
3488275916,0.01196289,0.00331116,-0.99699402,0.000000,0.061035,-0.061035
3495881916,0.01268005,0.00375366,-0.99703979,0.000000,0.061035,-0.061035
3498423208,0.01268005,0.00375366,-0.99703979,0.061035,0.061035,-0.061035
3506025916,0.01272583,0.00323486,-0.99719238,0.061035,0.061035,-0.061035
3508567750,0.01272583,0.00323486,-0.99719238,0.000000,0.244141,-0.122070
3516170416,0.01309204,0.00286865,-0.99609375,0.000000,0.244141,-0.122070
3518711583,0.01309204,0.00286865,-0.99609375,0.000000,0.183105,-0.061035
3526339750,0.01272583,0.00404358,-0.99674988,0.000000,0.183105,-0.061035
3528891208,0.01272583,0.00404358,-0.99674988,0.061035,0.183105,-0.122070
3536302166,0.01211548,0.00489807,-0.99691772,0.061035,0.183105,-0.122070
3538839041,0.01211548,0.00489807,-0.99691772,0.122070,0.183105,0.061035
3546439041,0.01275635,0.00517273,-0.99633789,0.122070,0.183105,0.061035
3548973625,0.01275635,0.00517273,-0.99633789,0.183105,0.183105,-0.122070
3556530916,0.01231384,0.00485229,-0.99705505,0.183105,0.183105,-0.122070
3559053291,0.01231384,0.00485229,-0.99705505,0.000000,0.183105,-0.061035
3566480750,0.01095581,0.00471497,-0.99659729,0.000000,0.183105,-0.061035
3569027000,0.01095581,0.00471497,-0.99659729,0.122070,0.061035,-0.122070
3576623625,0.01173401,0.00479126,-0.99830627,0.122070,0.061035,-0.122070
3579161791,0.01173401,0.00479126,-0.99830627,0.122070,0.183105,0.000000
3586847208,0.01321411,0.00404358,-0.99775696,0.000000,0.122070,-0.122070
3596992541,0.01185608,0.00416565,-0.99583435,0.122070,0.244141,-0.061035
3607113583,0.01138306,0.00440979,-0.99667358,0.122070,0.122070,-0.061035
3617231041,0.01185608,0.00495911,-0.99549866,0.000000,0.183105,-0.122070
3627362041,0.01254272,0.00483704,-0.99658203,0.122070,0.244141,0.000000
3637499541,0.01301575,0.00515747,-0.99621582,0.061035,0.122070,-0.122070
3647639625,0.01235962,0.00459290,-0.99645996,0.000000,0.061035,-0.061035
3657793375,0.01231384,0.00292969,-0.99668884,0.000000,0.122070,-0.061035
3667944875,0.01216125,0.00375366,-0.99725342,0.000000,0.244141,-0.122070
3678110750,0.01271057,0.00328064,-0.99668884,0.122070,0.244141,-0.122070
3688154875,0.01211548,0.00387573,-0.99746704,0.061035,0.183105,-0.244141
3697997416,0.01165771,0.00375366,-0.99792480,0.122070,0.122070,-0.122070
3707754333,0.01158142,0.00401306,-0.99609375,0.061035,0.122070,-0.122070
3717872666,0.01199341,0.00402832,-0.99723816,0.000000,0.183105,-0.061035
3727999833,0.01194763,0.00457764,-0.99754333,0.000000,0.122070,-0.061035
3738150166,0.01165771,0.00486755,-0.99607849,0.061035,0.061035,-0.122070
3745746958,0.01139832,0.00581360,-0.99636841,0.061035,0.061035,-0.122070
3748287166,0.01139832,0.00581360,-0.99636841,0.000000,0.122070,0.000000
3755897958,0.01223755,0.00463867,-0.99589539,0.000000,0.122070,0.000000
3758439166,0.01223755,0.00463867,-0.99589539,0.000000,0.183105,-0.183105
3766059875,0.01251221,0.00447083,-0.99694824,0.000000,0.183105,-0.183105
3768606541,0.01251221,0.00447083,-0.99694824,-0.061035,0.183105,-0.061035
3776006458,0.01182556,0.00509644,-0.99678040,-0.061035,0.183105,-0.061035
3778551291,0.01182556,0.00509644,-0.99678040,0.061035,0.244141,-0.061035
3786191166,0.01298523,0.00454712,-0.99671936,0.061035,0.244141,-0.061035
3788730458,0.01298523,0.00454712,-0.99671936,0.000000,0.122070,-0.183105
3796347000,0.01292419,0.00395203,-0.99630737,0.000000,0.122070,-0.183105
3798875916,0.01292419,0.00395203,-0.99630737,-0.061035,0.122070,-0.122070
3806233166,0.01135254,0.00361633,-0.99729919,-0.061035,0.122070,-0.122070
3808791791,0.01135254,0.00361633,-0.99729919,0.061035,0.122070,-0.122070
3816416583,0.01165771,0.00337219,-0.99693298,0.061035,0.122070,-0.122070
3818955333,0.01165771,0.00337219,-0.99693298,0.061035,0.122070,-0.061035
3826548958,0.01390076,0.00389099,-0.99621582,0.061035,0.122070,-0.061035
3828608041,0.01390076,0.00389099,-0.99621582,0.061035,0.244141,-0.244141
3836249250,0.01390076,0.00457764,-0.99656677,0.061035,0.244141,-0.244141
3838794875,0.01390076,0.00457764,-0.99656677,0.061035,0.122070,-0.061035
3846397291,0.01208496,0.00436401,-0.99629211,0.061035,0.122070,-0.061035
3848936041,0.01208496,0.00436401,-0.99629211,-0.061035,0.122070,-0.122070
3856294416,0.01211548,0.00485229,-0.99667358,-0.061035,0.122070,-0.122070
3858823500,0.01211548,0.00485229,-0.99667358,0.244141,0.183105,-0.061035
3866112166,0.01220703,0.00509644,-0.99642944,0.244141,0.183105,-0.061035
3868635541,0.01220703,0.00509644,-0.99642944,0.122070,0.183105,0.000000
3878369375,0.01220703,0.00491333,-0.99801636,0.122070,0.244141,-0.122070
3888580625,0.01243591,0.00457764,-0.99732971,0.122070,0.122070,-0.061035
3898723541,0.01127625,0.00460815,-0.99678040,0.000000,0.183105,-0.183105
3906339708,0.01292419,0.00430298,-0.99678040,0.000000,0.183105,-0.183105
3908881416,0.01292419,0.00430298,-0.99678040,-0.061035,0.122070,-0.122070
3918612750,0.01240540,0.00346375,-0.99617004,0.061035,0.244141,-0.061035
3926229250,0.01235962,0.00376892,-0.99826050,0.061035,0.244141,-0.061035
3928772958,0.01235962,0.00376892,-0.99826050,0.061035,0.122070,-0.183105
3936378750,0.01315308,0.00488281,-0.99801636,0.061035,0.122070,-0.183105
3938924666,0.01315308,0.00488281,-0.99801636,0.061035,0.183105,-0.122070
3948672458,0.01284790,0.00485229,-0.99728394,0.122070,0.122070,-0.183105
3956223458,0.01158142,0.00415039,-0.99607849,0.122070,0.122070,-0.183105
3958765083,0.01158142,0.00415039,-0.99607849,0.000000,0.183105,-0.061035
3966371666,0.01245117,0.00512695,-0.99734497,0.000000,0.183105,-0.061035
3968913333,0.01245117,0.00512695,-0.99734497,0.122070,0.183105,-0.061035
3976498250,0.01280212,0.00462341,-0.99618530,0.122070,0.183105,-0.061035
3979035083,0.01280212,0.00462341,-0.99618530,0.000000,0.061035,0.000000
3986641791,0.01280212,0.00469971,-0.99665833,0.000000,0.061035,0.000000
3989181333,0.01280212,0.00469971,-0.99665833,0.122070,0.183105,-0.183105
3999309416,0.01274109,0.00495911,-0.99720764,0.061035,0.183105,-0.061035
4006299333,0.01148987,0.00358582,-0.99671936,0.061035,0.183105,-0.061035
4008838166,0.01148987,0.00358582,-0.99671936,0.122070,0.122070,0.000000
4018451416,0.01242065,0.00323486,-0.99737549,0.061035,0.244141,-0.122070
4028559083,0.01264954,0.00411987,-0.99624634,0.122070,0.244141,-0.122070
4038687416,0.01193237,0.00466919,-0.99691772,0.122070,0.305176,-0.061035
4048837625,0.01255798,0.00389099,-0.99565125,0.122070,0.183105,0.000000
4058970541,0.01223755,0.00407410,-0.99656677,0.061035,0.183105,-0.122070
4069101583,0.01347351,0.00534058,-0.99722290,0.061035,0.183105,0.000000
4079218000,0.01234436,0.00482178,-0.99661255,0.061035,0.183105,-0.122070
4086863416,0.01271057,0.00518799,-0.99720764,0.061035,0.183105,-0.122070
4089420750,0.01271057,0.00518799,-0.99720764,0.122070,0.122070,-0.122070
4099565166,0.01185608,0.00559998,-0.99691772,0.000000,0.122070,-0.122070
4107179416,0.01261902,0.00477600,-0.99728394,0.000000,0.122070,-0.122070
4109727500,0.01261902,0.00477600,-0.99728394,0.244141,0.183105,-0.122070
4117322000,0.01295471,0.00453186,-0.99754333,0.244141,0.183105,-0.122070
4119862750,0.01295471,0.00453186,-0.99754333,0.061035,0.122070,-0.061035
4127473125,0.01155090,0.00440979,-0.99655151,0.061035,0.122070,-0.061035
4130022333,0.01155090,0.00440979,-0.99655151,0.000000,0.122070,-0.122070
4137639750,0.01176453,0.00454712,-0.99610901,0.000000,0.122070,-0.122070
4140184166,0.01176453,0.00454712,-0.99610901,0.000000,0.122070,-0.061035
4147836458,0.01219177,0.00415039,-0.99621582,0.122070,0.183105,-0.122070
4157932791,0.01179504,0.00392151,-0.99699402,0.061035,0.244141,-0.122070
4168049083,0.01219177,0.00448608,-0.99610901,-0.183105,0.122070,0.061035
4178132666,0.01222229,0.00462341,-0.99668884,0.061035,0.122070,-0.244141
4188084500,0.01159668,0.00511169,-0.99581909,0.061035,0.122070,-0.061035
4198210666,0.01295471,0.00495911,-0.99682617,0.183105,0.305176,-0.061035
4208352250,0.01225281,0.00447083,-0.99589539,0.061035,0.122070,-0.244141
4218479208,0.01220703,0.00448608,-0.99691772,0.061035,0.122070,-0.122070
4228443125,0.01304626,0.00358582,-0.99633789,0.000000,0.122070,0.000000
4238612541,0.01217651,0.00363159,-0.99659729,0.061035,0.061035,-0.122070
4248794333,0.01226807,0.00453186,-0.99746704,0.000000,0.183105,-0.122070
4258986166,0.01182556,0.00393677,-0.99578857,0.122070,0.122070,-0.061035
4269127916,0.01310730,0.00491333,-0.99610901,0.061035,0.122070,-0.122070
4279261875,0.01271057,0.00546265,-0.99674988,0.122070,0.122070,-0.122070
4289439000,0.01214600,0.00521851,-0.99726868,0.000000,0.183105,-0.122070
4297043416,0.01263428,0.00521851,-0.99711609,0.000000,0.183105,-0.122070
4299589625,0.01263428,0.00521851,-0.99711609,0.061035,0.183105,-0.122070
4307195333,0.01274109,0.00537109,-0.99708557,0.061035,0.183105,-0.122070
4309757750,0.01274109,0.00537109,-0.99708557,0.122070,0.122070,0.000000
4317241000,0.01235962,0.00489807,-0.99824524,0.122070,0.122070,0.000000
4319775500,0.01235962,0.00489807,-0.99824524,0.122070,0.122070,-0.061035
4327344625,0.01315308,0.00463867,-0.99601746,0.122070,0.122070,-0.061035
4329897916,0.01315308,0.00463867,-0.99601746,0.122070,0.061035,-0.122070
4339365000,0.01268005,0.00398254,-0.99754333,0.000000,0.122070,0.061035
4349504708,0.01268005,0.00408936,-0.99731445,0.244141,0.122070,-0.061035
4359708583,0.01177979,0.00408936,-0.99694824,0.000000,0.122070,-0.061035
4367328708,0.01223755,0.00331116,-0.99645996,0.000000,0.122070,-0.061035
4369871833,0.01223755,0.00331116,-0.99645996,0.122070,0.061035,-0.122070
4377478791,0.01239014,0.00373840,-0.99749756,0.122070,0.061035,-0.122070
4380021416,0.01239014,0.00373840,-0.99749756,0.000000,0.183105,-0.183105
4387633500,0.01266479,0.00442505,-0.99763489,0.000000,0.183105,-0.183105
4390179708,0.01266479,0.00442505,-0.99763489,0.122070,0.122070,-0.122070
4397775958,0.01103210,0.00430298,-0.99688721,0.122070,0.122070,-0.122070
4400332625,0.01103210,0.00430298,-0.99688721,0.061035,0.244141,-0.061035
4407928375,0.01194763,0.00448608,-0.99610901,0.061035,0.244141,-0.061035
4410470833,0.01194763,0.00448608,-0.99610901,0.000000,0.183105,-0.061035
4418064791,0.01228333,0.00503540,-0.99671936,0.000000,0.183105,-0.061035
4420606083,0.01228333,0.00503540,-0.99671936,0.000000,0.244141,-0.122070
4428199125,0.01193237,0.00399780,-0.99696350,0.000000,0.244141,-0.122070
4430482958,0.01193237,0.00399780,-0.99696350,0.061035,0.305176,-0.122070
4438075416,0.01277161,0.00460815,-0.99682617,0.061035,0.305176,-0.122070
4440614791,0.01277161,0.00460815,-0.99682617,0.122070,0.244141,-0.061035
4448208208,0.01325989,0.00483704,-0.99635315,0.122070,0.244141,-0.061035
4450748000,0.01325989,0.00483704,-0.99635315,0.000000,0.183105,-0.122070
4458346000,0.01234436,0.00466919,-0.99743652,0.000000,0.183105,-0.122070
4460886458,0.01234436,0.00466919,-0.99743652,-0.122070,0.122070,-0.305176
4468480208,0.01246643,0.00408936,-0.99618530,-0.122070,0.122070,-0.305176
4471034875,0.01246643,0.00408936,-0.99618530,0.000000,0.061035,-0.122070
4478601458,0.01264954,0.00410461,-0.99635315,0.000000,0.061035,-0.122070
4481137375,0.01264954,0.00410461,-0.99635315,0.122070,0.183105,-0.061035
4488699250,0.01257324,0.00465393,-0.99555969,0.000000,0.122070,-0.122070
4498834750,0.01242065,0.00520325,-0.99633789,0.000000,0.122070,-0.122070
4501380333,0.01242065,0.00520325,-0.99633789,0.000000,0.183105,-0.122070
4508987083,0.01127625,0.00538635,-0.99659729,0.183105,0.183105,0.000000
4519099500,0.01239014,0.00552368,-0.99856567,0.122070,0.183105,0.000000
4529157166,0.01342773,0.00555420,-0.99781799,0.061035,0.122070,-0.122070
4539329250,0.01321411,0.00427246,-0.99670410,0.061035,0.061035,-0.183105
4549457375,0.01289368,0.00437927,-0.99661255,0.000000,0.183105,-0.061035
4559578208,0.01376343,0.00448608,-0.99589539,0.000000,0.122070,-0.122070
4569726833,0.01324463,0.00491333,-0.99667358,0.000000,0.061035,-0.122070
4579892750,0.01332092,0.00532532,-0.99711609,0.122070,0.183105,-0.183105
4590027083,0.01211548,0.00408936,-0.99647522,0.061035,0.122070,-0.122070
4600149166,0.01232910,0.00541687,-0.99763489,-0.061035,0.000000,0.000000
4607791583,0.01173401,0.00521851,-0.99629211,-0.061035,0.000000,0.000000
4610333916,0.01173401,0.00521851,-0.99629211,0.122070,0.305176,-0.122070
4617939708,0.01205444,0.00428772,-0.99713135,0.122070,0.305176,-0.122070
4620482708,0.01205444,0.00428772,-0.99713135,0.061035,0.122070,-0.122070
4628074750,0.01234436,0.00465393,-0.99717712,0.061035,0.122070,-0.122070
4630605666,0.01234436,0.00465393,-0.99717712,0.122070,0.061035,-0.061035
4638156625,0.01220703,0.00476074,-0.99711609,0.122070,0.061035,-0.061035
4640680750,0.01220703,0.00476074,-0.99711609,0.061035,0.061035,-0.122070
4648264416,0.01190186,0.00395203,-0.99603271,0.061035,0.061035,-0.122070
4650591083,0.01190186,0.00395203,-0.99603271,0.000000,0.122070,-0.122070
4658184500,0.01194763,0.00386047,-0.99621582,0.000000,0.122070,-0.122070
4660735083,0.01194763,0.00386047,-0.99621582,0.122070,0.061035,-0.183105
4668298291,0.01266479,0.00407410,-0.99645996,0.122070,0.061035,-0.183105
4670832583,0.01266479,0.00407410,-0.99645996,-0.061035,0.244141,-0.061035
4678441125,0.01242065,0.00473022,-0.99656677,-0.061035,0.244141,-0.061035
4680987583,0.01242065,0.00473022,-0.99656677,0.061035,0.122070,-0.122070
4688601375,0.01165771,0.00369263,-0.99574280,0.061035,0.122070,-0.122070
4691140583,0.01165771,0.00369263,-0.99574280,0.061035,0.183105,0.000000
4698733333,0.01214600,0.00405884,-0.99604797,0.061035,0.183105,0.000000
4701281166,0.01214600,0.00405884,-0.99604797,0.000000,0.183105,-0.122070
4708891333,0.01332092,0.00492859,-0.99711609,0.000000,0.183105,-0.122070
4711429083,0.01332092,0.00492859,-0.99711609,0.122070,0.305176,-0.122070
4719022416,0.01222229,0.00486755,-0.99732971,0.122070,0.305176,-0.122070
4721563416,0.01222229,0.00486755,-0.99732971,0.000000,0.122070,-0.122070
4729177000,0.01203918,0.00454712,-0.99655151,0.000000,0.122070,-0.122070
4731733041,0.01203918,0.00454712,-0.99655151,0.122070,0.183105,-0.061035
4738542166,0.01202393,0.00508118,-0.99645996,0.122070,0.183105,-0.061035
4741099791,0.01202393,0.00508118,-0.99645996,0.000000,0.122070,-0.183105
4748690375,0.01255798,0.00456238,-0.99642944,0.000000,0.122070,-0.183105
4751238750,0.01255798,0.00456238,-0.99642944,0.000000,0.122070,-0.244141
4758836750,0.01243591,0.00474548,-0.99540710,0.000000,0.122070,-0.244141
4761150500,0.01243591,0.00474548,-0.99540710,0.183105,0.122070,-0.061035
4768717041,0.01223755,0.00407410,-0.99685669,0.183105,0.122070,-0.061035
4771263958,0.01223755,0.00407410,-0.99685669,0.183105,0.244141,-0.183105
4778890500,0.01264954,0.00411987,-0.99725342,0.183105,0.244141,-0.183105
4781439708,0.01264954,0.00411987,-0.99725342,0.122070,0.305176,-0.122070
4788930666,0.01246643,0.00407410,-0.99723816,0.122070,0.305176,-0.122070
4791456208,0.01246643,0.00407410,-0.99723816,0.061035,0.183105,-0.183105
4799019958,0.01353455,0.00434875,-0.99664307,0.061035,0.183105,-0.183105
4801561208,0.01353455,0.00434875,-0.99664307,0.122070,0.122070,-0.122070
4809175875,0.01295471,0.00450134,-0.99594116,0.122070,0.122070,-0.122070
4811736125,0.01295471,0.00450134,-0.99594116,0.122070,0.183105,-0.183105
4819345875,0.01280212,0.00451660,-0.99707031,0.122070,0.183105,-0.183105
4821885291,0.01280212,0.00451660,-0.99707031,0.000000,0.122070,-0.122070
4829496958,0.01246643,0.00494385,-0.99645996,0.000000,0.122070,-0.122070
4832042291,0.01246643,0.00494385,-0.99645996,0.183105,0.244141,0.000000
4839652208,0.01156616,0.00454712,-0.99794006,0.183105,0.244141,0.000000
4842193166,0.01156616,0.00454712,-0.99794006,0.000000,0.122070,-0.183105
4849802708,0.01240540,0.00453186,-0.99804688,0.122070,0.061035,-0.122070
4859675666,0.01197815,0.00469971,-0.99612427,0.122070,0.061035,-0.122070
4862218375,0.01197815,0.00469971,-0.99612427,0.183105,0.305176,-0.122070
4869818083,0.01260376,0.00444031,-0.99665833,0.183105,0.305176,-0.122070
4872379416,0.01260376,0.00444031,-0.99665833,0.122070,0.122070,-0.122070
4879973250,0.01239014,0.00411987,-0.99610901,0.122070,0.183105,0.000000
4890090041,0.01272583,0.00526428,-0.99691772,0.061035,0.122070,-0.122070
4900214166,0.01341248,0.00471497,-0.99717712,0.000000,0.122070,-0.061035
4910367291,0.01272583,0.00479126,-0.99847412,0.061035,0.183105,-0.183105
4920495083,0.01272583,0.00440979,-0.99598694,0.244141,0.183105,-0.061035
4930619083,0.01298523,0.00421143,-0.99661255,0.061035,0.183105,-0.122070
4940467375,0.01217651,0.00309753,-0.99711609,0.122070,0.183105,-0.122070
4950143541,0.01225281,0.00393677,-0.99729919,0.244141,0.244141,0.000000
4960291625,0.01243591,0.00387573,-0.99676514,0.061035,0.122070,-0.122070
4970431208,0.01303101,0.00425720,-0.99725342,0.061035,0.183105,-0.122070
4980541083,0.01268005,0.00389099,-0.99682617,0.061035,0.244141,0.000000
4990370125,0.01174927,0.00473022,-0.99638367,0.061035,0.244141,-0.122070
5000485208,0.01211548,0.00561523,-0.99671936,0.122070,0.183105,-0.183105
5010600208,0.01332092,0.00515747,-0.99653625,0.183105,0.244141,-0.183105
5020711458,0.01271057,0.00401306,-0.99639893,0.122070,0.183105,0.000000
5030523875,0.01300049,0.00442505,-0.99697876,0.061035,0.244141,-0.122070
5040678125,0.01226807,0.00462341,-0.99688721,-0.061035,0.122070,-0.061035
5050829041,0.01194763,0.00425720,-0.99725342,0.061035,0.122070,-0.183105
5060956208,0.01095581,0.00474548,-0.99642944,-0.061035,0.122070,-0.122070
5071102833,0.01216125,0.00372314,-0.99653625,-0.122070,0.122070,-0.183105
5080806833,0.01289368,0.00375366,-0.99711609,0.061035,0.061035,-0.061035
5090944583,0.01159668,0.00386047,-0.99671936,0.061035,0.122070,-0.122070
5101045666,0.01248169,0.00437927,-0.99694824,0.000000,0.122070,-0.061035
5111172166,0.01220703,0.00492859,-0.99690247,0.000000,0.061035,-0.122070
5121344541,0.01126099,0.00489807,-0.99687195,0.000000,0.244141,-0.305176
5128955375,0.01179504,0.00415039,-0.99572754,0.000000,0.244141,-0.305176
5131502541,0.01179504,0.00415039,-0.99572754,0.061035,0.122070,0.061035
5139106541,0.01318359,0.00399780,-0.99601746,0.061035,0.122070,0.061035
5141671375,0.01318359,0.00399780,-0.99601746,-0.061035,0.183105,-0.183105
5149269916,0.01303101,0.00486755,-0.99557495,-0.061035,0.183105,-0.183105
5151807125,0.01303101,0.00486755,-0.99557495,0.061035,0.061035,0.000000
5159403083,0.01141357,0.00370789,-0.99781799,0.061035,0.061035,0.000000
5161944708,0.01141357,0.00370789,-0.99781799,0.122070,0.183105,-0.061035
5169542000,0.01243591,0.00453186,-0.99678040,0.122070,0.183105,-0.061035
5172082208,0.01243591,0.00453186,-0.99678040,0.061035,0.122070,-0.061035
5179676333,0.01177979,0.00564575,-0.99658203,0.061035,0.122070,-0.061035
5182233083,0.01177979,0.00564575,-0.99658203,0.061035,0.122070,-0.122070
5189849208,0.01249695,0.00462341,-0.99642944,0.061035,0.122070,-0.122070
5192393541,0.01249695,0.00462341,-0.99642944,0.122070,0.183105,-0.122070
5200049916,0.01187134,0.00440979,-0.99736023,0.122070,0.183105,-0.122070
5202589125,0.01187134,0.00440979,-0.99736023,0.122070,0.122070,-0.122070
5210178083,0.01268005,0.00444031,-0.99804688,0.122070,0.122070,-0.122070
5212718583,0.01268005,0.00444031,-0.99804688,0.061035,0.183105,-0.183105
5220333250,0.01246643,0.00335693,-0.99610901,0.061035,0.183105,-0.183105
5222884625,0.01246643,0.00335693,-0.99610901,0.000000,0.122070,0.000000
5230484791,0.01232910,0.00325012,-0.99656677,0.000000,0.122070,0.000000
5233025083,0.01232910,0.00325012,-0.99656677,-0.122070,0.122070,-0.122070
5240624625,0.01293945,0.00265503,-0.99542236,-0.122070,0.122070,-0.122070
5243170208,0.01293945,0.00265503,-0.99542236,0.122070,0.061035,0.061035
5250472166,0.01219177,0.00335693,-0.99656677,0.122070,0.061035,0.061035
5253002333,0.01219177,0.00335693,-0.99656677,0.122070,0.061035,-0.122070
5260177125,0.01243591,0.00439453,-0.99662781,0.122070,0.061035,-0.122070
5262715166,0.01243591,0.00439453,-0.99662781,0.183105,0.183105,-0.122070
5270241666,0.01403809,0.00354004,-0.99571228,0.183105,0.183105,-0.122070
5272771958,0.01403809,0.00354004,-0.99571228,0.183105,0.122070,-0.061035
5279968875,0.01298523,0.00486755,-0.99584961,0.183105,0.122070,-0.061035
5282514000,0.01298523,0.00486755,-0.99584961,0.122070,0.183105,-0.061035
5290113125,0.01280212,0.00531006,-0.99682617,0.122070,0.183105,-0.061035
5292658000,0.01280212,0.00531006,-0.99682617,0.000000,0.122070,-0.122070
5300267041,0.01225281,0.00451660,-0.99740601,0.000000,0.122070,-0.122070
5302736833,0.01225281,0.00451660,-0.99740601,0.122070,0.061035,-0.061035
5310426375,0.01280212,0.00482178,-0.99513245,0.122070,0.061035,-0.061035
5312970375,0.01280212,0.00482178,-0.99513245,0.122070,0.183105,-0.122070
5320576333,0.01249695,0.00532532,-0.99694824,0.122070,0.183105,-0.122070
5323113833,0.01249695,0.00532532,-0.99694824,0.000000,0.183105,-0.061035
5330745833,0.01203918,0.00479126,-0.99623108,0.000000,0.183105,-0.061035
5333293833,0.01203918,0.00479126,-0.99623108,0.000000,0.122070,-0.122070
5340912416,0.01309204,0.00410461,-0.99713135,0.000000,0.183105,-0.122070
5351094125,0.01254272,0.00494385,-0.99740601,0.305176,0.183105,-0.122070
5361140541,0.01141357,0.00471497,-0.99609375,0.183105,0.183105,-0.122070
5371102458,0.01199341,0.00430298,-0.99560547,0.061035,0.183105,-0.122070
5381224041,0.01266479,0.00439453,-0.99665833,0.000000,0.122070,-0.061035
5391353541,0.01211548,0.00434875,-0.99678040,0.000000,0.183105,0.000000
5401471583,0.01258850,0.00382996,-0.99862671,0.122070,-0.122070,-0.061035
5411587750,0.01254272,0.00424194,-0.99920654,-0.488281,0.366211,0.000000
5421538166,0.01237488,0.00523376,-0.99559021,0.305176,0.183105,-0.122070
5431684791,0.01284790,0.00442505,-0.99719238,0.061035,0.000000,-0.183105
5441771583,0.01217651,0.00495911,-0.99754333,0.122070,0.183105,-0.122070
5451912500,0.01155090,0.00462341,-0.99600220,0.061035,0.061035,-0.122070
5462037083,0.01345825,0.00369263,-0.99742126,-0.061035,0.122070,-0.122070
5472185541,0.01335144,0.00318909,-0.99559021,0.000000,0.122070,-0.183105
5479822541,0.01254272,0.00241089,-0.99736023,0.000000,0.122070,-0.183105
5482387625,0.01254272,0.00241089,-0.99736023,0.183105,0.122070,-0.244141
5489997583,0.01231384,0.00306702,-0.99444580,0.183105,0.122070,-0.244141
5492564791,0.01231384,0.00306702,-0.99444580,-0.305176,0.183105,-0.183105
5502247625,0.01296997,0.00274658,-0.99678040,0.305176,0.061035,-0.183105
5509840208,0.01321411,0.00425720,-0.99682617,0.305176,0.061035,-0.183105
5512395125,0.01321411,0.00425720,-0.99682617,0.183105,0.000000,-0.061035
5520002541,0.01275635,0.00457764,-0.99554443,0.183105,0.000000,-0.061035
5522549291,0.01275635,0.00457764,-0.99554443,0.061035,0.244141,-0.061035
5530151416,0.01185608,0.00436401,-0.99720764,0.061035,0.244141,-0.061035
5532709208,0.01185608,0.00436401,-0.99720764,0.122070,0.183105,-0.061035
5542372708,0.01271057,0.00502014,-0.99754333,0.061035,0.061035,-0.061035
5552332291,0.01177979,0.00402832,-0.99708557,0.061035,0.000000,0.000000
5559931833,0.01173401,0.00363159,-0.99694824,0.061035,0.000000,0.000000
5562464666,0.01173401,0.00363159,-0.99694824,0.122070,0.061035,-0.244141
5570022416,0.01216125,0.00460815,-0.99519348,0.122070,0.061035,-0.244141
5572574125,0.01216125,0.00460815,-0.99519348,0.000000,0.061035,-0.061035
5580156041,0.01251221,0.00498962,-0.99630737,0.000000,0.061035,-0.061035
5582483541,0.01251221,0.00498962,-0.99630737,0.061035,0.305176,-0.061035
5590116125,0.01229858,0.00430298,-0.99571228,0.061035,0.305176,-0.061035
5592662250,0.01229858,0.00430298,-0.99571228,0.122070,0.244141,-0.061035
5600271250,0.01290894,0.00463867,-0.99673462,0.122070,0.244141,-0.061035
5602815000,0.01290894,0.00463867,-0.99673462,0.000000,0.244141,-0.061035
5610427208,0.01303101,0.00407410,-0.99584961,0.000000,0.244141,-0.061035
5612975875,0.01303101,0.00407410,-0.99584961,0.122070,0.183105,-0.122070
5620572625,0.01205444,0.00402832,-0.99693298,0.122070,0.183105,-0.122070
5623114708,0.01205444,0.00402832,-0.99693298,0.122070,0.183105,0.000000
5630712208,0.01126099,0.00468445,-0.99595642,0.122070,0.183105,0.000000
5633247416,0.01126099,0.00468445,-0.99595642,0.061035,0.183105,-0.061035
5640821208,0.01148987,0.00532532,-0.99668884,0.061035,0.183105,-0.061035
5643351708,0.01148987,0.00532532,-0.99668884,0.000000,0.183105,-0.122070
5650964458,0.01110840,0.00546265,-0.99734497,0.000000,0.183105,-0.122070
5653517333,0.01110840,0.00546265,-0.99734497,0.000000,0.244141,0.000000
5660796500,0.01190186,0.00424194,-0.99720764,0.000000,0.244141,0.000000
5663337375,0.01190186,0.00424194,-0.99720764,0.061035,0.061035,-0.061035
5670945875,0.01210022,0.00419617,-0.99610901,0.061035,0.061035,-0.061035
5673492166,0.01210022,0.00419617,-0.99610901,0.000000,0.183105,-0.061035
5680999833,0.01304626,0.00373840,-0.99707031,0.000000,0.183105,-0.061035
5683536166,0.01304626,0.00373840,-0.99707031,0.183105,0.244141,-0.061035
5691128000,0.01382446,0.00396729,-0.99710083,0.183105,0.244141,-0.061035
5693489916,0.01382446,0.00396729,-0.99710083,0.061035,0.122070,-0.061035
5701106125,0.01399231,0.00491333,-0.99696350,0.061035,0.122070,-0.061035
5703653208,0.01399231,0.00491333,-0.99696350,0.000000,0.122070,-0.244141
5711273708,0.01220703,0.00431824,-0.99620056,0.000000,0.122070,-0.244141
5713835166,0.01220703,0.00431824,-0.99620056,0.000000,0.305176,-0.122070
5721350458,0.01271057,0.00468445,-0.99708557,0.000000,0.305176,-0.122070
5723881750,0.01271057,0.00468445,-0.99708557,0.061035,0.183105,-0.183105
5731477291,0.01226807,0.00463867,-0.99674988,0.061035,0.183105,-0.183105
5734052416,0.01226807,0.00463867,-0.99674988,-0.061035,0.183105,-0.244141
5741684916,0.01249695,0.00457764,-0.99551392,-0.061035,0.183105,-0.244141
5744211000,0.01249695,0.00457764,-0.99551392,0.122070,0.061035,0.000000
5751849791,0.01200867,0.00460815,-0.99635315,-0.061035,0.122070,-0.183105
5761245166,0.01222229,0.00480652,-0.99617004,-0.061035,0.122070,-0.183105
5763790166,0.01222229,0.00480652,-0.99617004,0.000000,0.244141,-0.122070
5771381250,0.01261902,0.00445557,-0.99565125,0.000000,0.244141,-0.122070
5773927750,0.01261902,0.00445557,-0.99565125,0.000000,0.061035,-0.061035
5781513666,0.01284790,0.00389099,-0.99682617,0.000000,0.061035,-0.061035
5784051041,0.01284790,0.00389099,-0.99682617,0.122070,0.183105,-0.122070
5791680416,0.01304626,0.00337219,-0.99586487,0.122070,0.183105,-0.122070
5794230833,0.01304626,0.00337219,-0.99586487,0.122070,0.122070,0.000000
5801858416,0.01264954,0.00363159,-0.99748230,0.061035,0.061035,-0.183105
5811519958,0.01257324,0.00270081,-0.99699402,0.061035,0.061035,-0.183105
5814064125,0.01257324,0.00270081,-0.99699402,0.061035,0.122070,-0.122070
5821665833,0.01206970,0.00408936,-0.99670410,0.061035,0.122070,-0.122070
5824219250,0.01206970,0.00408936,-0.99670410,0.183105,0.122070,-0.122070
5831853708,0.01232910,0.00503540,-0.99745178,0.122070,0.244141,-0.183105
5841977875,0.01281738,0.00526428,-0.99679565,0.061035,0.183105,-0.183105
5852119333,0.01254272,0.00506592,-0.99699402,0.000000,0.183105,-0.122070
5862265708,0.01200867,0.00532532,-0.99690247,0.061035,0.183105,-0.122070
5872368916,0.01252747,0.00566101,-0.99705505,-0.122070,0.244141,-0.122070
5882307625,0.01409912,0.00473022,-0.99606323,0.000000,0.183105,-0.061035
5892181416,0.01257324,0.00378418,-0.99693298,0.000000,0.122070,-0.122070
5902370916,0.01174927,0.00314331,-0.99696350,-0.061035,0.122070,-0.061035
5912498458,0.01191711,0.00294495,-0.99699402,0.000000,0.122070,0.000000
5922634083,0.01228333,0.00328064,-0.99726868,0.061035,0.000000,-0.061035
5932575375,0.01208496,0.00413513,-0.99560547,-0.061035,0.122070,-0.122070
5942715791,0.01246643,0.00311279,-0.99768066,0.061035,0.244141,0.000000
5952122666,0.01174927,0.00373840,-0.99633789,-0.061035,0.122070,-0.183105
5962280708,0.01162720,0.00498962,-0.99703979,0.061035,0.183105,-0.061035
5971941833,0.01208496,0.00532532,-0.99682617,0.061035,0.183105,-0.061035
5974491708,0.01208496,0.00532532,-0.99682617,0.122070,0.305176,-0.122070
5982147083,0.01155090,0.00453186,-0.99681091,0.122070,0.305176,-0.122070
5984714250,0.01155090,0.00453186,-0.99681091,0.061035,0.061035,-0.183105
5991968875,0.01251221,0.00437927,-0.99751282,0.061035,0.061035,-0.183105
5994519375,0.01251221,0.00437927,-0.99751282,0.000000,0.183105,-0.183105
6002222458,0.01347351,0.00524902,-0.99772644,0.000000,0.183105,-0.183105
6004800583,0.01347351,0.00524902,-0.99772644,0.061035,0.183105,-0.122070
6012323041,0.01290894,0.00451660,-0.99693298,0.061035,0.183105,-0.061035
6022483958,0.01182556,0.00462341,-0.99725342,0.061035,0.183105,-0.122070
6032222541,0.01303101,0.00482178,-0.99688721,0.061035,0.122070,-0.122070
6042332875,0.01329041,0.00456238,-0.99662781,0.061035,0.122070,-0.122070
6044876000,0.01329041,0.00456238,-0.99662781,-0.061035,0.122070,-0.122070
6051795083,0.01255798,0.00495911,-0.99577332,-0.061035,0.122070,-0.122070
6054331416,0.01255798,0.00495911,-0.99577332,0.061035,0.061035,-0.122070
6061932791,0.01293945,0.00473022,-0.99520874,0.061035,0.061035,-0.122070
6064466916,0.01293945,0.00473022,-0.99520874,0.183105,0.183105,-0.183105
6072075750,0.01159668,0.00552368,-0.99673462,0.183105,0.183105,-0.183105
6074615625,0.01159668,0.00552368,-0.99673462,0.061035,0.122070,-0.183105
6082112458,0.01222229,0.00640869,-0.99719238,0.061035,0.122070,-0.183105
6084615750,0.01222229,0.00640869,-0.99719238,0.122070,0.183105,-0.183105
6092218916,0.01300049,0.00714111,-0.99734497,0.122070,0.183105,-0.183105
6094762041,0.01300049,0.00714111,-0.99734497,-0.061035,0.061035,-0.061035
6102362000,0.01336670,0.00755310,-0.99815369,-0.061035,0.061035,-0.061035
6104915291,0.01336670,0.00755310,-0.99815369,-0.061035,0.061035,-0.122070
6112032875,0.01281738,0.00614929,-0.99621582,-0.061035,0.061035,-0.122070
6114576416,0.01281738,0.00614929,-0.99621582,-0.061035,0.122070,0.061035
6121756083,0.01158142,0.00529480,-0.99665833,-0.061035,0.122070,0.061035
6124298250,0.01158142,0.00529480,-0.99665833,0.122070,0.000000,-0.122070
6131925708,0.01098633,0.00477600,-0.99697876,0.122070,0.000000,-0.122070
6134464000,0.01098633,0.00477600,-0.99697876,0.732422,0.000000,-0.122070
6142056333,0.01217651,0.00408936,-0.99078369,0.732422,0.000000,-0.122070
6144601583,0.01217651,0.00408936,-0.99078369,-0.244141,0.183105,-0.244141
6152195041,0.01179504,0.00212097,-0.99482727,-0.244141,0.183105,-0.244141
6154736541,0.01179504,0.00212097,-0.99482727,0.000000,0.244141,-0.061035
6162322666,0.01293945,0.00189209,-1.00685120,0.000000,0.244141,-0.061035
6164608625,0.01293945,0.00189209,-1.00685120,1.159668,0.061035,-0.183105
6172074041,0.01338196,0.00250244,-0.99140930,1.159668,0.061035,-0.183105
6174619125,0.01338196,0.00250244,-0.99140930,-0.244141,0.122070,-0.122070
6182182666,0.01222229,0.00154114,-1.00292969,-0.244141,0.122070,-0.122070
6184713083,0.01222229,0.00154114,-1.00292969,0.000000,0.488281,-0.183105
6192195458,0.01138306,0.00323486,-0.99378967,0.000000,0.488281,-0.183105
6194744125,0.01138306,0.00323486,-0.99378967,-0.183105,0.061035,-0.183105
6202136791,0.01080322,0.00495911,-1.00106812,-0.183105,0.061035,-0.183105
6204687666,0.01080322,0.00495911,-1.00106812,0.122070,0.122070,-0.061035
6212317666,0.01283264,0.00552368,-0.99450684,0.122070,0.122070,-0.061035
6214870541,0.01283264,0.00552368,-0.99450684,0.732422,0.000000,-0.183105
6222478708,0.01138306,0.00445557,-0.99543762,0.732422,0.000000,-0.183105
6225030291,0.01138306,0.00445557,-0.99543762,-0.427246,0.244141,-0.183105
6232620125,0.01142883,0.00540161,-1.00250244,-0.427246,0.244141,-0.183105
6234733875,0.01142883,0.00540161,-1.00250244,-0.122070,0.244141,-0.183105
6242252750,0.01426697,0.00595093,-0.99023438,-0.122070,0.244141,-0.183105
6244791666,0.01426697,0.00595093,-0.99023438,0.122070,0.122070,-0.122070
6252068750,0.01432800,0.00552368,-0.99990845,0.122070,0.122070,-0.122070
6254479833,0.01432800,0.00552368,-0.99990845,0.183105,0.122070,-0.061035
6262062416,0.01370239,0.00419617,-0.99342346,0.183105,0.122070,-0.061035
6264604208,0.01370239,0.00419617,-0.99342346,0.122070,0.122070,-0.122070
6272200625,0.01277161,0.00570679,-1.00033569,0.122070,0.122070,-0.122070
6274741208,0.01277161,0.00570679,-1.00033569,-0.061035,0.183105,0.000000
6282327875,0.01289368,0.00471497,-0.99552917,-0.061035,0.183105,0.000000
6284866625,0.01289368,0.00471497,-0.99552917,0.122070,0.244141,0.061035
6292466333,0.01335144,0.00303650,-0.99911499,0.122070,0.244141,0.061035
6295004208,0.01335144,0.00303650,-0.99911499,0.244141,0.122070,0.000000
6302600291,0.01268005,0.00320435,-0.98971558,0.244141,0.122070,0.000000
6305141958,0.01268005,0.00320435,-0.98971558,0.061035,0.061035,-0.061035
6312731416,0.01249695,0.00212097,-1.00561523,0.061035,0.061035,-0.061035
6315279083,0.01249695,0.00212097,-1.00561523,0.061035,0.061035,-0.122070
6322653083,0.01196289,0.00215149,-0.99066162,0.061035,0.061035,-0.122070
6325194750,0.01196289,0.00215149,-0.99066162,0.122070,0.244141,-0.183105
6332778000,0.01097107,0.00335693,-1.00003052,0.122070,0.244141,-0.183105
6335301083,0.01097107,0.00335693,-1.00003052,0.488281,-0.183105,0.000000
6342319000,0.01152039,0.00416565,-0.99838257,0.488281,-0.183105,0.000000
6344851000,0.01152039,0.00416565,-0.99838257,-0.671387,0.305176,-0.183105
6351994000,0.01306152,0.00566101,-0.99169922,-0.671387,0.305176,-0.183105
6354556000,0.01306152,0.00566101,-0.99169922,0.549316,0.122070,-0.061035
6362043875,0.01199341,0.00653076,-1.00445557,0.549316,0.122070,-0.061035
6364595541,0.01199341,0.00653076,-1.00445557,-0.061035,0.183105,-0.061035
6372176916,0.01188660,0.00741577,-0.99241638,-0.061035,0.183105,-0.061035
6374747708,0.01188660,0.00741577,-0.99241638,0.061035,0.305176,0.000000
6382338291,0.01339722,0.00619507,-0.99879456,0.061035,0.305176,0.000000
6384894583,0.01339722,0.00619507,-0.99879456,-0.305176,0.183105,-0.122070
6392479625,0.01310730,0.00601196,-0.99607849,-0.305176,0.183105,-0.122070
6395026625,0.01310730,0.00601196,-0.99607849,0.000000,0.244141,0.000000
6402613166,0.01155090,0.00523376,-0.99615479,0.000000,0.244141,0.000000
6405153958,0.01155090,0.00523376,-0.99615479,-0.366211,0.488281,-0.061035
6412764083,0.01113892,0.00413513,-0.99478149,-0.366211,0.488281,-0.061035
6415326333,0.01113892,0.00413513,-0.99478149,0.427246,-0.061035,-0.061035
6422931083,0.01367188,0.00317383,-1.00471497,0.427246,-0.061035,-0.061035
6425473000,0.01367188,0.00317383,-1.00471497,0.000000,0.244141,-0.061035
6433075916,0.01428223,0.00263977,-0.98808289,0.000000,0.244141,-0.061035
6435617833,0.01428223,0.00263977,-0.98808289,0.183105,0.244141,-0.122070
6443260458,0.01348877,0.00224304,-0.99958801,0.000000,0.122070,-0.122070
6453395458,0.01327515,0.00192261,-0.99613953,0.183105,0.183105,-0.122070
6463519083,0.01266479,0.00318909,-0.99813843,0.183105,0.183105,-0.122070
6466065000,0.01266479,0.00318909,-0.99813843,0.183105,0.061035,-0.061035
6473237791,0.01156616,0.00318909,-0.99511719,0.183105,0.061035,-0.061035
6475784458,0.01156616,0.00318909,-0.99511719,0.061035,0.183105,-0.183105
6483383083,0.01213074,0.00366211,-0.99600220,0.061035,0.183105,-0.183105
6485909166,0.01213074,0.00366211,-0.99600220,0.122070,0.305176,-0.183105
6493463416,0.01310730,0.00474548,-0.99772644,0.122070,0.305176,-0.183105
6496002625,0.01310730,0.00474548,-0.99772644,0.183105,0.244141,-0.183105
6503600166,0.01309204,0.00517273,-0.99517822,0.183105,0.244141,-0.183105
6506143916,0.01309204,0.00517273,-0.99517822,0.427246,0.183105,-0.122070
6513758791,0.01074219,0.00605774,-0.99604797,-0.366211,0.244141,0.000000
6523701625,0.01034546,0.00692749,-0.99116516,-0.366211,0.244141,0.000000
6526256791,0.01034546,0.00692749,-0.99116516,0.305176,0.122070,-0.061035
6533877583,0.01147461,0.00752258,-1.00601196,0.000000,0.244141,0.000000
6544006291,0.01246643,0.00767517,-0.99111938,0.000000,0.122070,-0.183105
6554139541,0.01338196,0.00567627,-0.99870300,-0.061035,0.122070,0.000000
6563942791,0.01335144,0.00572205,-0.99842834,-0.671387,0.366211,0.061035
6574056541,0.01435852,0.00502014,-0.98913574,0.183105,0.061035,-0.122070
6584211166,0.01280212,0.00325012,-1.00617981,-0.122070,0.183105,-0.122070
6594361041,0.01080322,0.00332642,-0.99053955,-0.183105,0.183105,-0.183105
6604504750,0.01092529,0.00283813,-1.00096130,-0.061035,0.122070,0.061035
6614650458,0.01113892,0.00224304,-0.99385071,0.061035,0.061035,-0.122070
6624944041,0.01261902,0.00234985,-0.99742126,-0.244141,0.122070,-0.061035
6634757291,0.01254272,0.00257874,-0.99539185,0.244141,0.305176,-0.061035
6644774125,0.01338196,0.00355530,-0.99945068,-0.061035,0.366211,-0.061035
6654727500,0.01318359,0.00517273,-0.99420166,0.122070,0.183105,-0.061035
6664856375,0.01329041,0.00584412,-0.99566650,0.061035,0.183105,-0.061035
6675048708,0.01316833,0.00778198,-0.99676514,0.122070,0.122070,-0.122070
6685161875,0.01229858,0.00721741,-0.99549866,0.000000,0.122070,0.000000
6695290250,0.01252747,0.00651550,-0.99775696,-0.122070,0.122070,0.000000
6705006666,0.01213074,0.00437927,-0.99678040,0.000000,0.183105,-0.061035
6715218500,0.01231384,0.00337219,-0.99732971,0.122070,0.244141,-0.183105
6725396333,0.01239014,0.00152588,-0.99519348,0.061035,0.244141,0.000000
6733023541,0.01190186,0.00032043,-0.99615479,0.061035,0.244141,0.000000
6735430666,0.01190186,0.00032043,-0.99615479,-0.061035,0.122070,-0.122070
6743028041,0.01217651,0.00030518,-0.99690247,-0.061035,0.122070,-0.122070
6745221625,0.01217651,0.00030518,-0.99690247,0.000000,0.122070,-0.244141
6752813833,0.01252747,0.00106812,-0.99620056,0.000000,0.122070,-0.244141
6755361500,0.01252747,0.00106812,-0.99620056,0.000000,0.183105,-0.183105
6762959458,0.01242065,0.00280762,-0.99719238,0.000000,0.183105,-0.183105
6765531291,0.01242065,0.00280762,-0.99719238,0.000000,0.183105,-0.366211
6773138041,0.01246643,0.00402832,-0.99589539,0.000000,0.183105,-0.366211
6775681458,0.01246643,0.00402832,-0.99589539,0.061035,0.061035,-0.183105
6783287833,0.01127625,0.00460815,-0.99703979,0.061035,0.061035,-0.183105
6785837666,0.01127625,0.00460815,-0.99703979,0.061035,-0.061035,-0.122070
6793421791,0.01309204,0.00578308,-0.99649048,0.061035,-0.061035,-0.122070
6795948958,0.01309204,0.00578308,-0.99649048,0.183105,0.122070,-0.061035
6803507000,0.01414490,0.00761414,-0.99702454,0.183105,0.122070,-0.061035
6806061125,0.01414490,0.00761414,-0.99702454,-0.061035,0.183105,-0.122070
6813192666,0.01130676,0.00822449,-0.99673462,-0.061035,0.183105,-0.122070
6815742208,0.01130676,0.00822449,-0.99673462,0.122070,0.244141,-0.183105
6823327708,0.01092529,0.00717163,-0.99597168,0.122070,0.244141,-0.183105
6825869208,0.01092529,0.00717163,-0.99597168,0.061035,0.183105,0.000000
6833476166,0.01190186,0.00675964,-0.99691772,0.061035,0.183105,0.000000
6836022791,0.01190186,0.00675964,-0.99691772,0.122070,0.183105,-0.061035
6843633708,0.01315308,0.00610352,-0.99641418,0.122070,0.183105,-0.061035
6846174166,0.01315308,0.00610352,-0.99641418,0.061035,0.122070,0.061035
6853690125,0.01316833,0.00422668,-0.99638367,0.061035,0.122070,0.061035
6856249291,0.01316833,0.00422668,-0.99638367,-0.122070,0.000000,0.000000
6863889000,0.01332092,0.00257874,-0.99617004,-0.122070,0.000000,0.000000
6866433541,0.01332092,0.00257874,-0.99617004,0.061035,0.244141,-0.061035
6874032500,0.01373291,0.00213623,-0.99682617,0.061035,0.244141,-0.061035
6876563500,0.01373291,0.00213623,-0.99682617,0.122070,0.305176,-0.061035
6884141583,0.01368713,0.00189209,-0.99623108,0.122070,0.305176,-0.061035
6886682250,0.01368713,0.00189209,-0.99623108,0.122070,0.183105,-0.122070
6893950375,0.01225281,0.00164795,-0.99603271,0.122070,0.183105,-0.122070
6896480333,0.01225281,0.00164795,-0.99603271,0.122070,0.183105,-0.061035
6904084208,0.01145935,0.00318909,-0.99829102,0.122070,0.183105,-0.061035
6906384583,0.01145935,0.00318909,-0.99829102,0.061035,0.061035,-0.122070
6913972791,0.01188660,0.00390625,-0.99642944,0.061035,0.061035,-0.122070
6916521583,0.01188660,0.00390625,-0.99642944,0.061035,0.244141,-0.183105
6924138833,0.01049805,0.00489807,-0.99717712,0.061035,0.244141,-0.183105
6926687208,0.01049805,0.00489807,-0.99717712,0.122070,0.183105,-0.244141
6934305375,0.01084900,0.00590515,-0.99699402,0.122070,0.183105,-0.244141
6936861541,0.01084900,0.00590515,-0.99699402,0.183105,0.061035,-0.183105
6944125125,0.01182556,0.00617981,-0.99549866,0.183105,0.061035,-0.183105
6946668416,0.01182556,0.00617981,-0.99549866,0.061035,0.427246,-0.122070
6953766833,0.01330566,0.00564575,-0.99748230,0.061035,0.427246,-0.122070
6956259333,0.01330566,0.00564575,-0.99748230,0.000000,0.122070,-0.122070
6963810208,0.01345825,0.00517273,-0.99899292,0.000000,0.122070,-0.122070
6966359958,0.01345825,0.00517273,-0.99899292,-0.122070,0.122070,0.000000
6973981625,0.01232910,0.00421143,-0.99452209,-0.122070,0.122070,0.000000
6976538625,0.01232910,0.00421143,-0.99452209,0.061035,0.061035,-0.122070
6984124583,0.01344299,0.00355530,-0.99729919,0.061035,0.061035,-0.122070
6986355958,0.01344299,0.00355530,-0.99729919,-0.061035,0.183105,-0.122070
6993938833,0.01387024,0.00215149,-0.99717712,-0.061035,0.183105,-0.122070
6996478541,0.01387024,0.00215149,-0.99717712,0.000000,0.183105,-0.183105
7006336125,0.01228333,0.00187683,-0.99699402,0.122070,0.366211,-0.122070
7013954708,0.01239014,0.00221252,-0.99763489,0.122070,0.366211,-0.122070
7016498541,0.01239014,0.00221252,-0.99763489,0.061035,0.122070,-0.244141
7024092708,0.01344299,0.00305176,-0.99647522,0.061035,0.122070,-0.244141
7026659333,0.01344299,0.00305176,-0.99647522,0.061035,0.244141,-0.183105
7034264333,0.01147461,0.00399780,-0.99678040,0.061035,0.244141,-0.183105
7036808541,0.01147461,0.00399780,-0.99678040,0.000000,0.244141,-0.061035
7044407583,0.01165771,0.00628662,-0.99775696,0.000000,0.244141,-0.061035
7046952166,0.01165771,0.00628662,-0.99775696,0.061035,0.244141,0.000000
7054207750,0.01202393,0.00738525,-0.99546814,0.061035,0.244141,0.000000
7056754166,0.01202393,0.00738525,-0.99546814,0.122070,0.183105,-0.061035
7064386416,0.01173401,0.00689697,-0.99568176,0.122070,0.183105,-0.061035
7066934750,0.01173401,0.00689697,-0.99568176,0.183105,0.122070,0.061035
7074525041,0.01321411,0.00778198,-0.99678040,0.183105,0.122070,0.061035
7077062958,0.01321411,0.00778198,-0.99678040,0.183105,0.183105,-0.061035
7084685416,0.01362610,0.00726318,-0.99778748,0.183105,0.183105,-0.061035
7087230291,0.01362610,0.00726318,-0.99778748,0.061035,0.122070,-0.061035
7094831916,0.01383972,0.00459290,-0.99618530,0.000000,0.122070,0.000000
7104939083,0.01353455,0.00256348,-0.99761963,0.122070,0.183105,-0.122070
7115009583,0.01324463,0.00234985,-0.99743652,0.122070,0.183105,-0.122070
7117556666,0.01324463,0.00234985,-0.99743652,0.122070,0.122070,-0.061035
7125160833,0.01296997,0.00164795,-0.99626160,0.000000,0.305176,-0.183105
7135323750,0.01361084,0.00230408,-0.99652100,0.061035,0.305176,-0.244141
7145299708,0.01200867,0.00273132,-0.99656677,-0.061035,0.122070,0.000000
7155425750,0.01193237,0.00352478,-0.99818420,-0.061035,0.183105,-0.061035
7165512000,0.01223755,0.00598145,-0.99761963,0.000000,0.244141,-0.061035
7175630375,0.01210022,0.00698853,-0.99627686,0.000000,0.183105,-0.061035
7185416625,0.01148987,0.00645447,-0.99693298,0.366211,0.244141,-0.244141
7195556916,0.01133728,0.00579834,-0.99388123,-0.061035,-0.061035,-0.061035
7205702041,0.01222229,0.00471497,-1.00070190,-0.122070,0.183105,-0.061035
7215444708,0.01228333,0.00473022,-0.99188232,0.122070,0.122070,0.000000
7225585166,0.01258850,0.00399780,-1.00012207,-0.061035,0.122070,-0.122070
7235733708,0.01409912,0.00302124,-0.99424744,0.183105,0.183105,-0.122070
7245892375,0.01330566,0.00238037,-0.99800110,0.000000,0.244141,-0.061035
7255849500,0.01393127,0.00454712,-0.99505615,-0.061035,0.244141,-0.183105
7265900875,0.01216125,0.00439453,-0.99653625,0.122070,0.183105,0.000000
7275705833,0.01168823,0.00384521,-0.99697876,0.183105,0.305176,-0.061035
7285850833,0.01191711,0.00424194,-0.99551392,-0.183105,0.183105,-0.061035
7295979666,0.01072693,0.00534058,-1.00010681,-0.122070,0.183105,-0.061035
7306119000,0.01203918,0.00587463,-0.99223328,0.122070,0.183105,-0.061035
7315943125,0.01210022,0.00646973,-0.99925232,0.122070,0.183105,-0.061035
7318493541,0.01210022,0.00646973,-0.99925232,0.061035,0.183105,0.000000
7326110750,0.01268005,0.00599670,-0.99542236,0.183105,0.183105,-0.061035
7336344791,0.01228333,0.00523376,-0.99798584,0.061035,0.183105,-0.183105
7346489708,0.01113892,0.00515747,-0.99693298,0.061035,0.183105,-0.061035
7356309250,0.01257324,0.00524902,-0.99645996,0.061035,0.000000,0.000000
7366422041,0.01240540,0.00427246,-0.99673462,0.000000,0.122070,-0.122070
7376102125,0.01347351,0.00302124,-0.99624634,-0.061035,0.061035,0.000000
7386227666,0.01367188,0.00335693,-0.99761963,0.061035,0.000000,-0.122070
7396279583,0.01266479,0.00238037,-0.99320984,0.305176,0.061035,-0.061035
7406464625,0.01239014,0.00283813,-0.98915100,-0.122070,0.305176,-0.122070
7416590625,0.01271057,0.00299072,-1.01089478,-0.061035,0.183105,-0.183105
7426698958,0.01284790,0.00317383,-0.99267578,0.061035,0.366211,-0.183105
7436823250,0.01228333,0.00296021,-1.00271606,-0.061035,0.305176,-0.122070
7446944375,0.01245117,0.00245667,-0.99365234,0.122070,0.183105,-0.122070
7457068416,0.01054382,0.00337219,-0.99937439,0.000000,0.183105,-0.183105
7466730833,0.00895691,0.00529480,-0.99569702,0.000000,0.183105,-0.061035
7476906125,0.00956726,0.00672913,-0.99626160,0.000000,0.183105,-0.061035
7487054000,0.00997925,0.00875854,-0.99668884,-0.183105,-0.122070,-0.183105
7496923208,0.01164246,0.01013184,-0.99691772,-0.244141,0.305176,-0.061035
7507069333,0.01312256,0.00872803,-0.99972534,0.061035,0.244141,-0.122070
7517189458,0.01535034,0.00599670,-0.99412537,0.122070,0.183105,-0.061035
7524863708,0.01487732,0.00526428,-0.99819946,0.122070,0.183105,-0.061035
7527404416,0.01487732,0.00526428,-0.99819946,0.000000,0.183105,-0.061035
7534999583,0.01472473,0.00245667,-0.99569702,0.000000,0.183105,-0.061035
7537562041,0.01472473,0.00245667,-0.99569702,0.122070,0.183105,-0.122070
7545024375,0.01344299,-0.00006104,-0.99708557,0.122070,0.183105,-0.122070
7547574666,0.01344299,-0.00006104,-0.99708557,-0.122070,0.183105,-0.122070
7555174375,0.01086426,-0.00009155,-0.99580383,-0.122070,0.183105,-0.122070
7557714958,0.01086426,-0.00009155,-0.99580383,0.000000,0.183105,-0.183105
7565310458,0.01055908,0.00166321,-0.99784851,0.000000,0.183105,-0.183105
7567861000,0.01055908,0.00166321,-0.99784851,0.122070,0.061035,-0.122070
7575426666,0.01147461,0.00242615,-0.99607849,0.122070,0.061035,-0.122070
7577951000,0.01147461,0.00242615,-0.99607849,0.061035,0.183105,-0.061035
7585524541,0.00978088,0.00500488,-0.99613953,0.061035,0.183105,-0.061035
7587825375,0.00978088,0.00500488,-0.99613953,0.122070,0.183105,-0.061035
7595417083,0.01060486,0.00776672,-0.99755859,0.122070,0.183105,-0.061035
7597960916,0.01060486,0.00776672,-0.99755859,0.122070,0.122070,0.000000
7605558166,0.01213074,0.00839233,-0.99684143,0.122070,0.122070,0.000000
7608093166,0.01213074,0.00839233,-0.99684143,0.061035,0.183105,0.000000
7615681541,0.01255798,0.00915527,-0.99705505,0.061035,0.183105,0.000000
7618226958,0.01255798,0.00915527,-0.99705505,0.061035,-0.427246,-0.061035
7625818291,0.01335144,0.00906372,-0.99131775,0.061035,-0.427246,-0.061035
7628357541,0.01335144,0.00906372,-0.99131775,-0.061035,0.183105,-0.061035
7635931875,0.01306152,0.00680542,-0.99514771,-0.061035,0.183105,-0.061035
7638496458,0.01306152,0.00680542,-0.99514771,0.183105,0.000000,-0.122070
7646149916,0.01348877,0.00390625,-1.00065613,0.183105,0.122070,-0.061035
7656310250,0.01333618,0.00216675,-0.99520874,0.122070,0.122070,-0.061035
7666490833,0.01338196,0.00022888,-0.99870300,0.000000,0.244141,-0.183105
7676646625,0.01313782,-0.00076294,-0.99703979,-0.122070,0.305176,-0.061035
7686458833,0.01155090,0.00032043,-0.99787903,0.183105,0.244141,-0.122070
7696588375,0.01152039,0.00392151,-0.99728394,0.061035,0.244141,-0.183105
7706706375,0.01029968,0.00505066,-0.99557495,0.122070,0.244141,-0.061035
7716827791,0.01039124,0.00714111,-0.99705505,0.183105,0.061035,0.000000
7726916041,0.01216125,0.00914001,-0.99728394,0.427246,0.427246,0.000000
7736631166,0.01119995,0.00988770,-0.99414062,-0.061035,0.061035,0.061035
7746757291,0.01211548,0.00784302,-1.00154114,0.122070,0.244141,-0.122070
7756597958,0.01489258,0.00663757,-0.99221802,0.122070,0.244141,-0.122070
7759134041,0.01489258,0.00663757,-0.99221802,-0.122070,0.244141,-0.061035
7766738541,0.01348877,0.00559998,-0.99841309,-0.122070,0.244141,-0.061035
7769284750,0.01348877,0.00559998,-0.99841309,0.061035,0.061035,-0.061035
7776878916,0.01353455,0.00254822,-0.99530029,0.061035,0.122070,-0.122070
7787011666,0.01388550,0.00009155,-0.99667358,0.122070,0.244141,-0.122070
7797170791,0.01354980,0.00004578,-0.99679565,0.061035,0.061035,-0.122070
7807320833,0.01330566,0.00140381,-0.99682617,0.000000,0.183105,-0.244141
7817001208,0.01213074,0.00352478,-0.99732971,0.061035,0.183105,-0.183105
7827132541,0.01168823,0.00505066,-0.99707031,0.061035,0.122070,-0.061035
7837344541,0.01235962,0.00627136,-0.99880981,0.122070,0.244141,-0.061035
7847529083,0.01176453,0.00764465,-0.99572754,0.183105,0.061035,-0.061035
7857805791,0.01116943,0.00816345,-0.99612427,0.000000,0.244141,-0.183105
7867849541,0.01087952,0.00717163,-0.99620056,0.061035,0.061035,-0.061035
7877978250,0.01181030,0.00596619,-0.99609375,0.000000,0.061035,0.000000
7887798916,0.01232910,0.00482178,-0.99765015,0.061035,0.122070,0.000000
7897962375,0.01278687,0.00300598,-0.99659729,0.061035,0.183105,-0.061035
7908092750,0.01353455,0.00141907,-0.99716187,-0.122070,0.183105,0.061035
7918238791,0.01336670,0.00221252,-0.99630737,-0.061035,0.183105,0.000000
7925866541,0.01264954,0.00228882,-0.99621582,-0.061035,0.183105,0.000000
7928426541,0.01264954,0.00228882,-0.99621582,0.000000,0.122070,-0.122070
7936030208,0.01274109,0.00292969,-0.99711609,0.000000,0.122070,-0.122070
7938574541,0.01274109,0.00292969,-0.99711609,0.183105,0.305176,-0.061035
7946160208,0.01251221,0.00419617,-0.99588013,0.183105,0.305176,-0.061035
7948706208,0.01251221,0.00419617,-0.99588013,0.000000,0.244141,-0.183105
7956296875,0.01196289,0.00450134,-0.99688721,0.000000,0.244141,-0.183105
7958837541,0.01196289,0.00450134,-0.99688721,0.061035,0.244141,-0.061035
7966216750,0.01277161,0.00636292,-0.99658203,0.061035,0.244141,-0.061035
7968762000,0.01277161,0.00636292,-0.99658203,0.061035,0.122070,-0.061035
7976378125,0.01246643,0.00715637,-0.99803162,0.061035,0.122070,-0.061035
7978921833,0.01246643,0.00715637,-0.99803162,0.061035,0.183105,-0.122070
7986511166,0.01113892,0.00617981,-0.99598694,0.061035,0.183105,-0.122070
7989059208,0.01113892,0.00617981,-0.99598694,0.122070,0.183105,-0.061035
7996677375,0.01248169,0.00546265,-0.99749756,0.122070,0.183105,-0.061035
7999223541,0.01248169,0.00546265,-0.99749756,0.244141,-0.061035,0.000000
8006370458,0.01261902,0.00558472,-0.99633789,0.244141,-0.061035,0.000000
8008921375,0.01261902,0.00558472,-0.99633789,0.000000,0.244141,-0.061035
8016505333,0.01298523,0.00498962,-0.99766541,0.000000,0.244141,-0.061035
8019043625,0.01298523,0.00498962,-0.99766541,0.061035,0.061035,-0.122070
8026162083,0.01223755,0.00372314,-0.99664307,0.061035,0.061035,-0.122070
8028710250,0.01223755,0.00372314,-0.99664307,0.061035,0.244141,-0.122070
8035901416,0.01307678,0.00285339,-0.99507141,0.061035,0.244141,-0.122070
8038429625,0.01307678,0.00285339,-0.99507141,0.122070,0.122070,-0.061035
8046000958,0.01318359,0.00291443,-0.99710083,0.122070,0.122070,-0.061035
8048554916,0.01318359,0.00291443,-0.99710083,0.061035,0.000000,-0.183105
8056160791,0.01301575,0.00292969,-0.99632263,0.061035,0.000000,-0.183105
8058703208,0.01301575,0.00292969,-0.99632263,0.061035,0.183105,-0.061035
8066322791,0.01271057,0.00325012,-0.99765015,0.061035,0.183105,-0.061035
8068850375,0.01271057,0.00325012,-0.99765015,0.061035,0.183105,-0.061035
8076104000,0.01232910,0.00320435,-0.99729919,0.061035,0.183105,-0.061035
8078480625,0.01232910,0.00320435,-0.99729919,0.183105,0.122070,-0.244141
8086097500,0.01220703,0.00381470,-0.99749756,0.183105,0.122070,-0.244141
8088642666,0.01220703,0.00381470,-0.99749756,0.183105,0.305176,-0.061035
8096274833,0.01147461,0.00596619,-0.99705505,0.183105,0.305176,-0.061035
8098829750,0.01147461,0.00596619,-0.99705505,0.061035,0.183105,-0.122070
8106429375,0.01126099,0.00605774,-0.99681091,0.061035,0.183105,-0.122070
8108980750,0.01126099,0.00605774,-0.99681091,0.000000,0.122070,0.000000
8116565791,0.01293945,0.00640869,-0.99642944,0.000000,0.122070,0.000000
8118824375,0.01293945,0.00640869,-0.99642944,0.122070,0.244141,-0.122070
8126438416,0.01283264,0.00584412,-0.99606323,0.122070,0.244141,-0.122070
8128981541,0.01283264,0.00584412,-0.99606323,-0.061035,0.061035,-0.061035
8136575416,0.01168823,0.00558472,-0.99693298,-0.061035,0.061035,-0.061035
8139114291,0.01168823,0.00558472,-0.99693298,0.061035,0.122070,-0.122070
8146698208,0.01206970,0.00588989,-0.99778748,0.061035,0.122070,-0.122070
8149247791,0.01206970,0.00588989,-0.99778748,0.000000,0.061035,-0.061035
8156851291,0.01210022,0.00534058,-0.99743652,0.000000,0.061035,-0.061035
8159397500,0.01210022,0.00534058,-0.99743652,0.122070,0.122070,-0.061035
8166499708,0.01142883,0.00563049,-0.99687195,0.122070,0.122070,-0.061035
8169051000,0.01142883,0.00563049,-0.99687195,0.000000,0.305176,-0.061035
8176640458,0.01182556,0.00462341,-0.99717712,0.000000,0.305176,-0.061035
8179183333,0.01182556,0.00462341,-0.99717712,-0.061035,0.183105,-0.122070
8186781875,0.01167297,0.00402832,-0.99813843,-0.061035,0.183105,-0.122070
8189313166,0.01167297,0.00402832,-0.99813843,0.000000,0.183105,-0.183105
8196629791,0.01277161,0.00350952,-0.99678040,0.000000,0.183105,-0.183105
8199152791,0.01277161,0.00350952,-0.99678040,0.244141,0.061035,-0.061035
8206590875,0.01303101,0.00389099,-0.99610901,0.244141,0.061035,-0.061035
8208794041,0.01303101,0.00389099,-0.99610901,0.000000,0.305176,-0.061035
8216411750,0.01257324,0.00410461,-0.99595642,0.000000,0.305176,-0.061035
8218951208,0.01257324,0.00410461,-0.99595642,0.061035,0.244141,-0.183105
8226549750,0.01251221,0.00408936,-0.99600220,0.061035,0.244141,-0.183105
8229106291,0.01251221,0.00408936,-0.99600220,0.122070,0.183105,-0.061035
8236696625,0.01313782,0.00502014,-0.99606323,0.122070,0.183105,-0.061035
8239234083,0.01313782,0.00502014,-0.99606323,0.061035,0.183105,-0.122070
8246482166,0.01196289,0.00611877,-0.99731445,0.061035,0.183105,-0.122070
8249029250,0.01196289,0.00611877,-0.99731445,0.000000,0.244141,-0.183105
8256624208,0.01182556,0.00573730,-0.99682617,0.000000,0.244141,-0.183105
8259170875,0.01182556,0.00573730,-0.99682617,0.122070,0.061035,-0.061035
8266295750,0.01176453,0.00498962,-0.99813843,0.122070,0.061035,-0.061035
8268841000,0.01176453,0.00498962,-0.99813843,0.000000,0.183105,-0.122070
8278745833,0.01197815,0.00558472,-0.99693298,0.244141,0.244141,-0.061035
8288763250,0.01237488,0.00579834,-0.99243164,0.183105,0.427246,0.000000
8298930083,0.01278687,0.00436401,-0.99835205,0.244141,0.183105,-0.061035
8308764750,0.01231384,0.00389099,-0.99139404,0.061035,0.183105,-0.122070
8318969291,0.01222229,0.00291443,-1.00849915,0.122070,0.061035,-0.061035
8328809833,0.01257324,0.00300598,-0.99359131,0.061035,-0.061035,-0.183105
8338951750,0.01301575,0.00462341,-0.99909973,-0.061035,-0.122070,-0.183105
8349049666,0.01277161,0.00512695,-0.99247742,-0.061035,0.122070,-0.122070
8359174291,0.01284790,0.00634766,-1.00053406,0.000000,0.122070,-0.183105
8369099791,0.01145935,0.00668335,-0.99201965,0.000000,0.061035,-0.061035
8379226375,0.00985718,0.00679016,-0.99838257,-0.061035,0.244141,-0.061035
8386818625,0.01202393,0.00622559,-0.99627686,-0.061035,0.244141,-0.061035
8389355916,0.01202393,0.00622559,-0.99627686,0.000000,0.122070,-0.061035
8396956791,0.01234436,0.00691223,-0.99742126,0.000000,0.122070,-0.061035
8399498791,0.01234436,0.00691223,-0.99742126,0.061035,0.244141,0.061035
8407089416,0.01370239,0.00614929,-0.99682617,0.061035,0.244141,0.061035
8409633791,0.01370239,0.00614929,-0.99682617,0.061035,0.305176,-0.061035
8417238541,0.01364136,0.00308228,-0.99568176,0.061035,0.305176,-0.061035
8419789125,0.01364136,0.00308228,-0.99568176,0.061035,0.183105,-0.061035
8427408125,0.01296997,0.00312805,-0.99681091,0.061035,0.183105,-0.061035
8429957041,0.01296997,0.00312805,-0.99681091,0.183105,0.183105,-0.183105
8437546833,0.01396179,0.00270081,-0.99516296,0.183105,0.183105,-0.183105
8440102541,0.01396179,0.00270081,-0.99516296,0.244141,0.244141,-0.183105
8447716750,0.01290894,0.00138855,-0.99659729,0.244141,0.244141,-0.183105
8450262041,0.01290894,0.00138855,-0.99659729,0.061035,0.122070,-0.061035
8457540166,0.01354980,0.00102234,-0.99555969,0.061035,0.122070,-0.061035
8460098625,0.01354980,0.00102234,-0.99555969,0.061035,0.122070,-0.183105
8467545291,0.01353455,0.00180054,-0.99588013,0.061035,0.122070,-0.183105
8470090416,0.01353455,0.00180054,-0.99588013,0.061035,0.183105,-0.122070
8477683083,0.01251221,0.00225830,-0.99688721,0.061035,0.183105,-0.122070
8480225791,0.01251221,0.00225830,-0.99688721,0.122070,0.122070,-0.183105
8487811791,0.01246643,0.00378418,-0.99690247,0.122070,0.122070,-0.183105
8490353083,0.01246643,0.00378418,-0.99690247,0.122070,0.183105,-0.122070
8497944833,0.01205444,0.00466919,-0.99626160,0.122070,0.183105,-0.122070
8500471916,0.01205444,0.00466919,-0.99626160,0.122070,0.305176,-0.122070
8507652166,0.01077271,0.00592041,-0.99661255,0.122070,0.305176,-0.122070
8510201833,0.01077271,0.00592041,-0.99661255,0.061035,0.061035,-0.183105
8517548583,0.01033020,0.00842285,-0.99726868,0.061035,0.061035,-0.183105
8520092416,0.01033020,0.00842285,-0.99726868,0.183105,0.183105,-0.183105
8527678583,0.01184082,0.00750732,-0.99674988,0.183105,0.183105,-0.183105
8530239041,0.01184082,0.00750732,-0.99674988,0.061035,0.122070,0.061035
8537810000,0.01210022,0.00750732,-0.99493408,0.061035,0.122070,0.061035
8540346375,0.01210022,0.00750732,-0.99493408,0.183105,0.122070,-0.183105
8547952916,0.01191711,0.00656128,-0.99786377,0.183105,0.122070,-0.183105
8550498541,0.01191711,0.00656128,-0.99786377,0.122070,0.183105,-0.122070
8558082166,0.01199341,0.00558472,-0.99583435,0.122070,0.183105,-0.122070
8560726291,0.01199341,0.00558472,-0.99583435,0.061035,0.183105,-0.061035
8568337000,0.01164246,0.00503540,-0.99615479,0.061035,0.122070,-0.061035
8578450125,0.01300049,0.00306702,-0.99639893,0.183105,0.122070,-0.122070
8588083958,0.01390076,0.00364685,-0.99659729,0.183105,0.122070,-0.122070
8590656541,0.01390076,0.00364685,-0.99659729,-0.061035,0.122070,-0.122070
8598265291,0.01304626,0.00364685,-0.99662781,-0.061035,0.122070,-0.122070
8600816791,0.01304626,0.00364685,-0.99662781,0.183105,0.183105,-0.061035
8608285916,0.01249695,0.00344849,-0.99633789,0.183105,0.183105,-0.061035
8610828375,0.01249695,0.00344849,-0.99633789,0.061035,0.183105,-0.061035
8618273875,0.01335144,0.00350952,-0.99645996,0.061035,0.183105,-0.061035
8620856625,0.01335144,0.00350952,-0.99645996,0.000000,0.122070,-0.122070
8628472500,0.01240540,0.00331116,-0.99610901,0.000000,0.122070,-0.122070
8630734208,0.01240540,0.00331116,-0.99610901,0.061035,0.183105,-0.122070
8638325791,0.01216125,0.00524902,-0.99575806,0.061035,0.183105,-0.122070
8640889833,0.01216125,0.00524902,-0.99575806,0.122070,0.244141,-0.122070
8648489583,0.01258850,0.00581360,-0.99755859,0.122070,0.244141,-0.122070
8651055666,0.01258850,0.00581360,-0.99755859,0.122070,0.061035,-0.061035
8658725708,0.01202393,0.00564575,-0.99606323,0.122070,0.061035,-0.061035
8661288666,0.01202393,0.00564575,-0.99606323,0.122070,0.244141,-0.122070
8668940625,0.01087952,0.00531006,-0.99549866,0.061035,0.183105,-0.061035
8678932625,0.01136780,0.00437927,-0.99731445,0.061035,0.183105,-0.061035
8681519500,0.01136780,0.00437927,-0.99731445,0.122070,0.183105,-0.122070
8688982208,0.01271057,0.00593567,-0.99774170,0.061035,0.122070,-0.122070
8698845125,0.01219177,0.00544739,-0.99488831,0.061035,0.183105,0.000000
8708993125,0.01283264,0.00460815,-0.99618530,0.061035,0.244141,-0.183105
8719201041,0.01208496,0.00404358,-0.99665833,-0.061035,0.061035,0.061035
8729748416,0.01281738,0.00346375,-0.99633789,0.000000,0.122070,-0.183105
8740057166,0.01345825,0.00292969,-0.99563599,0.061035,0.061035,-0.061035
8751303791,0.01138306,0.00360107,-0.99571228,0.061035,0.061035,-0.061035
8764013750,0.01138306,0.00360107,-0.99571228,0.061035,0.183105,-0.061035
8766822583,0.01089478,0.00378418,-0.99745178,0.061035,0.183105,-0.061035
8769290875,0.01130676,0.00428772,-0.99513245,0.000000,0.183105,-0.183105
8779358000,0.01208496,0.00482178,-0.99699402,0.000000,0.122070,-0.061035
8789461000,0.01324463,0.00410461,-0.99705505,0.061035,0.244141,-0.122070
8799257375,0.01266479,0.00596619,-0.99736023,0.305176,0.122070,-0.061035
8809170333,0.01300049,0.00559998,-0.99655151,0.000000,0.061035,-0.183105
8819662708,0.01257324,0.00544739,-0.99732971,0.000000,0.305176,-0.061035
8829867083,0.01336670,0.00485229,-0.99798584,0.183105,0.244141,-0.183105
8840159500,0.01333618,0.00454712,-0.99819946,0.122070,0.183105,0.061035
8847865166,0.01274109,0.00570679,-0.99818420,0.122070,0.183105,0.061035
8850649708,0.01274109,0.00570679,-0.99818420,0.000000,0.061035,-0.122070
8858780125,0.01232910,0.00585938,-0.99749756,0.000000,0.061035,-0.122070
8861390083,0.01232910,0.00585938,-0.99749756,0.000000,0.122070,-0.183105
8868806500,0.01190186,0.00663757,-0.99728394,0.000000,0.122070,-0.183105
8871407208,0.01190186,0.00663757,-0.99728394,0.122070,0.244141,-0.061035
8879040708,0.01237488,0.00633240,-0.99617004,0.061035,0.183105,-0.061035
8889216625,0.01312256,0.00518799,-0.99714661,0.122070,0.061035,-0.061035
8899213458,0.01211548,0.00534058,-0.99772644,0.061035,0.122070,-0.183105
8909595166,0.01174927,0.00386047,-0.99450684,0.183105,0.244141,-0.061035
8919769041,0.01281738,0.00175476,-0.99754333,0.122070,0.305176,-0.183105
8929939125,0.01254272,0.00102234,-0.99638367,-0.061035,0.061035,-0.061035
8940080875,0.01284790,0.00061035,-0.99731445,0.122070,0.183105,-0.061035
8949841708,0.01234436,0.00177002,-0.99734497,0.000000,0.061035,-0.122070
8959479166,0.01141357,0.00317383,-0.99606323,0.061035,0.122070,-0.244141
8969361916,0.01171875,0.00460815,-0.99572754,-0.061035,0.122070,-0.122070
8979526375,0.01119995,0.00607300,-0.99784851,0.061035,0.122070,-0.061035
8989709583,0.01194763,0.00671387,-0.99742126,0.061035,0.122070,-0.122070
8999834125,0.01077271,0.00683594,-0.99626160,0.061035,0.183105,-0.061035
9009509833,0.01152039,0.00738525,-0.99656677,0.061035,0.061035,-0.122070
9019636791,0.01188660,0.00703430,-0.99725342,0.061035,0.061035,-0.122070
9022195500,0.01188660,0.00703430,-0.99725342,0.000000,0.244141,0.061035
9029851333,0.01322937,0.00572205,-0.99630737,0.000000,0.183105,-0.122070
9039978541,0.01321411,0.00453186,-0.99697876,0.061035,0.183105,0.000000
9050128625,0.01283264,0.00262451,-0.99658203,0.000000,0.122070,-0.122070
9060273250,0.01292419,0.00152588,-0.99645996,0.122070,0.183105,-0.122070
9070417083,0.01199341,0.00154114,-0.99595642,0.000000,0.244141,0.000000
9080553625,0.01304626,0.00323486,-0.99703979,0.122070,0.000000,-0.183105
9090395875,0.01283264,0.00379944,-0.99591064,0.122070,0.183105,-0.061035
9100266916,0.01185608,0.00427246,-0.99656677,0.122070,0.122070,-0.183105
9110408250,0.01164246,0.00494385,-0.99687195,0.061035,0.244141,0.000000
9120507333,0.01252747,0.00621033,-0.99743652,0.000000,0.122070,0.000000
9130605166,0.01170349,0.00527954,-0.99624634,0.061035,0.183105,-0.183105
9140739291,0.01161194,0.00610352,-0.99603271,0.061035,0.061035,-0.122070
9150639250,0.01232910,0.00500488,-0.99574280,0.061035,0.305176,-0.122070
9160770708,0.01170349,0.00494385,-0.99636841,0.000000,0.122070,-0.061035
9170928125,0.01345825,0.00405884,-0.99522400,0.061035,0.244141,-0.122070
9181062291,0.01338196,0.00431824,-0.99641418,-0.061035,0.183105,-0.122070
9191180458,0.01225281,0.00440979,-0.99645996,0.122070,0.244141,-0.122070
9201328041,0.01319885,0.00384521,-0.99584961,0.061035,0.122070,-0.183105
9208923625,0.01325989,0.00373840,-0.99658203,0.061035,0.122070,-0.183105
9211474708,0.01325989,0.00373840,-0.99658203,0.122070,0.122070,-0.061035
9219068083,0.01310730,0.00444031,-0.99642944,0.122070,0.122070,-0.061035
9221625500,0.01310730,0.00444031,-0.99642944,0.061035,0.244141,-0.061035
9229234500,0.01208496,0.00456238,-0.99603271,0.061035,0.244141,-0.061035
9231777541,0.01208496,0.00456238,-0.99603271,0.061035,0.183105,-0.061035
9239378125,0.01235962,0.00527954,-0.99626160,0.061035,0.183105,-0.061035
9241679958,0.01235962,0.00527954,-0.99626160,0.122070,0.061035,-0.183105
9249135291,0.01194763,0.00433350,-0.99676514,0.122070,0.061035,-0.183105
9251675166,0.01194763,0.00433350,-0.99676514,-0.061035,0.122070,-0.122070
9259293250,0.01304626,0.00366211,-0.99732971,-0.061035,0.122070,-0.122070
9261834125,0.01304626,0.00366211,-0.99732971,0.244141,0.183105,-0.183105
9269306416,0.01148987,0.00444031,-0.99497986,0.244141,0.183105,-0.183105
9271495333,0.01148987,0.00444031,-0.99497986,0.061035,0.183105,0.000000
9279041208,0.01301575,0.00491333,-0.99804688,0.061035,0.183105,0.000000
9281513625,0.01301575,0.00491333,-0.99804688,0.122070,0.061035,-0.122070
9289103916,0.01316833,0.00421143,-0.99734497,0.122070,0.061035,-0.122070
9291641416,0.01316833,0.00421143,-0.99734497,0.122070,0.061035,-0.061035
9299250333,0.01210022,0.00500488,-0.99711609,0.122070,0.061035,-0.061035
9301794416,0.01210022,0.00500488,-0.99711609,-0.061035,0.000000,-0.061035
9309396250,0.01266479,0.00489807,-0.99702454,-0.061035,0.000000,-0.061035
9311947625,0.01266479,0.00489807,-0.99702454,0.061035,0.061035,-0.061035
9319540666,0.01249695,0.00448608,-0.99703979,0.061035,0.061035,-0.061035
9322080541,0.01249695,0.00448608,-0.99703979,0.061035,0.244141,-0.122070
9329689583,0.01219177,0.00334167,-0.99662781,0.061035,0.244141,-0.122070
9332251541,0.01219177,0.00334167,-0.99662781,0.000000,0.305176,-0.061035
9339841333,0.01264954,0.00344849,-0.99633789,0.000000,0.305176,-0.061035
9342379500,0.01264954,0.00344849,-0.99633789,-0.122070,0.000000,-0.183105
9349990458,0.01231384,0.00291443,-0.99639893,-0.122070,0.000000,-0.183105
9352532000,0.01231384,0.00291443,-0.99639893,0.183105,0.122070,-0.061035
9360181166,0.01214600,0.00460815,-0.99652100,0.000000,0.183105,-0.122070
9370330125,0.01231384,0.00404358,-0.99673462,0.000000,0.122070,-0.183105
9380456625,0.01296997,0.00366211,-0.99639893,-0.061035,0.061035,0.000000
9390371000,0.01220703,0.00421143,-0.99667358,0.122070,0.183105,-0.122070
9400513666,0.01237488,0.00506592,-0.99649048,0.122070,0.183105,-0.122070
9410646958,0.01300049,0.00529480,-0.99601746,-0.061035,0.122070,-0.061035
9420776125,0.01214600,0.00584412,-0.99684143,0.061035,0.061035,-0.061035
9430811666,0.01206970,0.00657654,-0.99621582,0.122070,0.244141,-0.061035
9440703958,0.01274109,0.00630188,-0.99697876,0.061035,0.244141,-0.122070
9450594333,0.01266479,0.00532532,-0.99650574,0.061035,0.244141,-0.122070
9453138625,0.01266479,0.00532532,-0.99650574,0.061035,0.183105,-0.061035
9460752583,0.01205444,0.00506592,-0.99577332,0.244141,0.183105,-0.122070
9470863625,0.01173401,0.00445557,-0.99633789,0.061035,0.244141,0.000000
9480808333,0.01333618,0.00332642,-0.99560547,0.061035,0.122070,-0.122070
9490919375,0.01246643,0.00396729,-0.99560547,0.061035,0.244141,-0.061035
9501047291,0.01231384,0.00320435,-0.99655151,0.183105,0.122070,-0.061035
9511176666,0.01313782,0.00227356,-0.99787903,0.061035,0.183105,-0.183105
9521369291,0.01414490,0.00418091,-0.99652100,0.061035,0.183105,-0.061035
9531560416,0.01240540,0.00489807,-0.99578857,0.122070,0.183105,-0.244141
9541694291,0.01220703,0.00535583,-0.99667358,0.061035,0.244141,-0.122070
9551676416,0.01109314,0.00494385,-0.99642944,0.061035,0.122070,-0.061035
9561851958,0.01159668,0.00511169,-0.99629211,0.061035,0.122070,-0.244141
9571832833,0.01242065,0.00437927,-0.99597168,0.000000,0.061035,-0.061035
9581945041,0.01237488,0.00408936,-0.99710083,0.000000,0.122070,-0.122070
9592086583,0.01147461,0.00546265,-0.99612427,-0.061035,0.183105,-0.183105
9599745541,0.01136780,0.00532532,-0.99720764,-0.061035,0.183105,-0.183105
9602312791,0.01136780,0.00532532,-0.99720764,0.000000,0.183105,-0.183105
9611997166,0.01245117,0.00531006,-0.99655151,0.122070,0.061035,-0.061035
9622135875,0.01194763,0.00488281,-0.99652100,0.061035,0.122070,-0.183105
9632281333,0.01263428,0.00561523,-0.99571228,0.000000,0.061035,-0.122070
9639879375,0.01257324,0.00558472,-0.99584961,0.000000,0.061035,-0.122070
9642419083,0.01257324,0.00558472,-0.99584961,0.122070,0.244141,-0.061035
9650017375,0.01225281,0.00473022,-0.99768066,0.122070,0.244141,-0.061035
9652562416,0.01225281,0.00473022,-0.99768066,0.183105,0.122070,-0.122070
9660163541,0.01164246,0.00413513,-0.99574280,0.183105,0.122070,-0.122070
9662724250,0.01164246,0.00413513,-0.99574280,0.122070,0.122070,-0.122070
9670322833,0.01206970,0.00556946,-0.99740601,0.122070,0.122070,-0.122070
9672880166,0.01206970,0.00556946,-0.99740601,0.061035,0.122070,-0.183105
9680116791,0.01220703,0.00569153,-0.99621582,0.061035,0.122070,-0.183105
9682663583,0.01220703,0.00569153,-0.99621582,0.061035,0.061035,-0.183105
9690223375,0.01199341,0.00547791,-0.99696350,0.061035,0.061035,-0.183105
9692765875,0.01199341,0.00547791,-0.99696350,0.061035,0.244141,0.000000
9700361583,0.01284790,0.00559998,-0.99572754,0.061035,0.244141,0.000000
9702899041,0.01284790,0.00559998,-0.99572754,0.122070,0.244141,-0.122070
9710496625,0.01272583,0.00663757,-0.99645996,0.122070,0.244141,-0.122070
9713039291,0.01272583,0.00663757,-0.99645996,0.000000,0.183105,-0.122070
9720648750,0.01153564,0.00630188,-0.99737549,0.000000,0.183105,-0.122070
9723201666,0.01153564,0.00630188,-0.99737549,0.000000,0.122070,-0.183105
9730806958,0.01150513,0.00650024,-0.99713135,0.000000,0.122070,-0.183105
9733378333,0.01150513,0.00650024,-0.99713135,0.000000,0.122070,0.000000
9740991125,0.01124573,0.00662231,-0.99696350,0.000000,0.122070,-0.122070
9751076500,0.01141357,0.00555420,-0.99577332,-0.061035,0.122070,-0.061035
9761236583,0.01197815,0.00590515,-0.99676514,0.122070,0.122070,-0.061035
9771327750,0.01208496,0.00439453,-0.99763489,0.122070,0.061035,-0.061035
9781468625,0.01226807,0.00320435,-0.99618530,0.183105,0.183105,0.000000
9791599916,0.01324463,0.00205994,-0.99757385,0.122070,0.183105,-0.122070
9801764541,0.01432800,0.00189209,-0.99580383,0.183105,0.122070,0.000000
9811913041,0.01348877,0.00253296,-0.99635315,0.061035,0.061035,-0.244141
9822057166,0.01333618,0.00334167,-0.99691772,0.122070,0.061035,-0.061035
9831935041,0.01252747,0.00344849,-0.99780273,0.061035,0.122070,-0.122070
9842066458,0.01213074,0.00453186,-0.99681091,0.183105,0.122070,0.061035
9852205875,0.01300049,0.00508118,-0.99687195,0.061035,0.061035,-0.061035
9862333625,0.01188660,0.00485229,-0.99554443,0.061035,0.122070,-0.061035
9872510958,0.01264954,0.00549316,-0.99665833,0.244141,0.122070,-0.183105
9880157625,0.01254272,0.00628662,-0.99676514,0.244141,0.122070,-0.183105
9882719458,0.01254272,0.00628662,-0.99676514,-0.061035,0.122070,-0.183105
9890165333,0.01203918,0.00546265,-0.99610901,-0.061035,0.122070,-0.183105
9892698291,0.01203918,0.00546265,-0.99610901,0.061035,0.244141,0.000000
9900295708,0.01225281,0.00466919,-0.99661255,0.061035,0.244141,0.000000
9902822625,0.01225281,0.00466919,-0.99661255,0.183105,0.305176,-0.122070
9910420250,0.01335144,0.00421143,-0.99655151,0.183105,0.305176,-0.122070
9912971583,0.01335144,0.00421143,-0.99655151,0.061035,0.244141,-0.122070
9920567583,0.01319885,0.00373840,-0.99787903,0.061035,0.244141,-0.122070
9923097000,0.01319885,0.00373840,-0.99787903,-0.122070,0.183105,-0.122070
9930423833,0.01309204,0.00292969,-0.99786377,-0.122070,0.183105,-0.122070
9933000583,0.01309204,0.00292969,-0.99786377,0.122070,0.061035,-0.122070
9940597750,0.01272583,0.00341797,-0.99707031,0.122070,0.061035,-0.122070
9943141625,0.01272583,0.00341797,-0.99707031,-0.061035,0.305176,-0.061035
9950615375,0.01269531,0.00355530,-0.99916077,-0.061035,0.305176,-0.061035
9953165583,0.01269531,0.00355530,-0.99916077,0.061035,0.122070,-0.244141
9960765250,0.01176453,0.00372314,-0.99601746,0.061035,0.122070,-0.244141
9963304958,0.01176453,0.00372314,-0.99601746,0.061035,0.244141,-0.061035
9970921541,0.01280212,0.00337219,-0.99743652,0.061035,0.244141,-0.061035
9973470333,0.01280212,0.00337219,-0.99743652,0.122070,0.122070,-0.244141
9981071291,0.01101685,0.00419617,-0.99656677,0.122070,0.122070,-0.244141
9983627083,0.01101685,0.00419617,-0.99656677,0.000000,0.183105,-0.122070
9991219000,0.01226807,0.00341797,-0.99597168,0.000000,0.183105,-0.122070
9993757000,0.01226807,0.00341797,-0.99597168,0.061035,0.305176,-0.122070
10001358833,0.01228333,0.00387573,-0.99539185,0.061035,0.305176,-0.122070
10003903541,0.01228333,0.00387573,-0.99539185,0.061035,0.305176,0.061035
10011496833,0.01300049,0.00410461,-0.99588013,0.061035,0.305176,0.061035
10014051458,0.01300049,0.00410461,-0.99588013,0.000000,0.122070,-0.244141
10021709541,0.01280212,0.00436401,-0.99736023,0.000000,0.122070,-0.244141
10024248625,0.01280212,0.00436401,-0.99736023,0.061035,0.122070,-0.183105
10031831750,0.01243591,0.00524902,-0.99662781,0.183105,0.305176,-0.244141
10041975625,0.01240540,0.00637817,-0.99676514,0.122070,0.122070,-0.183105
10051505250,0.01243591,0.00685120,-0.99656677,0.122070,0.122070,-0.183105
10054042333,0.01243591,0.00685120,-0.99656677,0.061035,0.183105,0.000000
10061611083,0.01161194,0.00587463,-0.99795532,0.061035,0.183105,0.000000
10064172166,0.01161194,0.00587463,-0.99795532,0.000000,0.061035,-0.122070
10071836875,0.01200867,0.00634766,-0.99674988,0.000000,0.061035,-0.122070
10081973750,0.01174927,0.00743103,-0.99546814,0.061035,0.183105,0.000000
10092092375,0.01258850,0.00645447,-0.99679565,0.061035,0.122070,0.000000
10102235958,0.01190186,0.00535583,-0.99678040,0.061035,0.183105,0.000000
10112355208,0.01152039,0.00634766,-0.99668884,0.061035,0.183105,-0.061035
10122078125,0.01177979,0.00456238,-0.99534607,0.000000,0.122070,-0.122070
10132282416,0.01271057,0.00427246,-0.99626160,0.122070,0.183105,-0.061035
10142150000,0.01295471,0.00347900,-0.99635315,0.183105,0.061035,0.000000
10152328375,0.01252747,0.00267029,-0.99783325,0.000000,0.244141,-0.061035
10162476083,0.01254272,0.00268555,-0.99586487,0.122070,0.122070,-0.122070
10172637291,0.01300049,0.00242615,-0.99641418,0.061035,0.244141,0.000000
10182471583,0.01152039,0.00382996,-0.99696350,0.061035,0.122070,-0.183105
10192627416,0.01144409,0.00488281,-0.99629211,0.122070,0.244141,-0.122070
10202709625,0.01141357,0.00531006,-0.99603271,0.061035,0.305176,-0.061035
10212897666,0.01246643,0.00433350,-0.99696350,0.122070,0.122070,-0.061035
10222622875,0.01226807,0.00459290,-0.99705505,0.122070,0.000000,-0.061035
10232750041,0.01252747,0.00508118,-0.99568176,-0.061035,0.061035,-0.183105
10242875833,0.01274109,0.00422668,-0.99732971,0.000000,0.305176,-0.061035
10253023083,0.01263428,0.00314331,-0.99708557,0.000000,0.061035,0.000000
10262819583,0.01173401,0.00303650,-0.99757385,0.061035,0.061035,-0.122070
10272748166,0.01188660,0.00355530,-0.99641418,0.061035,0.061035,-0.061035
10282913833,0.01277161,0.00228882,-0.99638367,0.061035,0.122070,-0.244141
10292841375,0.01223755,0.00239563,-0.99594116,0.122070,0.183105,-0.061035
10302967916,0.01258850,0.00151062,-0.99578857,0.061035,0.183105,-0.122070
10313011083,0.01345825,0.00305176,-0.99673462,0.122070,0.183105,-0.122070
10323157375,0.01272583,0.00352478,-0.99612427,0.122070,0.061035,-0.122070
10333263875,0.01254272,0.00451660,-0.99813843,-0.061035,0.122070,-0.061035
10343382333,0.01269531,0.00674438,-0.99800110,0.061035,0.122070,-0.122070
10353404416,0.01084900,0.00645447,-0.99339294,0.122070,0.183105,-0.122070
10363410000,0.01210022,0.00592041,-0.99685669,0.122070,0.183105,0.000000
10373538833,0.01271057,0.00674438,-0.99658203,0.000000,0.183105,-0.122070
10383733708,0.01441956,0.00677490,-0.99752808,0.000000,0.122070,-0.122070
10391360583,0.01420593,0.00532532,-0.99642944,0.000000,0.122070,-0.122070
10393906666,0.01420593,0.00532532,-0.99642944,-0.061035,0.061035,-0.061035
10404042000,0.01199341,0.00375366,-0.99771118,0.122070,0.183105,-0.061035
10414158375,0.01268005,0.00341797,-0.99618530,0.061035,0.305176,-0.061035
10424308666,0.01206970,0.00251770,-0.99665833,0.061035,0.183105,-0.122070
10431917166,0.01321411,0.00201416,-0.99671936,0.061035,0.183105,-0.122070
10434457583,0.01321411,0.00201416,-0.99671936,0.122070,0.183105,0.000000
10444271708,0.01345825,0.00248718,-0.99748230,0.122070,0.122070,-0.183105
10451902208,0.01458740,0.00265503,-0.99656677,0.122070,0.122070,-0.183105
10454443166,0.01458740,0.00265503,-0.99656677,0.061035,0.183105,-0.122070
10462050250,0.01463318,0.00364685,-0.99847412,0.061035,0.183105,-0.122070
10464601125,0.01463318,0.00364685,-0.99847412,0.000000,0.000000,-0.183105
10472235791,0.01106262,0.00476074,-0.99839783,0.000000,0.000000,-0.183105
10474791333,0.01106262,0.00476074,-0.99839783,0.000000,0.122070,-0.122070
10482386541,0.01019287,0.00585938,-0.99537659,0.000000,0.122070,-0.122070
10484930541,0.01019287,0.00585938,-0.99537659,0.122070,0.122070,-0.061035
10492523666,0.00990295,0.00613403,-0.99664307,0.122070,0.122070,-0.061035
10495072625,0.00990295,0.00613403,-0.99664307,0.061035,0.183105,-0.183105
10502331875,0.00964355,0.00791931,-0.99598694,0.061035,0.183105,-0.183105
10504871208,0.00964355,0.00791931,-0.99598694,0.061035,0.061035,-0.061035
10512181083,0.01219177,0.00840759,-0.99594116,0.061035,0.061035,-0.061035
10514717833,0.01219177,0.00840759,-0.99594116,0.488281,0.427246,-0.061035
10522310416,0.01220703,0.00590515,-0.98440552,0.488281,0.427246,-0.061035
10524850250,0.01220703,0.00590515,-0.98440552,-0.244141,0.427246,0.000000
10532500500,0.01390076,0.00460815,-1.00045776,-0.244141,0.427246,0.000000
10535048125,0.01390076,0.00460815,-1.00045776,0.671387,0.244141,-0.061035
10542610625,0.01463318,0.00376892,-1.00178528,0.671387,0.244141,-0.061035
10545154250,0.01463318,0.00376892,-1.00178528,-0.610352,0.122070,-0.122070
10552754833,0.01377869,0.00418091,-1.01148987,-0.610352,0.122070,-0.122070
10555313791,0.01377869,0.00418091,-1.01148987,0.000000,0.244141,-0.061035
10562556250,0.01014709,0.00573730,-1.00039673,0.000000,0.244141,-0.061035
10565138625,0.01014709,0.00573730,-1.00039673,-0.122070,0.305176,0.061035
10572741958,0.00865173,0.00781250,-0.98886108,-0.122070,0.305176,0.061035
10575287375,0.00865173,0.00781250,-0.98886108,-0.122070,0.183105,-0.122070
10582970708,0.01129150,0.00718689,-0.99226379,0.122070,0.122070,-0.061035
10593120791,0.01370239,0.00509644,-1.00016785,0.000000,0.183105,0.061035
10603327291,0.01525879,0.00343323,-0.99537659,0.061035,0.183105,-0.061035
10613460250,0.01440430,0.00305176,-0.99809265,-0.061035,0.122070,-0.122070
10623600125,0.01336670,0.00366211,-0.99475098,0.000000,0.061035,-0.061035
10633723666,0.01187134,0.00491333,-0.99685669,0.122070,0.122070,0.000000
10643889375,0.00996399,0.00483704,-0.99597168,0.122070,0.122070,0.000000
10654025083,0.01126099,0.00367737,-0.99574280,0.000000,0.122070,-0.122070
10664138000,0.01258850,0.00109863,-0.99819946,0.244141,0.061035,-0.061035
10674224541,0.01272583,0.00140381,-0.99523926,-0.122070,0.000000,-0.183105
10684370416,0.01228333,0.00132751,-0.99783325,0.122070,0.183105,-0.061035
10692009916,0.01107788,0.00117493,-0.99650574,0.122070,0.183105,-0.061035
10694553541,0.01107788,0.00117493,-0.99650574,0.061035,0.122070,-0.122070
10702151875,0.01141357,0.00221252,-0.99807739,0.061035,0.122070,-0.122070
10704708208,0.01141357,0.00221252,-0.99807739,0.183105,0.061035,-0.183105
10712333666,0.01208496,0.00366211,-0.99421692,0.183105,0.061035,-0.183105
10714878000,0.01208496,0.00366211,-0.99421692,0.183105,0.305176,-0.183105
10722475875,0.01261902,0.00502014,-0.99600220,0.183105,0.305176,-0.183105
10725020375,0.01261902,0.00502014,-0.99600220,0.305176,0.122070,-0.061035
10732605916,0.01425171,0.00599670,-1.00108337,0.305176,0.122070,-0.061035
10735146375,0.01425171,0.00599670,-1.00108337,-0.427246,0.305176,-0.061035
10742476500,0.01582336,0.00569153,-0.98335266,-0.427246,0.305176,-0.061035
10745021958,0.01582336,0.00569153,-0.98335266,0.671387,0.061035,-0.122070
10752639250,0.01564026,0.00543213,-1.01754761,0.671387,0.061035,-0.122070
10755177125,0.01564026,0.00543213,-1.01754761,-0.061035,0.183105,-0.122070
10762814500,0.01309204,0.00541687,-0.98336792,-0.061035,0.183105,-0.122070
10765384416,0.01309204,0.00541687,-0.98336792,-0.244141,0.244141,-0.244141
10772985500,0.01101685,0.00593567,-1.00779724,-0.244141,0.244141,-0.244141
10775539833,0.01101685,0.00593567,-1.00779724,-0.244141,0.183105,-0.122070
10783157750,0.01000977,0.00605774,-0.99229431,-0.244141,0.183105,-0.122070
10785705583,0.01000977,0.00605774,-0.99229431,-0.549316,0.366211,-0.061035
10792851791,0.00961304,0.00534058,-0.99606323,-0.549316,0.366211,-0.061035
10795318333,0.00961304,0.00534058,-0.99606323,0.427246,0.000000,0.000000
10802896208,0.01148987,0.00483704,-1.00064087,0.427246,0.000000,0.000000
10805438458,0.01148987,0.00483704,-1.00064087,-0.061035,0.183105,-0.183105
10813006625,0.01353455,0.00358582,-0.98867798,-0.061035,0.183105,-0.183105
10815535541,0.01353455,0.00358582,-0.98867798,-0.061035,0.305176,-0.122070
10822797958,0.01428223,0.00465393,-1.00045776,-0.061035,0.305176,-0.122070
10825208916,0.01428223,0.00465393,-1.00045776,-0.061035,0.122070,-0.183105
10832818125,0.01361084,0.00314331,-0.99586487,-0.061035,0.122070,-0.183105
10835377791,0.01361084,0.00314331,-0.99586487,0.183105,0.061035,-0.061035
10842985625,0.01184082,0.00439453,-0.99815369,0.183105,0.061035,-0.061035
10845543750,0.01184082,0.00439453,-0.99815369,-0.122070,0.183105,-0.183105
10853220250,0.01106262,0.00440979,-0.99644470,-0.122070,0.183105,-0.183105
10855771208,0.01106262,0.00440979,-0.99644470,0.122070,0.061035,-0.122070
10863376250,0.01000977,0.00540161,-0.99659729,0.122070,0.061035,-0.122070
10865927708,0.01000977,0.00540161,-0.99659729,-0.122070,0.122070,-0.061035
10873153375,0.01121521,0.00614929,-0.99765015,-0.122070,0.122070,-0.061035
10875706458,0.01121521,0.00614929,-0.99765015,0.000000,0.122070,0.000000
10883314625,0.01229858,0.00558472,-0.99597168,0.000000,0.122070,0.000000
10885877000,0.01229858,0.00558472,-0.99597168,0.610352,-0.427246,0.000000
10893499333,0.01167297,0.00518799,-0.98953247,0.610352,-0.427246,0.000000
10896044291,0.01167297,0.00518799,-0.98953247,-0.122070,0.610352,-0.122070
10903732375,0.01206970,0.00468445,-0.99884033,-0.122070,0.610352,-0.122070
10906293250,0.01206970,0.00468445,-0.99884033,0.122070,0.000000,-0.122070
10913893000,0.01383972,0.00500488,-1.00762939,0.000000,0.244141,-0.122070
10924046500,0.01420593,0.00547791,-0.98489380,0.305176,0.183105,-0.244141
10934173583,0.01434326,0.00239563,-1.00225830,0.122070,0.244141,0.000000
10944013958,0.01419067,0.00207520,-0.99673462,0.061035,0.122070,0.000000
10953388250,0.01298523,0.00175476,-1.00047302,0.061035,0.122070,0.000000
10955930875,0.01298523,0.00175476,-1.00047302,0.000000,0.122070,-0.122070
10963547083,0.01092529,0.00148010,-0.99566650,0.000000,0.122070,-0.122070
10966088583,0.01092529,0.00148010,-0.99566650,-0.061035,0.183105,0.061035
