timestamp_ns,accel_x,accel_y,accel_z,gyro_x,gyro_y,gyro_z
111565166,0.01458740,-0.00068665,-1.00109863,0.000000,0.000000,0.000000
114616666,0.01458740,-0.00068665,-1.00109863,0.061035,0.061035,-0.122070
125057791,0.01448059,0.00001526,-0.99993896,0.122070,0.061035,-0.183105
134115791,0.01506042,0.00064087,-1.00097656,0.183105,0.000000,0.000000
155350250,0.01564026,0.00059509,-1.00004578,0.122070,0.122070,-0.061035
158353333,0.01525879,0.00035095,-0.99952698,0.061035,0.000000,0.061035
164302666,0.01502991,0.00012207,-0.99885559,0.183105,0.183105,-0.061035
172399166,0.01469421,0.00001526,-1.00134277,0.000000,0.061035,0.000000
183879125,0.01530457,0.00032043,-0.99977112,0.000000,0.122070,0.000000
193401000,0.01577759,0.00001526,-0.99987793,0.000000,0.122070,0.000000
196144000,0.01577759,0.00001526,-0.99987793,0.000000,0.061035,-0.061035
204040958,0.01541138,-0.00146484,-0.99893188,0.000000,0.061035,-0.061035
206563375,0.01541138,-0.00146484,-0.99893188,-0.061035,0.000000,-0.061035
211602583,0.01487732,-0.00096130,-1.00094604,-0.061035,0.000000,-0.061035
214122875,0.01487732,-0.00096130,-1.00094604,0.244141,0.061035,-0.061035
221652333,0.01496887,-0.00102234,-1.00164795,0.244141,0.061035,-0.061035
224164041,0.01496887,-0.00102234,-1.00164795,0.061035,0.000000,-0.183105
231698833,0.01544189,-0.00172424,-1.00045776,0.061035,0.000000,-0.183105
234483875,0.01544189,-0.00172424,-1.00045776,0.183105,0.000000,-0.122070
242023916,0.01535034,-0.00117493,-0.99974060,0.183105,0.000000,-0.122070
244546083,0.01535034,-0.00117493,-0.99974060,0.305176,0.122070,0.000000
252096750,0.01580811,0.00007629,-1.00006104,0.305176,0.122070,0.000000
254610916,0.01580811,0.00007629,-1.00006104,0.183105,0.122070,-0.122070
262151916,0.01565552,-0.00082397,-1.00036621,0.183105,0.122070,-0.122070
264670041,0.01565552,-0.00082397,-1.00036621,0.183105,0.000000,-0.061035
272199458,0.01559448,0.00028992,-1.00000000,0.183105,0.000000,-0.061035
274711791,0.01559448,0.00028992,-1.00000000,0.183105,0.061035,-0.122070
282274916,0.01565552,0.00105286,-0.99943542,0.183105,0.061035,-0.122070
284791375,0.01565552,0.00105286,-0.99943542,0.244141,0.122070,0.000000
292314041,0.01438904,0.00173950,-1.00128174,0.244141,0.122070,0.000000
294822875,0.01438904,0.00173950,-1.00128174,0.122070,0.122070,0.000000
302345666,0.01435852,0.00160217,-1.00053406,0.122070,0.122070,0.000000
304854750,0.01435852,0.00160217,-1.00053406,0.244141,0.061035,-0.183105
312415875,0.01507568,0.00173950,-1.00105286,0.244141,0.061035,-0.183105
314934666,0.01507568,0.00173950,-1.00105286,0.183105,-0.122070,-0.061035
322479458,0.01397705,0.00260925,-0.99954224,0.183105,-0.122070,-0.061035
324998583,0.01397705,0.00260925,-0.99954224,0.122070,0.000000,-0.061035
332532625,0.01492310,0.00132751,-1.00010681,0.122070,0.000000,-0.061035
335046041,0.01492310,0.00132751,-1.00010681,0.122070,0.061035,-0.122070
342579458,0.01486206,-0.00039673,-1.00071716,0.122070,0.061035,-0.122070
345095625,0.01486206,-0.00039673,-1.00071716,0.122070,0.000000,0.000000
352304833,0.01533508,-0.00111389,-1.00041199,0.122070,0.000000,0.000000
354824125,0.01533508,-0.00111389,-1.00041199,0.061035,0.122070,-0.122070
362359791,0.01693726,-0.00132751,-1.00007629,0.061035,0.122070,-0.122070
364870625,0.01693726,-0.00132751,-1.00007629,0.000000,0.061035,-0.061035
372412541,0.01654053,-0.00177002,-1.00056458,0.000000,0.061035,-0.061035
374927333,0.01654053,-0.00177002,-1.00056458,0.183105,0.061035,0.000000
382464208,0.01437378,-0.00259399,-1.00035095,0.183105,0.061035,0.000000
384981250,0.01437378,-0.00259399,-1.00035095,0.183105,0.000000,-0.122070
392507208,0.01527405,-0.00173950,-0.99981689,0.183105,0.000000,-0.122070
395020500,0.01527405,-0.00173950,-0.99981689,-0.061035,0.122070,-0.183105
402551458,0.01554871,-0.00183105,-1.00079346,-0.061035,0.122070,-0.183105
405058875,0.01554871,-0.00183105,-1.00079346,0.122070,0.061035,-0.061035
412594416,0.01538086,-0.00112915,-1.00079346,0.122070,0.061035,-0.061035
415103875,0.01538086,-0.00112915,-1.00079346,0.000000,0.122070,-0.061035
422632750,0.01449585,-0.00006104,-1.00090027,0.000000,0.122070,-0.061035
425148166,0.01449585,-0.00006104,-1.00090027,0.061035,0.122070,-0.183105
432694916,0.01467896,-0.00041199,-0.99920654,0.061035,0.122070,-0.183105
435207625,0.01467896,-0.00041199,-0.99920654,0.061035,0.061035,-0.061035
442743125,0.01533508,0.00105286,-1.00032043,0.061035,0.061035,-0.061035
445253625,0.01533508,0.00105286,-1.00032043,0.122070,-0.061035,-0.061035
452918875,0.01562500,0.00111389,-1.00035095,0.122070,-0.061035,-0.061035
455478000,0.01562500,0.00111389,-1.00035095,0.183105,0.122070,-0.061035
463113625,0.01567078,0.00039673,-0.99909973,0.183105,0.122070,-0.061035
465694291,0.01567078,0.00039673,-0.99909973,0.061035,0.000000,-0.061035
473376125,0.01573181,0.00027466,-1.00080872,0.122070,0.122070,0.000000
483235583,0.01568604,-0.00068665,-1.00181580,0.122070,0.122070,0.000000
485804125,0.01568604,-0.00068665,-1.00181580,0.061035,0.000000,-0.122070
493081416,0.01493835,-0.00054932,-1.00071716,0.061035,0.000000,-0.122070
495626333,0.01493835,-0.00054932,-1.00071716,0.061035,0.122070,-0.061035
503222791,0.01568604,-0.00120544,-1.00062561,0.061035,0.122070,-0.061035
505766000,0.01568604,-0.00120544,-1.00062561,0.122070,0.122070,-0.122070
513382625,0.01579285,-0.00149536,-1.00085449,0.122070,0.122070,-0.122070
515954708,0.01579285,-0.00149536,-1.00085449,0.061035,0.122070,-0.061035
522269333,0.01528931,-0.00074768,-1.00105286,0.061035,0.122070,-0.061035
524864291,0.01528931,-0.00074768,-1.00105286,0.122070,0.000000,-0.061035
532546125,0.01525879,-0.00077820,-1.00103760,0.122070,0.000000,-0.061035
535148500,0.01525879,-0.00077820,-1.00103760,0.000000,0.000000,-0.122070
542758750,0.01562500,-0.00163269,-1.00088501,0.000000,0.000000,-0.122070
545298250,0.01562500,-0.00163269,-1.00088501,0.061035,0.000000,-0.122070
552899791,0.01541138,-0.00019836,-1.00073242,0.061035,0.000000,-0.122070
555444375,0.01541138,-0.00019836,-1.00073242,0.183105,0.122070,-0.061035
563057916,0.01440430,-0.00051880,-1.00079346,0.183105,0.122070,-0.061035
565614000,0.01440430,-0.00051880,-1.00079346,0.061035,0.122070,-0.122070
573228958,0.01586914,0.00009155,-0.99913025,0.061035,0.122070,-0.122070
575791458,0.01586914,0.00009155,-0.99913025,0.183105,0.122070,-0.122070
583399541,0.01477051,0.00099182,-0.99971008,0.183105,0.122070,-0.122070
585945625,0.01477051,0.00099182,-0.99971008,0.122070,0.061035,0.122070
593537541,0.01495361,0.00102234,-0.99960327,0.122070,0.061035,0.122070
596095750,0.01495361,0.00102234,-0.99960327,0.122070,0.061035,-0.061035
603441250,0.01658630,0.00070190,-1.00170898,0.122070,0.061035,-0.061035
605982333,0.01658630,0.00070190,-1.00170898,0.122070,0.122070,-0.122070
613301083,0.01689148,0.00178528,-1.00065613,0.122070,0.122070,-0.122070
615828750,0.01689148,0.00178528,-1.00065613,0.122070,0.061035,-0.122070
623370291,0.01493835,0.00074768,-1.00167847,0.122070,0.061035,-0.122070
625888958,0.01493835,0.00074768,-1.00167847,0.061035,0.000000,-0.061035
633430666,0.01515198,-0.00059509,-1.00054932,0.061035,0.000000,-0.061035
635951583,0.01515198,-0.00059509,-1.00054932,0.122070,0.061035,0.000000
643434916,0.01437378,-0.00120544,-1.00109863,0.122070,0.061035,0.000000
645956666,0.01437378,-0.00120544,-1.00109863,0.122070,-0.122070,-0.061035
653510291,0.01544189,-0.00218201,-1.00134277,0.122070,-0.122070,-0.061035
656042583,0.01544189,-0.00218201,-1.00134277,0.061035,0.061035,0.000000
663174458,0.01473999,-0.00170898,-1.00039673,0.061035,0.061035,0.000000
665710291,0.01473999,-0.00170898,-1.00039673,0.061035,0.061035,-0.183105
673333291,0.01425171,-0.00205994,-1.00025940,0.061035,0.061035,-0.183105
675886958,0.01425171,-0.00205994,-1.00025940,0.061035,0.061035,-0.183105
683500875,0.01533508,-0.00100708,-1.00105286,0.061035,0.061035,-0.183105
686042416,0.01533508,-0.00100708,-1.00105286,0.061035,0.000000,0.000000
693640833,0.01509094,-0.00077820,-1.00167847,0.061035,0.000000,0.000000
696184833,0.01509094,-0.00077820,-1.00167847,0.122070,0.000000,0.000000
703793333,0.01530457,-0.00073242,-1.00042725,0.122070,0.000000,0.000000
706346166,0.01530457,-0.00073242,-1.00042725,0.122070,0.000000,0.061035
713946333,0.01524353,-0.00001526,-1.00024414,0.122070,0.000000,0.061035
716546416,0.01524353,-0.00001526,-1.00024414,0.000000,0.061035,-0.122070
723889333,0.01487732,-0.00056458,-1.00131226,0.000000,0.061035,-0.122070
726180041,0.01487732,-0.00056458,-1.00131226,0.061035,0.000000,-0.061035
733779291,0.01498413,-0.00065613,-1.00024414,0.061035,0.000000,-0.061035
736323458,0.01498413,-0.00065613,-1.00024414,0.061035,0.061035,-0.061035
743923916,0.01548767,0.00070190,-1.00169373,0.061035,0.061035,-0.061035
746476041,0.01548767,0.00070190,-1.00169373,-0.061035,0.183105,-0.061035
754068333,0.01568604,0.00021362,-0.99974060,-0.061035,0.183105,-0.061035
756628833,0.01568604,0.00021362,-0.99974060,0.061035,0.244141,0.061035
763493500,0.01586914,-0.00022888,-1.00025940,0.061035,0.244141,0.061035
766040625,0.01586914,-0.00022888,-1.00025940,0.183105,0.061035,-0.183105
773295708,0.01402283,-0.00059509,-1.00128174,0.183105,0.061035,-0.183105
775842125,0.01402283,-0.00059509,-1.00128174,-0.061035,0.061035,-0.061035
783429083,0.01432800,-0.00094604,-0.99955750,-0.061035,0.061035,-0.061035
785967125,0.01432800,-0.00094604,-0.99955750,0.000000,0.000000,-0.183105
795783083,0.01609802,-0.00074768,-0.99967957,0.183105,0.061035,0.000000
803345916,0.01640320,-0.00111389,-1.00027466,0.183105,0.061035,0.000000
805891541,0.01640320,-0.00111389,-1.00027466,0.061035,-0.061035,-0.122070
813491791,0.01583862,-0.00035095,-1.00001526,0.061035,-0.061035,-0.122070
816031416,0.01583862,-0.00035095,-1.00001526,0.183105,0.000000,-0.061035
823625833,0.01568604,-0.00061035,-1.00025940,0.183105,0.000000,-0.061035
826165458,0.01568604,-0.00061035,-1.00025940,0.122070,0.000000,-0.122070
833777166,0.01510620,-0.00080872,-1.00057983,0.122070,0.000000,-0.122070
836315416,0.01510620,-0.00080872,-1.00057983,0.061035,0.061035,-0.122070
843495750,0.01451111,-0.00044250,-1.00061035,0.061035,0.061035,-0.122070
846033375,0.01451111,-0.00044250,-1.00061035,0.183105,0.000000,-0.061035
853653750,0.01492310,-0.00166321,-1.00128174,0.183105,0.000000,-0.061035
856218750,0.01492310,-0.00166321,-1.00128174,0.000000,0.000000,-0.061035
863772208,0.01486206,-0.00196838,-1.00160217,0.000000,0.000000,-0.061035
866316875,0.01486206,-0.00196838,-1.00160217,0.061035,0.122070,-0.061035
873921458,0.01473999,-0.00059509,-1.00091553,0.061035,0.122070,-0.061035
876466291,0.01473999,-0.00059509,-1.00091553,0.000000,0.061035,0.000000
884068625,0.01457214,-0.00030518,-1.00086975,0.000000,0.061035,0.000000
886609208,0.01457214,-0.00030518,-1.00086975,0.061035,0.061035,-0.061035
894213916,0.01533508,-0.00012207,-1.00074768,0.061035,0.061035,-0.061035
896766666,0.01533508,-0.00012207,-1.00074768,0.061035,0.000000,-0.183105
904459458,0.01466370,0.00054932,-1.00125122,0.061035,0.000000,-0.183105
907022041,0.01466370,0.00054932,-1.00125122,-0.061035,0.000000,0.000000
914646916,0.01576233,0.00038147,-0.99920654,0.061035,0.061035,-0.122070
924785208,0.01531982,-0.00004578,-0.99946594,0.000000,0.061035,-0.061035
934944458,0.01533508,-0.00068665,-0.99986267,0.000000,0.061035,-0.061035
937496583,0.01533508,-0.00068665,-0.99986267,0.061035,0.122070,-0.122070
944852250,0.01489258,-0.00030518,-1.00030518,0.061035,0.122070,-0.122070
947397791,0.01489258,-0.00030518,-1.00030518,0.061035,0.061035,0.000000
954989208,0.01385498,-0.00126648,-1.00048828,0.061035,0.061035,0.000000
957539291,0.01385498,-0.00126648,-1.00048828,0.061035,0.122070,-0.061035
965141583,0.01358032,-0.00088501,-1.00044250,0.061035,0.000000,-0.061035
975283958,0.01467896,-0.00045776,-1.00065613,0.061035,0.122070,-0.183105
985442125,0.01542664,-0.00041199,-0.99977112,0.183105,0.061035,0.000000
995248083,0.01475525,0.00004578,-0.99995422,0.183105,0.061035,0.000000
997806125,0.01475525,0.00004578,-0.99995422,0.061035,0.122070,0.000000
1005192375,0.01531982,-0.00042725,-1.00100708,0.061035,0.061035,-0.061035
1015319541,0.01574707,-0.00038147,-1.00057983,0.122070,0.000000,-0.061035
1025461458,0.01486206,-0.00071716,-1.00062561,0.000000,0.000000,-0.061035
1035376041,0.01437378,-0.00138855,-1.00134277,0.061035,0.183105,0.000000
1045529750,0.01425171,-0.00131226,-1.00074768,0.000000,0.000000,-0.061035
1055677583,0.01466370,-0.00109863,-0.99975586,0.061035,0.000000,-0.122070
1065819916,0.01463318,-0.00048828,-1.00170898,0.000000,-0.061035,-0.122070
1075937916,0.01422119,-0.00051880,-1.00012207,0.122070,0.000000,-0.061035
1085302333,0.01431274,-0.00080872,-1.00061035,0.061035,0.000000,0.061035
1095431583,0.01660156,0.00013733,-1.00090027,0.061035,0.000000,0.061035
1097996250,0.01660156,0.00013733,-1.00090027,0.000000,-0.122070,-0.061035
1105585708,0.01600647,-0.00006104,-1.00028992,0.000000,0.000000,-0.122070
1115717541,0.01609802,-0.00079346,-1.00006104,0.122070,0.061035,-0.061035
1125843583,0.01493835,-0.00074768,-0.99919128,0.000000,0.000000,0.000000
1135965083,0.01502991,-0.00036621,-1.00068665,-0.061035,-0.061035,-0.122070
1146080041,0.01457214,0.00048828,-1.00082397,0.122070,0.000000,-0.122070
1156194500,0.01535034,0.00027466,-1.00140381,0.000000,0.061035,-0.061035
1166320208,0.01501465,-0.00061035,-1.00141907,0.000000,-0.061035,-0.183105
1176035166,0.01480103,-0.00047302,-1.00102234,0.000000,-0.061035,0.000000
1186148541,0.01452637,-0.00111389,-1.00090027,-0.061035,-0.061035,0.000000
1195827500,0.01516724,-0.00088501,-1.00070190,-0.061035,-0.061035,0.000000
1198398750,0.01516724,-0.00088501,-1.00070190,0.000000,0.061035,0.061035
1205720333,0.01593018,-0.00082397,-1.00013733,0.122070,0.000000,-0.061035
1215602083,0.01524353,-0.00093079,-1.00086975,0.000000,0.061035,-0.122070
1225768583,0.01409912,-0.00114441,-1.00082397,0.000000,0.122070,-0.061035
1235923000,0.01440430,-0.00273132,-1.00000000,-0.061035,-0.061035,-0.183105
1246039250,0.01551819,-0.00349426,-1.00015259,0.061035,0.061035,0.000000
1256179958,0.01649475,-0.00297546,-1.00166321,0.000000,0.061035,-0.183105
1266311000,0.01611328,-0.00212097,-0.99995422,0.244141,0.061035,0.000000
1275996041,0.01440430,-0.00057983,-1.00099182,0.061035,0.061035,-0.122070
1286132875,0.01397705,0.00025940,-1.00035095,0.061035,0.061035,-0.122070
1288688916,0.01397705,0.00025940,-1.00035095,0.061035,0.122070,0.061035
1296301666,0.01370239,0.00205994,-1.00039673,0.061035,0.122070,0.061035
1298871958,0.01370239,0.00205994,-1.00039673,-0.061035,-0.061035,0.061035
1306124750,0.01403809,0.00205994,-1.00128174,-0.061035,-0.061035,0.061035
1308679916,0.01403809,0.00205994,-1.00128174,0.122070,-0.061035,0.000000
1315813708,0.01356506,0.00108337,-1.00154114,0.122070,-0.061035,0.000000
1318358833,0.01356506,0.00108337,-1.00154114,0.122070,-0.122070,-0.183105
1325964541,0.01603699,0.00151062,-1.00028992,0.122070,-0.122070,-0.183105
1328503291,0.01603699,0.00151062,-1.00028992,0.000000,0.122070,-0.183105
1336115583,0.01640320,0.00073242,-1.00093079,0.000000,0.122070,-0.183105
1338657333,0.01640320,0.00073242,-1.00093079,0.122070,0.000000,-0.061035
1346278958,0.01539612,-0.00117493,-1.00068665,0.000000,0.122070,-0.061035
1357571833,0.01466370,-0.00175476,-1.00010681,0.122070,0.061035,-0.061035
1365258958,0.01419067,-0.00205994,-1.00178528,0.122070,0.061035,-0.061035
1367802500,0.01419067,-0.00205994,-1.00178528,0.122070,0.000000,-0.122070
1375375458,0.01339722,-0.00227356,-1.00001526,0.122070,0.000000,-0.122070
1377929541,0.01339722,-0.00227356,-1.00001526,0.122070,0.061035,-0.122070
1385544708,0.01493835,-0.00317383,-1.00006104,0.122070,0.061035,-0.122070
1388091833,0.01493835,-0.00317383,-1.00006104,0.000000,0.122070,-0.122070
1395709500,0.01501465,-0.00286865,-1.00085449,0.000000,0.122070,-0.122070
1398259666,0.01501465,-0.00286865,-1.00085449,0.000000,0.000000,-0.122070
1405854750,0.01567078,-0.00318909,-0.99990845,0.000000,0.000000,-0.122070
1408397875,0.01567078,-0.00318909,-0.99990845,0.061035,0.061035,-0.122070
1415991833,0.01594543,-0.00106812,-1.00077820,0.061035,0.061035,-0.122070
1418558125,0.01594543,-0.00106812,-1.00077820,0.061035,0.000000,-0.183105
1426191291,0.01510620,0.00090027,-1.00207520,-0.183105,0.183105,-0.061035
1441959083,0.01483154,0.00384521,-0.99708557,0.000000,0.061035,0.000000
1447006083,0.01528931,0.00357056,-1.00865173,0.122070,0.061035,-0.061035
1457050208,0.01473999,0.00259399,-0.99789429,0.122070,0.061035,0.000000
1467101583,0.01519775,0.00112915,-1.00125122,-0.061035,0.061035,-0.122070
1477147041,0.01440430,-0.00163269,-1.00105286,0.061035,0.061035,0.000000
1487112166,0.01501465,-0.00285339,-1.00140381,-0.061035,-0.061035,-0.122070
1497229083,0.01564026,-0.00236511,-1.00079346,0.061035,0.000000,-0.122070
1507169916,0.01469421,-0.00213623,-1.00035095,0.000000,0.244141,-0.183105
1517013083,0.01420593,-0.00212097,-1.00080872,0.122070,0.061035,0.000000
1526605458,0.01420593,-0.00212097,-1.00080872,0.305176,0.000000,0.061035
1529464666,0.01539612,-0.00198364,-0.99961853,0.305176,0.000000,0.061035
1537023416,0.01542664,-0.00190735,-1.00204468,0.000000,0.122070,-0.122070
1547063500,0.01490784,-0.00180054,-0.99864197,0.061035,0.061035,-0.061035
1557133916,0.01579285,-0.00184631,-1.00158691,0.061035,0.061035,-0.061035
1567206333,0.01593018,-0.00157166,-1.00041199,0.122070,0.000000,-0.122070
1577337166,0.01591492,-0.00051880,-1.00122070,0.122070,0.061035,-0.061035
1587478625,0.01454163,0.00045776,-1.00068665,0.061035,0.000000,-0.122070
1597609458,0.01512146,0.00172424,-1.00044250,0.122070,0.061035,0.000000
1607731958,0.01463318,0.00167847,-1.00057983,0.000000,0.122070,-0.183105
1617843666,0.01454163,0.00221252,-1.00108337,-0.061035,0.061035,-0.122070
1627809458,0.01574707,0.00250244,-0.99992371,0.061035,-0.061035,-0.061035
1637687083,0.01527405,0.00216675,-1.00083923,0.000000,0.183105,-0.122070
1647789000,0.01547241,0.00140381,-1.00109863,0.122070,0.061035,-0.061035
1657871708,0.01499939,0.00077820,-1.00083923,0.000000,-0.122070,-0.061035
1667629166,0.01560974,-0.00077820,-0.99995422,0.061035,0.000000,-0.061035
1677749958,0.01541138,-0.00210571,-0.99952698,-0.061035,0.061035,0.000000
1687860958,0.01501465,-0.00277710,-1.00119019,0.122070,-0.061035,-0.183105
1698002500,0.01461792,-0.00337219,-1.00123596,0.122070,0.000000,0.000000
1707792333,0.01615906,-0.00410461,-1.00125122,0.061035,0.122070,-0.061035
1717966625,0.01634216,-0.00289917,-1.00080872,0.122070,0.122070,0.000000
1727840541,0.01420593,-0.00132751,-1.00041199,0.061035,0.000000,0.000000
1737811416,0.01455688,-0.00021362,-0.99951172,-0.122070,0.000000,-0.183105
1747957958,0.01611328,0.00057983,-1.00054932,-0.061035,0.000000,0.000000
1758091958,0.01536560,0.00144958,-1.00079346,0.061035,0.000000,-0.061035
1767850166,0.01473999,0.00236511,-0.99946594,0.061035,0.061035,-0.061035
1777996041,0.01510620,0.00119019,-0.99989319,0.061035,0.122070,-0.061035
1788014333,0.01545715,0.00045776,-0.99989319,0.122070,0.061035,0.061035
1798178416,0.01481628,-0.00028992,-0.99966431,0.000000,-0.183105,-0.122070
1808332041,0.01545715,-0.00192261,-0.99916077,0.122070,0.244141,-0.122070
1818495916,0.01615906,-0.00292969,-1.00042725,0.061035,0.061035,0.000000
1828652541,0.01535034,-0.00254822,-1.00082397,0.061035,0.000000,-0.122070
1836254166,0.01596069,-0.00250244,-0.99996948,0.061035,0.000000,-0.122070
1838807291,0.01596069,-0.00250244,-0.99996948,0.061035,0.061035,0.000000
1848685916,0.01556396,-0.00154114,-1.00091553,0.061035,0.122070,0.000000
1856340125,0.01589966,-0.00109863,-1.00007629,0.061035,0.122070,0.000000
1858925083,0.01589966,-0.00109863,-1.00007629,0.061035,0.061035,-0.122070
1866522375,0.01548767,0.00088501,-1.00097656,0.061035,0.061035,-0.122070
1869063083,0.01548767,0.00088501,-1.00097656,0.122070,0.000000,-0.061035
1876664125,0.01620483,0.00077820,-0.99990845,0.122070,0.000000,-0.061035
1879209000,0.01620483,0.00077820,-0.99990845,0.000000,0.183105,0.061035
1886559916,0.01557922,0.00170898,-1.00180054,0.000000,0.183105,0.061035
1889101916,0.01557922,0.00170898,-1.00180054,-0.061035,0.061035,-0.122070
1896689416,0.01510620,0.00100708,-1.00093079,-0.061035,0.061035,-0.122070
1899234833,0.01510620,0.00100708,-1.00093079,0.061035,0.000000,-0.122070
1907020208,0.01449585,0.00138855,-1.00114441,0.061035,0.000000,-0.122070
1909597166,0.01449585,0.00138855,-1.00114441,-0.061035,-0.061035,0.000000
1917310583,0.01414490,0.00047302,-0.99981689,-0.061035,-0.061035,0.000000
1919874166,0.01414490,0.00047302,-0.99981689,0.183105,0.122070,0.000000
1927532750,0.01516724,0.00048828,-0.99935913,0.183105,0.122070,0.000000
1929776708,0.01516724,0.00048828,-0.99935913,0.000000,0.061035,-0.061035
1937515458,0.01564026,-0.00091553,-1.00074768,0.000000,0.061035,-0.061035
1940159458,0.01564026,-0.00091553,-1.00074768,0.122070,0.061035,-0.122070
1947720083,0.01516724,-0.00108337,-1.00085449,0.061035,0.061035,0.061035
1957645000,0.01551819,-0.00105286,-0.99940491,0.061035,0.061035,0.061035
1960213708,0.01551819,-0.00105286,-0.99940491,0.000000,0.122070,0.000000
1967821625,0.01536560,-0.00173950,-1.00039673,-0.122070,0.000000,0.000000
1978181458,0.01385498,-0.00227356,-1.00010681,0.122070,0.122070,-0.122070
1988394083,0.01525879,-0.00254822,-1.00097656,-0.061035,0.061035,-0.183105
1998554500,0.01528931,-0.00144958,-1.00042725,0.122070,0.122070,-0.061035
2008437291,0.01489258,-0.00068665,-1.00056458,0.122070,0.122070,-0.061035
2018386000,0.01502991,-0.00054932,-0.99989319,0.061035,0.061035,-0.061035
2028514041,0.01513672,0.00019836,-1.00190735,0.122070,-0.061035,-0.061035
2038394250,0.01524353,0.00042725,-0.99974060,0.244141,0.000000,0.000000
2048301958,0.01495361,0.00013733,-1.00048828,0.000000,0.000000,-0.183105
2058545750,0.01582336,-0.00001526,-1.00036621,0.183105,0.061035,-0.122070
2068758250,0.01477051,-0.00080872,-1.00103760,0.122070,0.000000,-0.061035
2078901708,0.01475525,-0.00115967,-1.00100708,-0.061035,0.000000,0.000000
2089035833,0.01538086,-0.00024414,-1.00199890,0.000000,0.000000,-0.061035
2098854250,0.01484680,-0.00178528,-1.00195312,0.183105,0.183105,0.000000
2109011583,0.01499939,-0.00260925,-0.99964905,-0.122070,-0.183105,-0.122070
2119149916,0.01544189,-0.00227356,-0.99974060,0.122070,0.061035,-0.122070
2128842791,0.01548767,-0.00065613,-1.00035095,0.122070,0.061035,-0.122070
2138988583,0.01571655,-0.00083923,-1.00051880,0.122070,-0.061035,-0.122070
2149121041,0.01702881,-0.00047302,-1.00051880,0.000000,0.000000,-0.061035
2159249000,0.01495361,0.00050354,-0.99990845,-0.122070,0.061035,-0.122070
2169389333,0.01496887,0.00134277,-1.00157166,0.061035,0.061035,-0.183105
2178630708,0.01600647,0.00079346,-0.99920654,0.000000,0.061035,-0.122070
2187990208,0.01649475,-0.00033569,-1.00079346,0.000000,0.061035,-0.122070
2190540500,0.01649475,-0.00033569,-1.00079346,0.061035,0.061035,-0.122070
2197644375,0.01593018,-0.00038147,-1.00006104,0.061035,0.061035,-0.122070
2200184875,0.01593018,-0.00038147,-1.00006104,0.061035,0.061035,-0.122070
2207795375,0.01530457,-0.00190735,-1.00080872,0.061035,0.061035,-0.122070
2210339583,0.01530457,-0.00190735,-1.00080872,0.122070,0.000000,-0.061035
2217931666,0.01559448,-0.00173950,-1.00094604,0.122070,0.000000,-0.061035
2220479708,0.01559448,-0.00173950,-1.00094604,0.000000,0.000000,0.000000
2228067041,0.01568604,-0.00259399,-1.00132751,0.000000,0.000000,0.000000
2230121625,0.01568604,-0.00259399,-1.00132751,0.061035,0.061035,-0.061035
2237486333,0.01583862,-0.00267029,-1.00041199,0.061035,0.061035,-0.061035
2240027875,0.01583862,-0.00267029,-1.00041199,0.061035,0.061035,-0.061035
2247618041,0.01425171,-0.00221252,-1.00077820,0.061035,0.061035,-0.061035
2250161000,0.01425171,-0.00221252,-1.00077820,0.061035,0.061035,-0.061035
2257766000,0.01428223,-0.00202942,-1.00218201,0.061035,0.061035,-0.061035
2260305250,0.01428223,-0.00202942,-1.00218201,0.061035,0.061035,0.000000
2267895041,0.01515198,-0.00125122,-1.00021362,0.061035,0.061035,0.000000
2270436416,0.01515198,-0.00125122,-1.00021362,0.122070,0.061035,-0.061035
2278005208,0.01460266,0.00016785,-0.99978638,0.122070,0.061035,-0.061035
2280542500,0.01460266,0.00016785,-0.99978638,0.061035,0.000000,-0.122070
2288128625,0.01589966,0.00059509,-1.00073242,0.061035,0.000000,-0.122070
2290663250,0.01589966,0.00059509,-1.00073242,0.000000,0.000000,-0.061035
2298127333,0.01541138,0.00093079,-1.00123596,0.000000,0.000000,-0.061035
2300684958,0.01541138,0.00093079,-1.00123596,0.183105,0.061035,-0.061035
2308294833,0.01586914,0.00102234,-1.00007629,0.183105,0.061035,-0.061035
2310841916,0.01586914,0.00102234,-1.00007629,0.000000,0.183105,0.000000
2318002541,0.01496887,0.00054932,-1.00016785,0.000000,0.183105,0.000000
2320518291,0.01496887,0.00054932,-1.00016785,0.061035,0.122070,0.000000
2328053666,0.01509094,0.00006104,-1.00006104,0.061035,0.122070,0.000000
2330574875,0.01509094,0.00006104,-1.00006104,0.244141,0.061035,-0.183105
2338118041,0.01480103,0.00013733,-1.00025940,0.244141,0.061035,-0.183105
2340638166,0.01480103,0.00013733,-1.00025940,0.061035,0.061035,-0.061035
2348185083,0.01385498,0.00016785,-1.00120544,0.061035,0.061035,-0.061035
2350460250,0.01385498,0.00016785,-1.00120544,0.000000,0.000000,-0.061035
2358041375,0.01495361,-0.00155640,-1.00067139,0.000000,0.000000,-0.061035
2360573333,0.01495361,-0.00155640,-1.00067139,0.183105,-0.183105,0.061035
2368126875,0.01515198,-0.00152588,-1.00192261,0.183105,-0.183105,0.061035
2370664625,0.01515198,-0.00152588,-1.00192261,-0.061035,0.000000,-0.122070
2378212083,0.01501465,-0.00114441,-1.00057983,-0.061035,0.000000,-0.122070
2380738958,0.01501465,-0.00114441,-1.00057983,0.061035,0.061035,-0.122070
2388304583,0.01464844,-0.00083923,-1.00012207,0.061035,0.061035,-0.122070
2390839541,0.01464844,-0.00083923,-1.00012207,0.183105,0.000000,0.000000
2398402291,0.01577759,-0.00152588,-1.00204468,0.183105,0.000000,0.000000
2400948833,0.01577759,-0.00152588,-1.00204468,0.000000,0.061035,-0.061035
2408527666,0.01550293,-0.00099182,-0.99989319,0.000000,0.061035,-0.061035
2411077916,0.01550293,-0.00099182,-0.99989319,0.122070,0.061035,0.061035
2418652500,0.01451111,-0.00056458,-1.00054932,0.122070,0.061035,0.061035
2420808916,0.01451111,-0.00056458,-1.00054932,0.000000,-0.061035,-0.122070
2428383000,0.01515198,-0.00012207,-1.00061035,0.000000,-0.061035,-0.122070
2430913333,0.01515198,-0.00012207,-1.00061035,0.000000,0.000000,-0.122070
2438493166,0.01568604,-0.00015259,-1.00131226,0.000000,0.000000,-0.122070
2441054541,0.01568604,-0.00015259,-1.00131226,0.000000,0.000000,-0.183105
2448600250,0.01536560,-0.00021362,-1.00119019,0.000000,0.000000,-0.183105
2451148208,0.01536560,-0.00021362,-1.00119019,0.061035,0.000000,-0.061035
2458732625,0.01538086,0.00152588,-1.00085449,0.061035,0.000000,-0.061035
2461270708,0.01538086,0.00152588,-1.00085449,-0.061035,-0.122070,-0.244141
2468870291,0.01573181,0.00056458,-1.00067139,-0.061035,-0.122070,-0.244141
2471410041,0.01573181,0.00056458,-1.00067139,0.183105,0.122070,0.000000
2478781833,0.01559448,-0.00021362,-1.00146484,0.183105,0.122070,0.000000
2480835833,0.01559448,-0.00021362,-1.00146484,0.061035,0.122070,-0.122070
2488421625,0.01672363,0.00086975,-1.00044250,0.061035,0.122070,-0.122070
2490962708,0.01672363,0.00086975,-1.00044250,0.061035,0.122070,-0.122070
2498554125,0.01628113,-0.00117493,-1.00102234,0.061035,0.122070,-0.122070
2501090125,0.01628113,-0.00117493,-1.00102234,-0.061035,0.122070,-0.061035
2508672750,0.01495361,-0.00195312,-0.99993896,-0.061035,0.122070,-0.061035
2510968291,0.01495361,-0.00195312,-0.99993896,0.000000,0.122070,-0.183105
2518193708,0.01426697,-0.00189209,-1.00076294,0.000000,0.122070,-0.183105
2520741625,0.01426697,-0.00189209,-1.00076294,0.061035,0.061035,0.000000
2528337875,0.01402283,-0.00242615,-1.00100708,0.061035,0.061035,0.000000
2530884416,0.01402283,-0.00242615,-1.00100708,0.061035,0.122070,-0.061035
2538468000,0.01539612,-0.00158691,-1.00068665,0.061035,0.122070,-0.061035
2541005125,0.01539612,-0.00158691,-1.00068665,-0.061035,-0.061035,-0.061035
2548427708,0.01460266,-0.00114441,-1.00036621,-0.061035,-0.061035,-0.061035
2550983541,0.01460266,-0.00114441,-1.00036621,0.061035,0.061035,-0.122070
2558583125,0.01385498,-0.00041199,-1.00140381,0.061035,0.061035,-0.122070
2561121291,0.01385498,-0.00041199,-1.00140381,0.122070,0.122070,-0.183105
2568726250,0.01411438,0.00018311,-1.00041199,0.122070,0.122070,-0.183105
2571276833,0.01411438,0.00018311,-1.00041199,-0.061035,0.061035,-0.061035
2578863875,0.01419067,0.00056458,-1.00155640,-0.061035,0.061035,-0.061035
2581400625,0.01419067,0.00056458,-1.00155640,0.061035,0.000000,-0.061035
2588491791,0.01535034,0.00137329,-0.99949646,0.061035,0.000000,-0.061035
2591028916,0.01535034,0.00137329,-0.99949646,-0.061035,0.061035,0.000000
2598624250,0.01544189,0.00122070,-0.99923706,-0.061035,0.061035,0.000000
2601173958,0.01544189,0.00122070,-0.99923706,-0.061035,0.061035,-0.122070
2608662000,0.01481628,-0.00064087,-1.00108337,-0.061035,0.061035,-0.122070
2611224708,0.01481628,-0.00064087,-1.00108337,0.122070,0.000000,-0.122070
2618857416,0.01615906,-0.00021362,-1.00155640,0.122070,0.000000,-0.122070
2621413708,0.01615906,-0.00021362,-1.00155640,0.122070,0.122070,-0.122070
2629006458,0.01570129,-0.00062561,-0.99960327,0.122070,0.122070,-0.122070
2631552375,0.01570129,-0.00062561,-0.99960327,0.122070,0.061035,-0.122070
2639138875,0.01513672,-0.00109863,-0.99960327,0.122070,0.061035,-0.122070
2641683166,0.01513672,-0.00109863,-0.99960327,0.061035,0.061035,-0.122070
2649274500,0.01628113,-0.00155640,-1.00039673,0.061035,0.061035,-0.122070
2651821416,0.01628113,-0.00155640,-1.00039673,0.061035,0.061035,-0.122070
2659092625,0.01493835,-0.00166321,-1.00062561,0.061035,0.061035,-0.122070
2661637583,0.01493835,-0.00166321,-1.00062561,0.061035,0.122070,0.000000
2669227625,0.01426697,-0.00137329,-1.00132751,0.061035,0.122070,0.000000
2671773625,0.01426697,-0.00137329,-1.00132751,0.122070,-0.061035,-0.122070
2679366166,0.01463318,-0.00128174,-0.99961853,0.122070,-0.061035,-0.122070
2681905875,0.01463318,-0.00128174,-0.99961853,0.000000,-0.061035,-0.061035
2689489250,0.01486206,-0.00056458,-0.99920654,0.000000,-0.061035,-0.061035
2692043000,0.01486206,-0.00056458,-0.99920654,0.000000,0.061035,-0.061035
2699397708,0.01547241,0.00006104,-1.00085449,0.000000,0.061035,-0.061035
2701955041,0.01547241,0.00006104,-1.00085449,0.061035,0.000000,-0.061035
2709551416,0.01472473,-0.00105286,-1.00016785,0.061035,0.000000,-0.061035
2712098375,0.01472473,-0.00105286,-1.00016785,0.244141,0.000000,-0.061035
2719694791,0.01406860,-0.00100708,-0.99993896,0.244141,0.000000,-0.061035
2722254625,0.01406860,-0.00100708,-0.99993896,0.122070,0.061035,-0.244141
2729616750,0.01496887,-0.00097656,-1.00016785,0.122070,0.061035,-0.244141
2732159000,0.01496887,-0.00097656,-1.00016785,0.061035,0.061035,-0.183105
2739358916,0.01579285,-0.00035095,-1.00161743,0.061035,0.061035,-0.183105
2741899791,0.01579285,-0.00035095,-1.00161743,0.122070,0.000000,-0.122070
2749376791,0.01603699,0.00007629,-0.99990845,0.122070,0.000000,-0.122070
2751919958,0.01603699,0.00007629,-0.99990845,0.061035,0.122070,0.000000
2759259333,0.01571655,0.00013733,-1.00019836,0.061035,0.122070,0.000000
2761799000,0.01571655,0.00013733,-1.00019836,0.183105,0.061035,-0.061035
2769398291,0.01573181,-0.00004578,-1.00068665,0.183105,0.061035,-0.061035
2771955083,0.01573181,-0.00004578,-1.00068665,0.183105,0.000000,-0.061035
2779554041,0.01545715,0.00079346,-1.00094604,0.183105,0.000000,-0.061035
2782097041,0.01545715,0.00079346,-1.00094604,0.122070,0.061035,0.061035
2789681666,0.01507568,-0.00025940,-1.00006104,0.122070,0.061035,0.061035
2792226000,0.01507568,-0.00025940,-1.00006104,0.000000,0.000000,-0.061035
2799651375,0.01472473,-0.00030518,-1.00051880,0.000000,0.000000,-0.061035
2802187791,0.01472473,-0.00030518,-1.00051880,0.122070,0.183105,-0.061035
2809802250,0.01443481,-0.00091553,-1.00094604,0.122070,0.183105,-0.061035
2812359541,0.01443481,-0.00091553,-1.00094604,0.122070,0.183105,-0.183105
2819948083,0.01477051,-0.00207520,-0.99942017,0.122070,0.183105,-0.183105
2822173833,0.01477051,-0.00207520,-0.99942017,0.061035,0.122070,0.000000
2829761375,0.01402283,-0.00177002,-0.99891663,0.061035,0.122070,0.000000
2832116208,0.01402283,-0.00177002,-0.99891663,0.122070,0.061035,-0.183105
2839710458,0.01477051,-0.00234985,-1.00065613,0.122070,0.061035,-0.183105
2842003166,0.01477051,-0.00234985,-1.00065613,-0.061035,0.061035,-0.122070
2849604958,0.01527405,-0.00222778,-1.00100708,-0.061035,0.061035,-0.122070
2851890583,0.01527405,-0.00222778,-1.00100708,0.183105,0.061035,-0.183105
2859497500,0.01612854,-0.00074768,-1.00131226,0.183105,0.061035,-0.183105
2861794916,0.01612854,-0.00074768,-1.00131226,0.061035,0.061035,-0.061035
2869393958,0.01541138,0.00047302,-1.00131226,0.061035,0.061035,-0.061035
2871946333,0.01541138,0.00047302,-1.00131226,0.061035,0.061035,-0.122070
2879534250,0.01519775,0.00143433,-0.99902344,0.061035,0.061035,-0.122070
2882076583,0.01519775,0.00143433,-0.99902344,0.061035,0.000000,0.000000
2889664625,0.01637268,0.00189209,-0.99880981,0.061035,0.000000,0.000000
2892206958,0.01637268,0.00189209,-0.99880981,0.000000,0.000000,-0.061035
2899801541,0.01660156,0.00241089,-1.00056458,0.000000,0.000000,-0.061035
2902345166,0.01660156,0.00241089,-1.00056458,0.061035,0.122070,-0.061035
2909709041,0.01562500,0.00198364,-1.00109863,0.061035,0.122070,-0.061035
2912262458,0.01562500,0.00198364,-1.00109863,0.000000,0.000000,-0.061035
2919869583,0.01522827,0.00051880,-1.00001526,0.000000,0.000000,-0.061035
2922422000,0.01522827,0.00051880,-1.00001526,0.183105,0.183105,0.000000
2930007750,0.01469421,0.00010681,-1.00042725,0.183105,0.183105,0.000000
2932554083,0.01469421,0.00010681,-1.00042725,0.000000,0.122070,-0.061035
2940139666,0.01593018,-0.00158691,-0.99966431,0.000000,0.122070,-0.061035
2942676333,0.01593018,-0.00158691,-0.99966431,0.122070,0.122070,-0.061035
2950163791,0.01574707,-0.00262451,-1.00080872,0.122070,0.122070,-0.061035
2952734375,0.01574707,-0.00262451,-1.00080872,0.122070,0.122070,-0.122070
2960339166,0.01582336,-0.00241089,-0.99903870,0.122070,0.122070,-0.122070
2962882500,0.01582336,-0.00241089,-0.99903870,0.122070,0.000000,-0.061035
2970472208,0.01428223,-0.00204468,-0.99948120,0.122070,0.000000,-0.061035
2973014250,0.01428223,-0.00204468,-0.99948120,0.061035,0.061035,-0.061035
2980658083,0.01419067,-0.00181580,-1.00064087,0.061035,0.000000,0.000000
2990795125,0.01475525,-0.00108337,-1.00099182,0.122070,-0.061035,-0.183105
3000783750,0.01470947,0.00022888,-1.00045776,0.122070,0.061035,-0.061035
3010991625,0.01541138,0.00018311,-1.00010681,0.000000,0.061035,0.061035
3021117541,0.01495361,0.00045776,-1.00056458,-0.061035,0.000000,-0.061035
3031320416,0.01502991,0.00068665,-1.00080872,0.183105,-0.183105,-0.061035
3041727250,0.01516724,0.00123596,-1.00172424,0.000000,0.000000,0.000000
3051968500,0.01501465,0.00077820,-1.00038147,0.183105,0.000000,-0.061035
3059590500,0.01542664,-0.00070190,-1.00093079,0.183105,0.000000,-0.061035
3062171958,0.01542664,-0.00070190,-1.00093079,0.122070,0.244141,-0.061035
3069768041,0.01571655,-0.00120544,-1.00132751,0.122070,0.244141,-0.061035
3072323583,0.01571655,-0.00120544,-1.00132751,0.122070,0.061035,-0.122070
3079952750,0.01489258,-0.00122070,-1.00178528,0.122070,0.061035,-0.122070
3082512166,0.01489258,-0.00122070,-1.00178528,0.122070,0.000000,-0.061035
3090115208,0.01461792,-0.00198364,-1.00024414,0.122070,0.000000,-0.061035
3092487875,0.01461792,-0.00198364,-1.00024414,0.122070,0.061035,-0.122070
3100133500,0.01498413,-0.00161743,-1.00047302,0.122070,0.061035,-0.122070
3102704166,0.01498413,-0.00161743,-1.00047302,0.000000,0.183105,-0.183105
3110366875,0.01565552,-0.00111389,-1.00140381,0.000000,0.183105,-0.183105
3112934583,0.01565552,-0.00111389,-1.00140381,0.061035,0.000000,-0.061035
3120602250,0.01483154,-0.00099182,-1.00083923,0.061035,0.000000,-0.061035
3123165833,0.01483154,-0.00099182,-1.00083923,0.122070,0.061035,-0.122070
3130776166,0.01499939,0.00051880,-1.00100708,0.122070,0.061035,-0.122070
3133322583,0.01499939,0.00051880,-1.00100708,0.061035,0.061035,-0.122070
3140907208,0.01597595,0.00000000,-1.00094604,0.061035,0.061035,-0.122070
3143230166,0.01597595,0.00000000,-1.00094604,0.183105,0.000000,-0.122070
3150830541,0.01542664,-0.00047302,-1.00193787,0.183105,0.000000,-0.122070
3153379041,0.01542664,-0.00047302,-1.00193787,0.122070,0.122070,-0.061035
3160979291,0.01618958,0.00064087,-1.00068665,0.122070,0.122070,-0.061035
3163504166,0.01618958,0.00064087,-1.00068665,0.061035,0.122070,0.000000
3170499416,0.01596069,0.00048828,-1.00100708,0.061035,0.122070,0.000000
3172713291,0.01596069,0.00048828,-1.00100708,0.183105,0.183105,0.000000
3182523291,0.01663208,0.00004578,-1.00102234,0.183105,0.061035,-0.061035
3192707250,0.01493835,-0.00138855,-1.00077820,-0.061035,-0.061035,-0.122070
3200346583,0.01556396,-0.00085449,-1.00007629,-0.061035,-0.061035,-0.122070
3202895125,0.01556396,-0.00085449,-1.00007629,0.061035,0.000000,0.000000
3210494208,0.01571655,-0.00184631,-1.00061035,0.061035,0.000000,0.000000
3213042041,0.01571655,-0.00184631,-1.00061035,0.000000,-0.061035,-0.122070
3220639750,0.01553345,-0.00166321,-1.00039673,0.000000,-0.061035,-0.122070
3223195500,0.01553345,-0.00166321,-1.00039673,0.061035,0.122070,-0.183105
3230787625,0.01477051,-0.00140381,-1.00004578,0.061035,0.122070,-0.183105
3233327750,0.01477051,-0.00140381,-1.00004578,0.122070,0.000000,-0.122070
3240928208,0.01435852,-0.00144958,-1.00097656,0.122070,0.000000,-0.122070
3243467458,0.01435852,-0.00144958,-1.00097656,0.000000,0.061035,-0.183105
3251067125,0.01429749,-0.00051880,-1.00128174,0.000000,0.061035,-0.183105
3253620000,0.01429749,-0.00051880,-1.00128174,0.000000,0.122070,-0.061035
3260831791,0.01513672,-0.00041199,-1.00033569,0.000000,0.122070,-0.061035
3263389208,0.01513672,-0.00041199,-1.00033569,0.000000,0.061035,-0.061035
3270980416,0.01640320,-0.00047302,-1.00135803,0.000000,0.061035,-0.061035
3273030083,0.01640320,-0.00047302,-1.00135803,0.061035,0.122070,-0.061035
3280446916,0.01571655,-0.00024414,-1.00047302,0.061035,0.122070,-0.061035
3283002166,0.01571655,-0.00024414,-1.00047302,0.183105,0.122070,0.000000
3290606041,0.01567078,0.00022888,-1.00152588,0.183105,0.122070,0.000000
3293168875,0.01567078,0.00022888,-1.00152588,0.061035,0.000000,-0.122070
3300778916,0.01583862,-0.00010681,-1.00045776,0.061035,0.000000,-0.122070
3303333541,0.01583862,-0.00010681,-1.00045776,0.061035,0.000000,0.000000
3310956916,0.01547241,0.00018311,-1.00129700,0.061035,0.000000,0.000000
3313503791,0.01547241,0.00018311,-1.00129700,0.061035,0.061035,-0.122070
3321092666,0.01495361,-0.00057983,-0.99900818,0.061035,0.061035,-0.122070
3323636000,0.01495361,-0.00057983,-0.99900818,0.000000,0.000000,0.000000
3331234375,0.01620483,-0.00090027,-1.00019836,0.000000,0.000000,0.000000
3333786750,0.01620483,-0.00090027,-1.00019836,0.000000,0.000000,-0.061035
3341381083,0.01608276,-0.00039673,-0.99952698,0.000000,0.000000,-0.061035
3343936333,0.01608276,-0.00039673,-0.99952698,-0.122070,-0.061035,-0.122070
3351072291,0.01573181,-0.00015259,-1.00062561,-0.122070,-0.061035,-0.122070
3353624250,0.01573181,-0.00015259,-1.00062561,0.122070,0.122070,-0.061035
3360787208,0.01487732,-0.00062561,-1.00144958,0.122070,0.122070,-0.061035
3363324708,0.01487732,-0.00062561,-1.00144958,0.061035,-0.061035,-0.061035
3370768500,0.01548767,-0.00048828,-1.00003052,0.061035,-0.061035,-0.061035
3373309750,0.01548767,-0.00048828,-1.00003052,0.122070,0.000000,-0.061035
3380894333,0.01499939,-0.00141907,-1.00013733,0.122070,0.000000,-0.061035
3383432250,0.01499939,-0.00141907,-1.00013733,0.305176,0.183105,0.061035
3391022416,0.01477051,-0.00164795,-0.99990845,0.305176,0.183105,0.061035
3393387916,0.01477051,-0.00164795,-0.99990845,0.000000,0.000000,-0.183105
3400975333,0.01486206,-0.00065613,-1.00076294,0.000000,0.000000,-0.183105
3403520666,0.01486206,-0.00065613,-1.00076294,-0.061035,0.122070,0.000000
3410797708,0.01599121,-0.00131226,-1.00048828,-0.061035,0.122070,0.000000
3413340708,0.01599121,-0.00131226,-1.00048828,0.122070,0.000000,0.000000
3420689333,0.01547241,-0.00080872,-1.00035095,0.122070,0.000000,0.000000
3423231583,0.01547241,-0.00080872,-1.00035095,0.122070,0.000000,-0.061035
3430836666,0.01432800,-0.00057983,-1.00004578,0.122070,0.000000,-0.061035
3433375166,0.01432800,-0.00057983,-1.00004578,0.000000,-0.122070,-0.244141
3440964583,0.01432800,-0.00044250,-0.99949646,0.000000,-0.122070,-0.244141
3443293250,0.01432800,-0.00044250,-0.99949646,-0.061035,0.244141,-0.183105
3450874625,0.01541138,0.00000000,-1.00062561,-0.061035,0.244141,-0.183105
3453182541,0.01541138,0.00000000,-1.00062561,0.061035,0.061035,0.000000
3460770708,0.01458740,-0.00073242,-1.00038147,0.061035,0.061035,0.000000
3463308125,0.01458740,-0.00073242,-1.00038147,0.061035,0.061035,-0.061035
3473426625,0.01489258,-0.00015259,-1.00086975,0.183105,0.061035,-0.061035
3483372875,0.01557922,-0.00047302,-1.00068665,0.061035,0.000000,-0.122070
3493494208,0.01536560,-0.00041199,-1.00138855,0.061035,0.061035,0.000000
3503660583,0.01564026,-0.00090027,-1.00012207,0.122070,0.061035,-0.183105
3511266291,0.01567078,-0.00070190,-1.00151062,0.122070,0.061035,-0.183105
3513808083,0.01567078,-0.00070190,-1.00151062,0.000000,0.000000,-0.061035
3521395708,0.01567078,-0.00093079,-1.00195312,0.000000,0.000000,-0.061035
3523934916,0.01567078,-0.00093079,-1.00195312,0.000000,0.000000,-0.122070
3531544041,0.01528931,-0.00038147,-0.99955750,0.000000,0.000000,-0.122070
3534090625,0.01528931,-0.00038147,-0.99955750,0.000000,0.183105,-0.061035
3541682708,0.01469421,-0.00108337,-1.00117493,0.000000,0.183105,-0.061035
3544223875,0.01469421,-0.00108337,-1.00117493,0.000000,-0.122070,-0.122070
3551833333,0.01493835,-0.00044250,-1.00048828,0.000000,-0.122070,-0.122070
3554385791,0.01493835,-0.00044250,-1.00048828,0.000000,0.183105,-0.061035
3561970958,0.01531982,-0.00093079,-0.99974060,0.000000,0.183105,-0.061035
3564509333,0.01531982,-0.00093079,-0.99974060,-0.061035,-0.061035,-0.183105
3572090041,0.01644897,-0.00033569,-1.00004578,-0.061035,-0.061035,-0.183105
3574629541,0.01644897,-0.00033569,-1.00004578,0.000000,0.061035,-0.122070
3582226458,0.01634216,-0.00103760,-1.00006104,0.000000,0.061035,-0.122070
3584779458,0.01634216,-0.00103760,-1.00006104,0.000000,0.061035,-0.183105
3592083833,0.01626587,-0.00071716,-1.00065613,0.000000,0.061035,-0.183105
3594631083,0.01626587,-0.00071716,-1.00065613,0.061035,0.061035,0.061035
3602216083,0.01469421,-0.00128174,-1.00056458,0.061035,0.061035,0.061035
3604754541,0.01469421,-0.00128174,-1.00056458,-0.061035,0.000000,-0.122070
3612376583,0.01620483,-0.00106812,-1.00129700,-0.061035,0.000000,-0.122070
3614919833,0.01620483,-0.00106812,-1.00129700,0.000000,0.000000,-0.061035
3622288041,0.01559448,-0.00048828,-1.00039673,0.000000,0.000000,-0.061035
3624833875,0.01559448,-0.00048828,-1.00039673,0.061035,0.061035,-0.061035
3632178875,0.01533508,-0.00001526,-0.99964905,0.061035,0.061035,-0.061035
3634717416,0.01533508,-0.00001526,-0.99964905,-0.061035,0.000000,-0.183105
3642300208,0.01554871,0.00057983,-0.99990845,-0.061035,0.000000,-0.183105
3644838916,0.01554871,0.00057983,-0.99990845,0.061035,0.000000,-0.061035
3652434583,0.01527405,0.00004578,-1.00082397,0.061035,0.000000,-0.061035
3654973166,0.01527405,0.00004578,-1.00082397,0.000000,0.122070,0.000000
3662572250,0.01522827,-0.00135803,-1.00021362,0.061035,0.061035,-0.122070
3672714750,0.01490784,-0.00112915,-1.00079346,0.000000,-0.061035,-0.122070
3682848958,0.01538086,-0.00061035,-1.00192261,-0.061035,0.000000,-0.122070
3692974625,0.01484680,-0.00157166,-0.99966431,0.122070,0.122070,-0.122070
3703088125,0.01452637,-0.00122070,-1.00028992,0.000000,0.000000,-0.061035
3712843291,0.01521301,-0.00053406,-1.00027466,0.122070,0.061035,-0.061035
3722992291,0.01542664,0.00039673,-1.00028992,-0.122070,0.000000,-0.244141
3732871125,0.01690674,0.00013733,-1.00083923,-0.122070,0.000000,-0.244141
3735417125,0.01690674,0.00013733,-1.00083923,0.122070,0.061035,-0.122070
3743005291,0.01530457,0.00056458,-1.00183105,0.122070,0.061035,-0.122070
3745545000,0.01530457,0.00056458,-1.00183105,0.061035,-0.122070,0.000000
3752695875,0.01464844,0.00012207,-1.00105286,0.061035,-0.122070,0.000000
3755259250,0.01464844,0.00012207,-1.00105286,0.061035,0.000000,0.061035
3762506750,0.01416016,0.00004578,-0.99977112,0.061035,0.000000,0.061035
3764796958,0.01416016,0.00004578,-0.99977112,0.122070,0.183105,-0.183105
3771994916,0.01432800,0.00059509,-1.00021362,0.122070,0.183105,-0.183105
3774533708,0.01432800,0.00059509,-1.00021362,0.000000,0.061035,0.061035
3782115791,0.01557922,0.00050354,-1.00059509,0.000000,0.061035,0.061035
3784655333,0.01557922,0.00050354,-1.00059509,0.061035,0.061035,-0.061035
3791849041,0.01512146,-0.00102234,-1.00155640,0.061035,0.061035,-0.061035
3794405750,0.01512146,-0.00102234,-1.00155640,0.244141,0.122070,0.000000
3801995791,0.01489258,-0.00065613,-1.00129700,0.244141,0.122070,0.000000
3804542000,0.01489258,-0.00065613,-1.00129700,0.122070,0.122070,0.000000
3814667083,0.01600647,-0.00028992,-0.99963379,0.183105,-0.061035,-0.122070
3824660875,0.01429749,-0.00028992,-1.00134277,0.183105,-0.061035,-0.061035
3832268708,0.01502991,0.00000000,-1.00135803,0.183105,-0.061035,-0.061035
3834816375,0.01502991,0.00000000,-1.00135803,0.000000,0.000000,-0.061035
3842415083,0.01521301,-0.00018311,-1.00051880,0.000000,0.000000,-0.061035
3844962166,0.01521301,-0.00018311,-1.00051880,0.061035,0.000000,-0.061035
3852306666,0.01426697,-0.00047302,-0.99995422,0.061035,0.000000,-0.061035
3854852833,0.01426697,-0.00047302,-0.99995422,0.000000,0.061035,0.000000
3862184166,0.01571655,0.00000000,-1.00149536,0.000000,0.061035,0.000000
3864725291,0.01571655,0.00000000,-1.00149536,0.000000,0.183105,-0.122070
3872339708,0.01628113,0.00001526,-1.00064087,0.000000,0.183105,-0.122070
3874899125,0.01628113,0.00001526,-1.00064087,0.061035,0.061035,-0.061035
3882501916,0.01565552,0.00009155,-1.00027466,0.061035,0.061035,-0.061035
3885053458,0.01565552,0.00009155,-1.00027466,0.061035,0.000000,-0.061035
3892645750,0.01513672,0.00041199,-0.99954224,0.061035,0.000000,-0.061035
3895186250,0.01513672,0.00041199,-0.99954224,0.000000,0.061035,-0.061035
3902780666,0.01600647,-0.00047302,-0.99998474,0.000000,0.061035,-0.061035
3905323208,0.01600647,-0.00047302,-0.99998474,0.061035,0.061035,0.061035
3912965375,0.01539612,-0.00091553,-0.99977112,0.061035,0.061035,0.061035
3915499583,0.01539612,-0.00091553,-0.99977112,0.061035,0.183105,-0.122070
3923116791,0.01554871,-0.00010681,-1.00035095,0.061035,0.183105,-0.122070
3925668458,0.01554871,-0.00010681,-1.00035095,0.000000,0.000000,-0.122070
3933276333,0.01686096,-0.00132751,-1.00032043,0.000000,0.000000,-0.122070
3935828208,0.01686096,-0.00132751,-1.00032043,0.061035,0.244141,-0.122070
3943446791,0.01548767,-0.00018311,-1.00032043,0.122070,-0.061035,0.000000
3953576708,0.01379395,-0.00062561,-0.99990845,0.122070,0.061035,0.000000
3963238791,0.01600647,-0.00109863,-0.99914551,0.122070,0.061035,0.000000
3965811583,0.01600647,-0.00109863,-0.99914551,0.000000,0.000000,-0.183105
3973440833,0.01588440,-0.00044250,-0.99952698,0.122070,0.061035,-0.183105
3983521541,0.01473999,0.00007629,-1.00009155,0.122070,-0.061035,-0.122070
3993767708,0.01477051,-0.00042725,-1.00053406,0.122070,0.122070,-0.122070
4003945250,0.01663208,-0.00070190,-1.00086975,0.122070,0.061035,-0.061035
4014076916,0.01560974,0.00010681,-0.99913025,0.000000,0.000000,-0.061035
4024205083,0.01431274,0.00010681,-0.99922180,0.061035,0.061035,0.000000
4034355166,0.01522827,-0.00065613,-1.00000000,0.183105,0.122070,0.061035
4044198750,0.01538086,-0.00111389,-0.99954224,0.061035,-0.061035,-0.183105
4054340041,0.01550293,-0.00085449,-0.99925232,0.122070,-0.061035,-0.061035
4064476041,0.01477051,-0.00019836,-1.00001526,0.061035,0.061035,-0.061035
4074622208,0.01470947,-0.00120544,-1.00051880,0.061035,-0.061035,0.000000
4084769125,0.01466370,-0.00039673,-1.00115967,-0.061035,0.061035,0.000000
4094899500,0.01530457,-0.00099182,-1.00045776,0.061035,0.000000,-0.183105
4105020583,0.01597595,-0.00091553,-0.99992371,0.061035,0.061035,-0.122070
4112740916,0.01455688,-0.00021362,-1.00131226,0.061035,0.061035,-0.122070
4115319208,0.01455688,-0.00021362,-1.00131226,0.061035,0.061035,-0.122070
4122982958,0.01535034,-0.00039673,-1.00065613,0.061035,0.061035,-0.122070
4125555500,0.01535034,-0.00039673,-1.00065613,0.000000,0.000000,-0.061035
4133199583,0.01660156,-0.00062561,-1.00119019,0.000000,0.000000,-0.061035
4135552416,0.01660156,-0.00062561,-1.00119019,0.122070,0.122070,0.061035
4143217916,0.01419067,-0.00074768,-0.99911499,0.122070,0.122070,0.061035
4145839291,0.01419067,-0.00074768,-0.99911499,0.000000,0.061035,-0.122070
4153472083,0.01409912,-0.00083923,-1.00070190,0.000000,0.061035,-0.122070
4156026708,0.01409912,-0.00083923,-1.00070190,0.061035,0.000000,0.000000
4163341541,0.01533508,-0.00111389,-1.00093079,0.061035,0.000000,0.000000
4165908791,0.01533508,-0.00111389,-1.00093079,0.061035,0.061035,-0.122070
4175481458,0.01550293,-0.00090027,-1.00112915,0.061035,-0.122070,-0.183105
4185600125,0.01614380,-0.00181580,-1.00090027,0.061035,0.122070,0.000000
4195419416,0.01647949,-0.00184631,-0.99955750,0.061035,0.122070,-0.061035
4205644875,0.01409912,-0.00146484,-1.00108337,0.061035,-0.122070,-0.061035
4213285291,0.01512146,-0.00099182,-1.00044250,0.061035,-0.122070,-0.061035
4215855916,0.01512146,-0.00099182,-1.00044250,-0.122070,0.061035,-0.122070
4223473125,0.01504517,-0.00106812,-1.00160217,-0.122070,0.061035,-0.122070
4226017500,0.01504517,-0.00106812,-1.00160217,0.183105,0.122070,-0.122070
4233305250,0.01599121,-0.00062561,-1.00015259,0.183105,0.122070,-0.122070
4235848750,0.01599121,-0.00062561,-1.00015259,0.000000,0.183105,0.000000
4243432125,0.01551819,-0.00042725,-1.00062561,0.000000,0.183105,0.000000
4245969750,0.01551819,-0.00042725,-1.00062561,0.061035,0.000000,-0.061035
4253577541,0.01583862,-0.00025940,-1.00152588,0.061035,0.000000,-0.061035
4256129333,0.01583862,-0.00025940,-1.00152588,0.061035,0.122070,0.061035
4263715333,0.01576233,0.00050354,-1.00033569,0.061035,0.122070,0.061035
4265838083,0.01576233,0.00050354,-1.00033569,0.000000,0.000000,0.061035
4273426208,0.01499939,-0.00056458,-1.00003052,0.000000,0.000000,0.061035
4275964625,0.01499939,-0.00056458,-1.00003052,0.000000,0.061035,0.122070
4283581083,0.01554871,-0.00030518,-1.00000000,0.000000,0.061035,0.122070
4286121833,0.01554871,-0.00030518,-1.00000000,0.122070,-0.061035,-0.183105
4293417208,0.01562500,-0.00022888,-1.00050354,0.122070,-0.061035,-0.183105
4295982791,0.01562500,-0.00022888,-1.00050354,0.061035,-0.061035,0.061035
4303642500,0.01458740,-0.00082397,-1.00257874,0.061035,-0.061035,0.061035
4306192458,0.01458740,-0.00082397,-1.00257874,0.000000,0.000000,-0.122070
4313759041,0.01441956,-0.00108337,-1.00054932,0.000000,0.000000,-0.122070
4316314166,0.01441956,-0.00108337,-1.00054932,0.000000,0.061035,-0.061035
4323873625,0.01600647,-0.00138855,-1.00009155,0.000000,0.061035,-0.061035
4326403750,0.01600647,-0.00138855,-1.00009155,-0.122070,0.061035,-0.122070
4333960625,0.01553345,-0.00012207,-1.00122070,-0.122070,0.061035,-0.122070
4336493583,0.01553345,-0.00012207,-1.00122070,0.061035,0.000000,-0.122070
4344054458,0.01519775,0.00003052,-1.00102234,0.061035,0.000000,-0.122070
4346594333,0.01519775,0.00003052,-1.00102234,0.061035,0.061035,0.000000
4354155208,0.01510620,-0.00048828,-0.99961853,0.061035,0.061035,0.000000
4356683916,0.01510620,-0.00048828,-0.99961853,0.000000,-0.061035,-0.183105
4364244166,0.01539612,-0.00019836,-0.99993896,0.000000,-0.061035,-0.183105
4366809875,0.01539612,-0.00019836,-0.99993896,0.061035,0.122070,-0.061035
4374285791,0.01483154,0.00038147,-0.99995422,0.061035,0.122070,-0.061035
4376839583,0.01483154,0.00038147,-0.99995422,0.122070,0.061035,-0.122070
4384166000,0.01466370,-0.00012207,-0.99865723,0.122070,0.061035,-0.122070
4386712125,0.01466370,-0.00012207,-0.99865723,-0.061035,0.061035,-0.305176
4394056125,0.01525879,0.00010681,-1.00015259,-0.061035,0.061035,-0.305176
4396602791,0.01525879,0.00010681,-1.00015259,0.244141,-0.061035,-0.061035
4403943250,0.01530457,0.00015259,-0.99935913,0.244141,-0.061035,-0.061035
4406210583,0.01530457,0.00015259,-0.99935913,0.000000,0.061035,-0.183105
4413475125,0.01538086,-0.00003052,-1.00007629,0.000000,0.061035,-0.183105
4416021875,0.01538086,-0.00003052,-1.00007629,0.000000,0.122070,0.000000
4423629916,0.01516724,-0.00054932,-0.99986267,0.000000,0.122070,0.000000
4426180666,0.01516724,-0.00054932,-0.99986267,-0.061035,0.061035,-0.061035
4433795791,0.01562500,-0.00068665,-1.00148010,-0.061035,0.061035,-0.061035
4436338416,0.01562500,-0.00068665,-1.00148010,-0.061035,0.122070,-0.244141
4443608750,0.01547241,-0.00108337,-1.00061035,-0.061035,0.122070,-0.244141
4446161458,0.01547241,-0.00108337,-1.00061035,0.000000,0.000000,-0.061035
4453763166,0.01538086,-0.00114441,-1.00019836,0.000000,0.000000,-0.061035
4456304541,0.01538086,-0.00114441,-1.00019836,0.000000,0.061035,-0.122070
4463921708,0.01660156,-0.00129700,-0.99964905,0.000000,0.061035,-0.122070
4466475541,0.01660156,-0.00129700,-0.99964905,0.122070,0.061035,-0.061035
4474070666,0.01612854,-0.00024414,-0.99981689,0.122070,0.061035,-0.061035
4476610291,0.01612854,-0.00024414,-0.99981689,-0.061035,0.122070,-0.061035
4484204125,0.01521301,-0.00035095,-1.00039673,-0.061035,0.122070,-0.061035
4486747041,0.01521301,-0.00035095,-1.00039673,0.000000,0.122070,-0.061035
4494007125,0.01417542,0.00001526,-1.00024414,0.000000,0.122070,-0.061035
4496586916,0.01417542,0.00001526,-1.00024414,0.183105,-0.061035,-0.122070
4503813666,0.01568604,0.00105286,-1.00006104,0.183105,-0.061035,-0.122070
4506372000,0.01568604,0.00105286,-1.00006104,0.000000,0.061035,-0.122070
4516598625,0.01521301,0.00006104,-1.00030518,-0.061035,0.061035,-0.183105
4524249416,0.01487732,-0.00080872,-1.00030518,-0.061035,0.061035,-0.183105
4526806291,0.01487732,-0.00080872,-1.00030518,0.183105,0.061035,0.061035
4534400541,0.01481628,-0.00033569,-1.00061035,0.183105,0.061035,0.061035
4536945083,0.01481628,-0.00033569,-1.00061035,0.000000,0.000000,-0.061035
4544545000,0.01528931,-0.00111389,-0.99980164,0.000000,0.000000,-0.061035
4547085958,0.01528931,-0.00111389,-0.99980164,0.183105,0.122070,0.000000
4554668125,0.01535034,-0.00096130,-0.99986267,0.183105,0.122070,0.000000
4557213250,0.01535034,-0.00096130,-0.99986267,0.122070,0.000000,0.122070
4564824291,0.01525879,-0.00152588,-0.99749756,0.122070,0.000000,0.122070
4567425125,0.01525879,-0.00152588,-0.99749756,0.000000,0.000000,0.000000
4574953041,0.01539612,-0.00125122,-0.99922180,0.000000,0.000000,0.000000
4577500166,0.01539612,-0.00125122,-0.99922180,0.000000,0.061035,-0.061035
4585092458,0.01440430,-0.00117493,-1.00077820,0.000000,0.061035,-0.061035
4587634458,0.01440430,-0.00117493,-1.00077820,0.366211,-0.366211,-0.061035
4595170500,0.01441956,-0.00048828,-1.00059509,-0.183105,0.427246,0.122070
4605309791,0.01533508,-0.00109863,-0.99853516,0.183105,0.244141,-0.183105
4615475916,0.01641846,0.00186157,-1.00480652,0.122070,0.000000,0.000000
4625356625,0.01675415,0.00236511,-0.99882507,0.061035,0.000000,-0.122070
4635247541,0.01609802,0.00137329,-1.00009155,0.061035,0.000000,-0.122070
4637831083,0.01609802,0.00137329,-1.00009155,-0.061035,0.061035,-0.122070
4645437458,0.01559448,0.00108337,-1.00253296,-0.183105,0.122070,-0.061035
4655562041,0.01524353,-0.00024414,-0.99952698,-0.061035,0.061035,0.000000
4665406791,0.01593018,-0.00181580,-1.00343323,0.061035,0.000000,-0.122070
4675530458,0.01612854,-0.00309753,-0.99833679,0.000000,0.061035,-0.061035
4685660958,0.01521301,-0.00303650,-1.00144958,-0.183105,0.183105,-0.061035
4695821208,0.01365662,-0.00309753,-0.99723816,0.000000,-0.244141,-0.122070
4705946500,0.01521301,-0.00233459,-1.00271606,0.000000,-0.061035,-0.061035
4716063458,0.01509094,-0.00148010,-0.99780273,-0.244141,0.061035,-0.183105
4726202083,0.01611328,-0.00080872,-1.00175476,0.549316,-0.122070,-0.122070
4736343166,0.01579285,0.00062561,-0.99879456,0.976562,-0.122070,-0.061035
4746340000,0.01528931,0.00064087,-0.97996521,0.732422,-0.061035,-0.122070
4755748833,0.01533508,0.00018311,-1.03448486,0.427246,0.122070,-0.122070
4765907375,0.01667786,0.00003052,-0.97541809,0.061035,0.000000,-0.061035
4775766166,0.01428223,0.00134277,-1.02067566,0.061035,0.000000,-0.061035
4778327166,0.01428223,0.00134277,-1.02067566,0.061035,0.000000,0.000000
4785906083,0.01269531,0.00090027,-0.99035645,0.061035,0.000000,0.000000
4788434541,0.01269531,0.00090027,-0.99035645,0.000000,-0.061035,0.000000
4795986166,0.01301575,0.00250244,-1.00964355,0.000000,-0.061035,0.000000
4798508958,0.01301575,0.00250244,-1.00964355,0.305176,-0.061035,0.000000
4806025041,0.01492310,0.00202942,-0.99250793,0.305176,-0.061035,0.000000
4808564333,0.01492310,0.00202942,-0.99250793,-0.244141,0.183105,0.000000
4815895083,0.01440430,0.00057983,-1.00697327,-0.244141,0.183105,0.000000
4818427666,0.01440430,0.00057983,-1.00697327,0.061035,0.366211,-0.061035
4826014958,0.01649475,-0.00048828,-0.99359131,0.061035,0.366211,-0.061035
4828566958,0.01649475,-0.00048828,-0.99359131,-0.061035,-0.061035,-0.061035
4836191833,0.01695251,-0.00282288,-1.00160217,0.000000,0.000000,-0.122070
4846307625,0.01658630,-0.00320435,-0.99992371,1.159668,-0.366211,-0.122070
4856440750,0.01589966,-0.00274658,-0.99847412,-0.671387,0.671387,-0.183105
4866587000,0.01541138,-0.00198364,-0.98580933,0.793457,-0.366211,-0.061035
4876755291,0.01550293,-0.00088501,-1.03099060,0.122070,-0.061035,-0.183105
4886906916,0.01480103,0.00062561,-0.97462463,0.183105,0.366211,-0.122070
4896586958,0.01396179,-0.00065613,-1.01901245,-0.122070,-0.061035,-0.122070
4906397916,0.01438904,-0.00180054,-0.99221802,0.122070,0.000000,-0.183105
4916542375,0.01614380,-0.00090027,-1.00564575,-0.122070,0.061035,-0.122070
4926678166,0.01611328,-0.00025940,-0.99905396,-0.061035,0.061035,-0.061035
4936367958,0.01448059,0.00039673,-0.99896240,0.000000,0.061035,0.061035
4946508000,0.01533508,0.00086975,-1.00234985,0.793457,-0.305176,-0.061035
4956650000,0.01414490,0.00018311,-0.99536133,0.183105,-0.061035,-0.061035
4966893541,0.01498413,-0.00102234,-1.00897217,0.183105,0.183105,-0.183105
4977091416,0.01628113,-0.00213623,-0.98898315,0.122070,0.122070,0.000000
4986485125,0.01550293,-0.00225830,-1.00457764,0.183105,0.000000,-0.183105
4996625500,0.01506042,-0.00251770,-0.99703979,0.000000,0.061035,-0.122070
5006438291,0.01579285,-0.00126648,-1.00376892,1.647949,-0.061035,-0.122070
5016564166,0.01489258,0.00021362,-0.99301147,0.244141,0.061035,-0.061035
5026568166,0.01388550,-0.00001526,-0.99798584,0.244141,0.000000,-0.122070
5036409291,0.01579285,0.00004578,-1.01033020,0.244141,0.000000,-0.122070
5038973416,0.01579285,0.00004578,-1.01033020,0.244141,-0.061035,-0.122070
5046586041,0.01715088,-0.00065613,-0.99543762,0.183105,0.122070,0.000000
5056776916,0.01756287,-0.00149536,-1.00456238,-0.122070,-0.061035,-0.061035
5066966708,0.01739502,0.00051880,-1.00144958,-0.122070,0.000000,-0.061035
5077112750,0.01647949,0.00384521,-0.99989319,-0.061035,0.061035,0.000000
5086849458,0.01565552,0.00534058,-1.00096130,-0.305176,0.183105,-0.122070
5096716250,0.01390076,0.00434875,-0.99729919,0.366211,-0.183105,-0.061035
5106881041,0.01388550,0.00448608,-1.00802612,0.305176,-0.061035,0.000000
5116891000,0.01377869,0.00164795,-0.98997498,0.305176,-0.061035,0.000000
5119439166,0.01377869,0.00164795,-0.98997498,0.122070,0.000000,-0.061035
5127040541,0.01454163,-0.00070190,-1.00590515,0.122070,0.000000,-0.061035
5129587333,0.01454163,-0.00070190,-1.00590515,0.122070,0.122070,-0.061035
5137197000,0.01651001,-0.00346375,-0.99746704,0.183105,0.000000,-0.061035
5147333750,0.01663208,-0.00512695,-1.00277710,0.122070,0.000000,0.061035
5157489666,0.01588440,-0.00625610,-0.99984741,0.183105,0.000000,-0.061035
5167673625,0.01502991,-0.00503540,-0.99935913,0.061035,-0.061035,-0.061035
5177265958,0.01449585,-0.00436401,-1.00134277,0.061035,0.000000,-0.122070
5187113083,0.01419067,-0.00170898,-1.00146484,0.061035,0.000000,-0.122070
5189675541,0.01419067,-0.00170898,-1.00146484,0.061035,0.061035,-0.061035
5197296291,0.01574707,-0.00079346,-1.00134277,-0.061035,0.061035,-0.061035
5207294958,0.01527405,-0.00003052,-0.99943542,0.061035,0.061035,-0.061035
5217437291,0.01502991,0.00062561,-1.00219727,0.061035,0.000000,-0.061035
5227385750,0.01380920,0.00172424,-1.00032043,0.061035,0.061035,-0.061035
5237536041,0.01512146,0.00352478,-1.00057983,0.122070,0.061035,0.000000
5247192250,0.01557922,0.00320435,-1.00112915,0.000000,0.061035,0.061035
5257317875,0.01571655,0.00125122,-0.99990845,0.122070,0.061035,-0.061035
5267463166,0.01745605,0.00025940,-1.00076294,0.122070,0.122070,0.000000
5277608875,0.01647949,-0.00152588,-0.99981689,0.061035,0.122070,-0.061035
5287738333,0.01596069,-0.00271606,-1.00025940,0.000000,0.000000,-0.183105
5297885166,0.01541138,-0.00294495,-1.00027466,0.000000,-0.061035,-0.061035
5308020291,0.01329041,-0.00337219,-1.00141907,0.061035,0.000000,-0.122070
5318147500,0.01290894,-0.00376892,-0.99884033,0.061035,0.061035,-0.061035
5328121833,0.01399231,-0.00184631,-1.00106812,0.061035,0.122070,-0.122070
5338247750,0.01611328,-0.00073242,-1.00093079,0.061035,-0.061035,-0.061035
5348215833,0.01594543,-0.00016785,-0.99957275,0.000000,0.183105,-0.061035
5358016291,0.01638794,-0.00039673,-0.99949646,0.122070,-0.061035,-0.122070
5368129958,0.01614380,0.00010681,-1.00064087,0.061035,0.061035,-0.061035
5378250125,0.01571655,0.00094604,-1.00102234,0.000000,0.000000,-0.122070
5388192875,0.01582336,0.00106812,-0.99870300,0.183105,0.000000,0.000000
5398321583,0.01562500,0.00099182,-1.00038147,0.183105,-0.427246,-0.061035
5408449333,0.01519775,-0.00073242,-0.99803162,-0.122070,-0.061035,0.000000
5418331875,0.01408386,-0.00294495,-0.99761963,0.061035,0.305176,-0.122070
5428263541,0.01469421,-0.00372314,-1.00877380,0.000000,0.061035,-0.122070
5438435083,0.01484680,-0.00332642,-0.99554443,0.061035,0.000000,-0.061035
5448574916,0.01522827,-0.00375366,-1.00340271,-0.061035,0.122070,-0.122070
5458561250,0.01446533,-0.00274658,-0.99908447,0.061035,0.183105,-0.061035
5468709291,0.01544189,-0.00126648,-1.00125122,-0.061035,0.122070,-0.061035
5478014041,0.01579285,0.00028992,-0.99971008,-0.061035,0.122070,-0.061035
5480553458,0.01579285,0.00028992,-0.99971008,0.061035,0.061035,-0.061035
5488159000,0.01501465,0.00346375,-0.99887085,0.122070,0.122070,-0.061035
5498363250,0.01582336,0.00517273,-0.99880981,0.122070,0.061035,-0.061035
5508391416,0.01457214,0.00556946,-1.00514221,0.061035,0.122070,-0.061035
5518538166,0.01464844,0.00480652,-0.99760437,0.061035,0.183105,0.061035
5528694250,0.01606750,0.00233459,-1.00273132,-0.061035,0.061035,-0.061035
5538854541,0.01791382,0.00039673,-0.99938965,0.000000,0.000000,-0.061035
5548725416,0.01742554,-0.00128174,-0.99993896,0.122070,0.000000,0.000000
5558882833,0.01629639,-0.00323486,-1.00068665,0.061035,0.122070,-0.122070
5569009916,0.01438904,-0.00254822,-0.99887085,0.000000,0.061035,-0.061035
5578632083,0.01329041,-0.00315857,-0.99732971,0.000000,0.122070,-0.061035
5588514208,0.01394653,-0.00363159,-1.00390625,0.000000,0.122070,-0.244141
5598391875,0.01496887,-0.00332642,-1.00088501,-0.244141,0.122070,-0.061035
5608536166,0.01499939,-0.00250244,-1.00079346,-0.122070,-0.488281,-0.183105
5618728625,0.01570129,-0.00189209,-1.00248718,0.244141,0.244141,-0.061035
5628926791,0.01544189,0.00000000,-0.99583435,0.244141,0.061035,0.000000
5639047083,0.01483154,0.00289917,-1.00666809,0.061035,-0.061035,0.061035
5648697041,0.01490784,0.00440979,-0.99656677,0.000000,0.061035,-0.061035
5658851333,0.01577759,0.00340271,-1.00195312,-0.061035,0.061035,0.000000
5668975875,0.01602173,0.00141907,-0.99850464,-0.122070,-0.061035,-0.122070
5679107000,0.01501465,0.00045776,-1.00245667,0.061035,0.061035,-0.061035
5689219958,0.01521301,-0.00090027,-1.00030518,0.061035,0.244141,-0.061035
5699353125,0.01509094,-0.00204468,-1.00068665,-0.122070,0.183105,-0.122070
5709497208,0.01470947,-0.00238037,-1.00022888,0.061035,0.061035,0.000000
5719634166,0.01406860,-0.00186157,-0.99974060,0.122070,0.122070,-0.122070
5727251666,0.01446533,-0.00161743,-1.00006104,0.122070,0.122070,-0.122070
5729810375,0.01446533,-0.00161743,-1.00006104,-0.122070,-0.183105,0.000000
5737395541,0.01496887,-0.00219727,-0.99926758,-0.122070,-0.183105,0.000000
5739516500,0.01496887,-0.00219727,-0.99926758,0.000000,0.061035,-0.061035
5749601500,0.01600647,-0.00224304,-1.00283813,-0.061035,0.183105,-0.061035
5757343916,0.01683044,0.00039673,-0.99601746,-0.061035,0.183105,-0.061035
5759919375,0.01683044,0.00039673,-0.99601746,0.000000,0.000000,0.000000
5767546041,0.01579285,0.00154114,-1.00172424,0.000000,0.000000,0.000000
5770098333,0.01579285,0.00154114,-1.00172424,-0.061035,0.122070,0.000000
5777748708,0.01545715,0.00303650,-0.99926758,-0.061035,0.122070,0.000000
5780299666,0.01545715,0.00303650,-0.99926758,0.061035,0.000000,-0.061035
5787909500,0.01387024,0.00419617,-1.00187683,0.061035,0.000000,-0.061035
5790468458,0.01387024,0.00419617,-1.00187683,-0.122070,0.122070,-0.061035
5798082375,0.01353455,0.00279236,-0.99957275,-0.122070,0.122070,-0.061035
5800628041,0.01353455,0.00279236,-0.99957275,0.000000,0.061035,0.000000
5808229125,0.01441956,-0.00080872,-1.00038147,0.000000,0.061035,0.000000
5810790583,0.01441956,-0.00080872,-1.00038147,0.000000,0.122070,-0.061035
5818443125,0.01527405,-0.00384521,-0.99980164,0.000000,0.122070,-0.061035
5820992250,0.01527405,-0.00384521,-0.99980164,-0.061035,0.000000,-0.061035
5828589083,0.01625061,-0.00453186,-1.00088501,-0.061035,0.000000,-0.061035
5831153750,0.01625061,-0.00453186,-1.00088501,-0.183105,0.000000,-0.061035
5838757625,0.01643372,-0.00459290,-1.00131226,-0.183105,0.000000,-0.061035
5841337833,0.01643372,-0.00459290,-1.00131226,0.061035,0.122070,-0.122070
5848955375,0.01699829,-0.00352478,-1.00146484,0.061035,0.122070,-0.122070
5851508125,0.01699829,-0.00352478,-1.00146484,-0.061035,0.061035,-0.122070
5859107208,0.01495361,-0.00285339,-0.99980164,-0.061035,0.061035,-0.122070
5861658666,0.01495361,-0.00285339,-0.99980164,-0.122070,0.122070,-0.183105
5869282291,0.01562500,-0.00169373,-1.00033569,0.061035,0.061035,-0.061035
5879421583,0.01461792,0.00079346,-1.00215149,-0.061035,0.000000,-0.183105
5889561958,0.01399231,0.00238037,-0.99986267,0.000000,0.122070,-0.122070
5899708375,0.01402283,0.00389099,-1.00033569,0.122070,0.183105,-0.122070
5909839791,0.01466370,0.00314331,-1.00100708,0.000000,0.000000,-0.183105
5919960791,0.01676941,0.00120544,-1.00038147,0.061035,0.122070,-0.061035
5930116208,0.01588440,0.00065613,-0.99943542,0.000000,0.122070,-0.061035
5940374041,0.01499939,-0.00009155,-1.00209045,0.122070,0.000000,-0.061035
5950541666,0.01550293,-0.00170898,-1.00004578,0.061035,-0.122070,-0.244141
5960722708,0.01623535,-0.00334167,-0.99824524,0.122070,0.000000,0.061035
5968330250,0.01449585,-0.00421143,-1.00070190,0.122070,0.000000,0.061035
5970871083,0.01449585,-0.00421143,-1.00070190,0.122070,-0.061035,-0.061035
5978465333,0.01461792,-0.00254822,-0.99887085,0.122070,-0.061035,-0.061035
5981029958,0.01461792,-0.00254822,-0.99887085,0.305176,-0.366211,-0.122070
5988625750,0.01457214,-0.00213623,-0.99981689,0.305176,-0.366211,-0.122070
5991202625,0.01457214,-0.00213623,-0.99981689,-0.122070,0.305176,-0.122070
5998866291,0.01451111,-0.00090027,-1.00086975,-0.122070,0.305176,-0.122070
6001422208,0.01451111,-0.00090027,-1.00086975,0.000000,0.244141,-0.061035
6009023250,0.01464844,0.00244141,-1.00004578,0.000000,0.244141,-0.061035
6011578416,0.01464844,0.00244141,-1.00004578,0.000000,0.244141,-0.061035
6019189333,0.01443481,0.00526428,-1.00299072,0.000000,0.244141,-0.061035
6021760208,0.01443481,0.00526428,-1.00299072,0.122070,0.183105,0.061035
6029402500,0.01574707,0.00473022,-1.00050354,0.061035,0.061035,-0.183105
6038967333,0.01692200,0.00320435,-1.00393677,0.061035,0.061035,-0.183105
6041553041,0.01692200,0.00320435,-1.00393677,0.122070,0.244141,-0.061035
6049200958,0.01693726,0.00050354,-0.99868774,0.122070,0.244141,-0.061035
6051771833,0.01693726,0.00050354,-0.99868774,0.122070,0.183105,0.061035
6059082416,0.01673889,-0.00021362,-1.00244141,0.122070,0.183105,0.061035
6061663375,0.01673889,-0.00021362,-1.00244141,0.061035,0.000000,-0.061035
6068977458,0.01577759,-0.00051880,-0.99830627,0.061035,0.000000,-0.061035
6071552958,0.01577759,-0.00051880,-0.99830627,0.488281,0.183105,0.061035
6079205541,0.01422119,-0.00044250,-0.99812317,0.488281,0.183105,0.061035
6081672333,0.01422119,-0.00044250,-0.99812317,0.427246,-0.061035,-0.061035
6089311666,0.01441956,0.00080872,-1.00531006,0.427246,-0.061035,-0.061035
6091873916,0.01441956,0.00080872,-1.00531006,0.122070,-0.061035,0.061035
6099565833,0.01412964,0.00074768,-0.99565125,0.061035,0.061035,0.000000
6109738208,0.01530457,-0.00093079,-1.00405884,0.122070,0.061035,-0.061035
6119457000,0.01599121,-0.00163269,-0.99815369,0.122070,0.061035,-0.061035
6121997583,0.01599121,-0.00163269,-0.99815369,0.183105,0.061035,0.000000
6129634833,0.01643372,-0.00096130,-1.00204468,0.122070,-0.061035,-0.061035
6139762291,0.01580811,-0.00082397,-1.00062561,0.000000,0.061035,-0.061035
6149893666,0.01354980,-0.00007629,-0.99960327,0.122070,0.122070,-0.061035
6160028500,0.01429749,-0.00067139,-1.00122070,0.122070,0.061035,-0.061035
6170208833,0.01428223,-0.00120544,-1.00019836,0.183105,0.000000,-0.061035
6180363208,0.01513672,-0.00120544,-1.00083923,0.122070,-0.061035,-0.061035
6190508208,0.01486206,-0.00013733,-1.00041199,0.183105,0.061035,-0.061035
6200657666,0.01525879,0.00044250,-1.00021362,0.061035,0.000000,-0.122070
6210871458,0.01654053,0.00054932,-1.00138855,0.244141,0.000000,-0.122070
6221010625,0.01516724,0.00114441,-0.99990845,0.122070,0.000000,-0.061035
6228613625,0.01492310,0.00099182,-1.00073242,0.122070,0.000000,-0.061035
6231189083,0.01492310,0.00099182,-1.00073242,0.122070,0.061035,-0.061035
6238804333,0.01634216,-0.00006104,-1.00085449,0.122070,0.061035,-0.061035
6241001166,0.01634216,-0.00006104,-1.00085449,0.122070,0.061035,-0.061035
6250673333,0.01554871,-0.00059509,-1.00135803,0.122070,0.061035,-0.061035
6260552625,0.01560974,-0.00128174,-0.99870300,-0.061035,0.061035,0.000000
6270444166,0.01513672,-0.00177002,-1.00051880,0.061035,0.000000,-0.183105
6280321041,0.01441956,-0.00215149,-1.00009155,0.122070,0.000000,-0.061035
6290465500,0.01464844,-0.00148010,-1.00189209,0.183105,0.183105,-0.122070
6300581291,0.01498413,-0.00131226,-0.99998474,0.061035,-0.122070,-0.061035
6310709750,0.01483154,-0.00071716,-1.00122070,0.122070,0.061035,-0.061035
6320865583,0.01553345,-0.00039673,-1.00013733,0.244141,0.061035,0.061035
6331076583,0.01678467,0.00025940,-1.00129700,0.122070,0.061035,-0.061035
6341223833,0.01687622,0.00086975,-1.00192261,0.000000,0.061035,0.000000
6351360708,0.01657104,0.00175476,-0.99974060,0.061035,0.061035,0.000000
6361495333,0.01588440,0.00048828,-1.00036621,0.061035,0.061035,0.000000
6371639791,0.01466370,-0.00012207,-1.00059509,0.000000,0.122070,0.000000
6379238500,0.01492310,-0.00129700,-1.00120544,0.000000,0.122070,0.000000
6381777583,0.01492310,-0.00129700,-1.00120544,0.122070,0.000000,-0.061035
6389386416,0.01490784,-0.00152588,-1.00097656,0.122070,0.000000,-0.061035
6391935791,0.01490784,-0.00152588,-1.00097656,0.122070,0.061035,-0.061035
6401638208,0.01512146,-0.00227356,-1.00021362,0.122070,0.000000,-0.122070
6409251000,0.01472473,-0.00253296,-1.00067139,0.122070,0.000000,-0.122070
6411800500,0.01472473,-0.00253296,-1.00067139,0.061035,0.000000,0.000000
6419397583,0.01533508,-0.00119019,-1.00076294,0.061035,0.000000,0.000000
6421935583,0.01533508,-0.00119019,-1.00076294,0.183105,0.244141,-0.061035
6432061625,0.01542664,-0.00161743,-1.00070190,0.000000,0.122070,0.000000
6439673750,0.01580811,0.00035095,-1.00042725,0.000000,0.122070,0.000000
6442215416,0.01580811,0.00035095,-1.00042725,0.000000,-0.061035,-0.122070
6449812833,0.01640320,0.00196838,-1.00138855,0.000000,-0.061035,-0.122070
6452353708,0.01640320,0.00196838,-1.00138855,0.183105,0.061035,0.061035
6459953666,0.01487732,0.00077820,-0.99998474,0.183105,0.061035,0.061035
6462492041,0.01487732,0.00077820,-0.99998474,0.061035,-0.061035,-0.061035
6470095416,0.01385498,0.00057983,-0.99963379,0.061035,-0.061035,-0.061035
6472636750,0.01385498,0.00057983,-0.99963379,0.000000,-0.061035,-0.183105
6480224291,0.01470947,0.00018311,-1.00065613,0.000000,-0.061035,-0.183105
6482760583,0.01470947,0.00018311,-1.00065613,0.061035,0.000000,-0.061035
6490354750,0.01507568,-0.00012207,-1.00111389,0.061035,0.000000,-0.061035
6492905333,0.01507568,-0.00012207,-1.00111389,0.183105,0.061035,-0.122070
6500562791,0.01385498,-0.00094604,-0.99984741,0.183105,0.061035,-0.122070
6503119125,0.01385498,-0.00094604,-0.99984741,0.122070,0.000000,-0.061035
6510776583,0.01425171,-0.00187683,-0.99990845,0.122070,0.000000,-0.061035
6513347833,0.01425171,-0.00187683,-0.99990845,0.183105,-0.122070,-0.061035
6520951750,0.01371765,-0.00076294,-0.99996948,0.183105,-0.122070,-0.061035
6523507250,0.01371765,-0.00076294,-0.99996948,0.061035,0.000000,-0.061035
6531184458,0.01473999,0.00010681,-1.00050354,0.000000,0.122070,-0.061035
6541327833,0.01542664,0.00007629,-1.00175476,0.061035,0.183105,0.000000
6551456666,0.01574707,0.00024414,-1.00064087,0.061035,0.061035,0.000000
6561568166,0.01625061,0.00129700,-1.00041199,0.000000,0.061035,-0.122070
6571636583,0.01634216,0.00138855,-1.00064087,0.000000,0.122070,-0.122070
6581642791,0.01562500,-0.00015259,-0.99986267,0.122070,-0.061035,-0.061035
6591777583,0.01525879,-0.00119019,-1.00117493,0.061035,0.122070,-0.061035
6601901833,0.01431274,-0.00120544,-1.00138855,0.061035,0.061035,-0.061035
6612028916,0.01475525,-0.00111389,-1.00166321,-0.061035,0.061035,-0.061035
6621701000,0.01518250,-0.00093079,-0.99989319,0.122070,0.061035,-0.061035
6631837791,0.01597595,-0.00138855,-1.00079346,0.000000,0.061035,-0.061035
6641952166,0.01620483,-0.00030518,-1.00056458,0.061035,0.061035,-0.061035
6652073875,0.01564026,-0.00021362,-1.00112915,0.122070,0.061035,0.000000
6662213250,0.01536560,-0.00028992,-1.00062561,0.061035,0.122070,-0.122070
6672389791,0.01539612,-0.00096130,-1.00045776,0.000000,0.061035,-0.122070
6682523541,0.01531982,-0.00115967,-1.00018311,-0.061035,0.061035,-0.122070
6692659916,0.01467896,-0.00073242,-1.00030518,0.183105,0.061035,-0.122070
6702287125,0.01429749,-0.00045776,-1.00112915,0.000000,0.122070,-0.061035
6712414625,0.01499939,-0.00167847,-1.00094604,0.183105,0.122070,0.000000
6722553083,0.01547241,-0.00115967,-1.00053406,0.000000,0.000000,0.000000
6730162458,0.01448059,-0.00091553,-1.00083923,0.000000,0.000000,0.000000
6732707500,0.01448059,-0.00091553,-1.00083923,0.000000,0.061035,-0.061035
6740290458,0.01509094,0.00064087,-1.00044250,0.000000,0.061035,-0.061035
6742825583,0.01509094,0.00064087,-1.00044250,-0.122070,-0.122070,-0.122070
6750436541,0.01535034,-0.00032043,-1.00039673,-0.122070,-0.122070,-0.122070
6752985166,0.01535034,-0.00032043,-1.00039673,0.061035,0.061035,-0.122070
6760574083,0.01631165,0.00030518,-0.99932861,0.061035,0.061035,-0.122070
6763111666,0.01631165,0.00030518,-0.99932861,0.061035,0.122070,0.000000
6770716375,0.01559448,0.00074768,-1.00057983,0.061035,0.122070,0.000000
6773259666,0.01559448,0.00074768,-1.00057983,0.000000,0.122070,-0.183105
6780856500,0.01535034,0.00050354,-1.00003052,0.000000,0.122070,-0.183105
6783399416,0.01535034,0.00050354,-1.00003052,0.000000,0.061035,-0.061035
6790986375,0.01449585,-0.00050354,-1.00155640,0.000000,0.061035,-0.061035
6793537291,0.01449585,-0.00050354,-1.00155640,0.244141,0.183105,-0.061035
6800840291,0.01428223,-0.00036621,-1.00106812,0.244141,0.183105,-0.061035
6803390958,0.01428223,-0.00036621,-1.00106812,0.122070,0.122070,-0.122070
6810987833,0.01522827,-0.00028992,-1.00003052,0.122070,0.122070,-0.122070
6813541000,0.01522827,-0.00028992,-1.00003052,0.061035,0.000000,0.061035
6821071500,0.01599121,-0.00146484,-1.00074768,0.061035,0.000000,0.061035
6823611833,0.01599121,-0.00146484,-1.00074768,0.061035,0.061035,-0.061035
6831202416,0.01506042,-0.00215149,-0.99835205,0.061035,0.061035,-0.061035
6833745416,0.01506042,-0.00215149,-0.99835205,0.000000,0.061035,-0.122070
6841332416,0.01376343,-0.00154114,-1.00036621,0.000000,0.061035,-0.122070
6843874833,0.01376343,-0.00154114,-1.00036621,0.061035,0.000000,-0.183105
6851265916,0.01445007,-0.00210571,-1.00061035,0.061035,0.000000,-0.183105
6853815041,0.01445007,-0.00210571,-1.00061035,0.305176,0.854492,-0.061035
6861402500,0.01506042,-0.00105286,-0.99848938,0.305176,0.854492,-0.061035
6863855333,0.01506042,-0.00105286,-0.99848938,-0.305176,-0.427246,0.000000
6871586083,0.01438904,-0.00093079,-0.97795105,-0.305176,-0.427246,0.000000
6874131000,0.01438904,-0.00093079,-0.97795105,-0.061035,0.427246,-0.122070
6881776291,0.01513672,-0.00051880,-1.03451538,-0.061035,0.427246,-0.122070
6884343833,0.01513672,-0.00051880,-1.03451538,-0.427246,-0.061035,-0.122070
6891960166,0.01673889,-0.00071716,-0.98767090,-0.427246,-0.061035,-0.122070
6894533708,0.01673889,-0.00071716,-0.98767090,0.366211,-0.061035,-0.061035
6902165791,0.01655579,-0.00028992,-1.00868225,-0.183105,-0.183105,-0.183105
6911678416,0.01556396,0.00094604,-1.00067139,-0.183105,-0.183105,-0.183105
6914238625,0.01556396,0.00094604,-1.00067139,0.122070,0.061035,-0.061035
6921863541,0.01530457,0.00382996,-1.00094604,0.122070,0.061035,-0.061035
6924423916,0.01530457,0.00382996,-1.00094604,0.122070,0.061035,0.061035
6932038291,0.01551819,0.00537109,-1.00292969,0.122070,0.061035,0.061035
6934334291,0.01551819,0.00537109,-1.00292969,0.000000,-0.122070,0.061035
6941943333,0.01469421,0.00273132,-0.99412537,0.000000,-0.122070,0.061035
6944482958,0.01469421,0.00273132,-0.99412537,0.000000,0.122070,0.000000
6952065666,0.01579285,0.00033569,-1.00442505,0.000000,0.122070,0.000000
6954612333,0.01579285,0.00033569,-1.00442505,0.000000,0.061035,-0.061035
6962234875,0.01576233,-0.00027466,-0.99632263,0.122070,0.183105,-0.122070
6972379500,0.01469421,-0.00282288,-1.00209045,0.000000,0.061035,0.000000
6982499458,0.01440430,-0.00410461,-1.00280762,0.122070,0.122070,0.000000
6992645833,0.01382446,-0.00352478,-0.99763489,0.122070,0.061035,-0.122070
7002813291,0.01412964,-0.00268555,-1.00361633,0.000000,0.000000,-0.183105
7012951208,0.01420593,-0.00329590,-0.99844360,0.000000,0.000000,-0.122070
7023087666,0.01463318,-0.00309753,-1.00172424,-0.061035,0.000000,-0.122070
7033222041,0.01539612,-0.00276184,-0.99873352,0.000000,-0.122070,-0.183105
7043157791,0.01545715,-0.00016785,-1.00079346,0.061035,0.183105,-0.061035
7053320666,0.01506042,0.00117493,-1.00173950,0.183105,0.061035,-0.061035
7063209916,0.01527405,0.00238037,-1.00166321,0.061035,0.061035,-0.183105
7073323500,0.01531982,0.00354004,-1.00032043,0.000000,0.000000,-0.122070
7083446333,0.01499939,0.00379944,-0.99971008,0.000000,0.000000,0.000000
7093595458,0.01623535,0.00260925,-1.00033569,0.061035,0.000000,-0.122070
7101200375,0.01728821,0.00289917,-1.00016785,0.061035,0.000000,-0.122070
7103747166,0.01728821,0.00289917,-1.00016785,-0.061035,0.000000,0.061035
7111331541,0.01831055,0.00325012,-1.00152588,-0.061035,0.000000,0.061035
7113871500,0.01831055,0.00325012,-1.00152588,-0.061035,0.122070,0.000000
7121466958,0.01707458,0.00146484,-0.99969482,-0.061035,0.122070,0.000000
7124008875,0.01707458,0.00146484,-0.99969482,-0.061035,0.061035,-0.061035
7131354875,0.01548767,0.00050354,-0.99919128,-0.061035,0.061035,-0.061035
7133894583,0.01548767,0.00050354,-0.99919128,-0.122070,0.000000,-0.061035
7141494541,0.01472473,-0.00053406,-1.00128174,-0.122070,0.000000,-0.061035
7144046875,0.01472473,-0.00053406,-1.00128174,0.000000,0.061035,-0.061035
7151635458,0.01438904,-0.00334167,-0.99983215,0.000000,0.061035,-0.061035
7154174583,0.01438904,-0.00334167,-0.99983215,-0.122070,0.000000,0.061035
7161771333,0.01461792,-0.00534058,-1.00117493,-0.122070,0.000000,0.061035
7164312625,0.01461792,-0.00534058,-1.00117493,-0.122070,0.244141,-0.122070
7171656791,0.01361084,-0.00540161,-0.99905396,-0.122070,0.244141,-0.122070
7174203000,0.01361084,-0.00540161,-0.99905396,0.000000,0.183105,-0.183105
7181798833,0.01396179,-0.00534058,-1.00068665,0.000000,0.183105,-0.183105
7184336833,0.01396179,-0.00534058,-1.00068665,-0.122070,-0.122070,-0.122070
7191946375,0.01341248,-0.00486755,-0.99880981,-0.122070,-0.122070,-0.122070
7194481458,0.01341248,-0.00486755,-0.99880981,0.000000,0.061035,-0.183105
7202058666,0.01435852,-0.00238037,-0.99969482,0.000000,0.061035,-0.183105
7204605958,0.01435852,-0.00238037,-0.99969482,0.000000,0.061035,-0.183105
7211956500,0.01612854,0.00021362,-1.00054932,0.000000,0.061035,-0.183105
7214501041,0.01612854,0.00021362,-1.00054932,0.061035,0.122070,-0.183105
7222093666,0.01695251,0.00218201,-1.00048828,0.061035,0.122070,-0.183105
7224632583,0.01695251,0.00218201,-1.00048828,0.000000,0.122070,0.000000
7232242416,0.01570129,0.00357056,-1.00117493,0.000000,0.122070,0.000000
7234801208,0.01570129,0.00357056,-1.00117493,0.000000,0.000000,-0.061035
7242394583,0.01580811,0.00361633,-1.00021362,0.000000,0.000000,-0.061035
7244934875,0.01580811,0.00361633,-1.00021362,0.122070,0.122070,-0.061035
7252528208,0.01541138,0.00283813,-1.00013733,0.122070,0.122070,-0.061035
7255065625,0.01541138,0.00283813,-1.00013733,-0.061035,0.061035,-0.061035
7262667833,0.01542664,0.00250244,-1.00004578,-0.061035,0.061035,-0.061035
7265208666,0.01542664,0.00250244,-1.00004578,0.061035,0.000000,-0.122070
7272793333,0.01499939,0.00172424,-1.00093079,0.061035,0.000000,-0.122070
7275068958,0.01499939,0.00172424,-1.00093079,-0.061035,0.000000,0.061035
7282652041,0.01487732,0.00025940,-1.00006104,-0.061035,0.000000,0.061035
7285187333,0.01487732,0.00025940,-1.00006104,0.000000,0.061035,-0.061035
7292767416,0.01460266,-0.00227356,-0.99989319,0.000000,0.061035,-0.061035
7295320500,0.01460266,-0.00227356,-0.99989319,0.122070,0.000000,-0.122070
7302912625,0.01557922,-0.00257874,-1.00167847,0.122070,0.000000,-0.122070
7305475500,0.01557922,-0.00257874,-1.00167847,0.122070,0.122070,-0.122070
7313074541,0.01524353,-0.00297546,-0.99954224,0.122070,0.122070,-0.122070
7315625583,0.01524353,-0.00297546,-0.99954224,0.000000,-0.061035,-0.122070
7323237916,0.01606750,-0.00311279,-1.00070190,0.183105,-0.061035,-0.122070
7333369291,0.01547241,-0.00267029,-1.00048828,0.061035,0.061035,-0.061035
7343516958,0.01438904,-0.00166321,-1.00053406,0.000000,0.000000,-0.183105
7353641916,0.01420593,-0.00009155,-1.00070190,0.000000,-0.061035,-0.122070
7363521208,0.01322937,0.00210571,-0.99961853,0.183105,0.000000,0.000000
7373632000,0.01542664,0.00202942,-0.99923706,-0.061035,0.000000,-0.183105
7383751458,0.01667786,0.00273132,-0.99978638,0.122070,0.000000,-0.122070
7393480833,0.01567078,0.00283813,-1.00027466,0.122070,0.000000,-0.122070
7403377250,0.01667786,0.00231934,-0.99986267,0.000000,0.000000,-0.061035
7413518416,0.01586914,0.00158691,-1.00114441,0.061035,0.000000,-0.061035
7423660250,0.01577759,-0.00030518,-0.99946594,0.061035,-0.061035,-0.061035
7433792250,0.01573181,-0.00140381,-0.99913025,0.000000,0.122070,-0.122070
7443918875,0.01464844,-0.00253296,-1.00088501,0.122070,0.061035,0.061035
7454048750,0.01420593,-0.00289917,-1.00064087,0.061035,-0.061035,-0.061035
7464168666,0.01455688,-0.00384521,-1.00067139,0.000000,0.000000,-0.183105
7474280833,0.01423645,-0.00404358,-1.00059509,0.061035,-0.061035,-0.061035
7484390625,0.01466370,-0.00245667,-0.99992371,0.244141,0.061035,-0.122070
7494525250,0.01501465,-0.00119019,-0.99957275,0.122070,0.122070,-0.061035
7504611875,0.01524353,-0.00010681,-1.00183105,0.061035,0.122070,0.000000
7514768666,0.01544189,0.00085449,-1.00143433,0.000000,0.061035,-0.061035
7522383166,0.01618958,0.00170898,-0.99955750,0.000000,0.061035,-0.061035
7524925375,0.01618958,0.00170898,-0.99955750,0.122070,0.061035,0.000000
7532508291,0.01533508,0.00177002,-0.99952698,0.122070,0.061035,0.000000
7535053583,0.01533508,0.00177002,-0.99952698,0.000000,0.000000,-0.122070
7542677583,0.01541138,0.00189209,-1.00044250,0.000000,0.000000,-0.122070
7545215625,0.01541138,0.00189209,-1.00044250,0.122070,0.122070,-0.061035
7552797416,0.01518250,0.00065613,-1.00137329,0.122070,0.122070,-0.061035
7555329875,0.01518250,0.00065613,-1.00137329,0.061035,0.122070,-0.061035
7562770166,0.01443481,-0.00035095,-0.99967957,0.061035,0.122070,-0.061035
7565305958,0.01443481,-0.00035095,-0.99967957,0.000000,0.000000,-0.183105
7572902458,0.01502991,-0.00083923,-1.00054932,0.000000,0.000000,-0.183105
7575448375,0.01502991,-0.00083923,-1.00054932,0.061035,-0.061035,-0.061035
7583004000,0.01544189,-0.00070190,-0.99961853,0.061035,-0.061035,-0.061035
7585519000,0.01544189,-0.00070190,-0.99961853,0.061035,0.000000,-0.122070
7592891958,0.01484680,-0.00100708,-1.00096130,0.061035,0.000000,-0.122070
7595407375,0.01484680,-0.00100708,-1.00096130,0.122070,0.122070,-0.061035
7602943250,0.01539612,-0.00184631,-1.00064087,0.122070,0.122070,-0.061035
7605460625,0.01539612,-0.00184631,-1.00064087,0.061035,-0.061035,-0.122070
7613013833,0.01452637,-0.00215149,-0.99940491,0.061035,-0.061035,-0.122070
7615496000,0.01452637,-0.00215149,-0.99940491,0.122070,0.183105,-0.061035
7625134291,0.01435852,-0.00144958,-0.99929810,0.000000,0.000000,-0.122070
7632695416,0.01489258,-0.00032043,-0.99897766,0.000000,0.000000,-0.122070
7635219500,0.01489258,-0.00032043,-0.99897766,0.183105,0.061035,0.061035
7645288250,0.01507568,0.00036621,-1.00134277,0.061035,0.000000,0.000000
7655368583,0.01547241,0.00083923,-1.00134277,0.061035,-0.061035,-0.183105
7665444416,0.01364136,0.00090027,-1.00077820,-0.122070,0.061035,-0.061035
7675486291,0.01426697,0.00054932,-0.99995422,-0.122070,-0.061035,-0.244141
7685582333,0.01579285,0.00057983,-1.00054932,0.061035,-0.061035,-0.061035
7695694166,0.01535034,0.00033569,-1.00071716,0.122070,0.061035,0.000000
7703278291,0.01531982,0.00010681,-0.99871826,0.122070,0.061035,0.000000
7705822208,0.01531982,0.00010681,-0.99871826,0.000000,0.122070,-0.183105
7715369333,0.01554871,0.00123596,-1.00164795,0.000000,0.122070,-0.061035
7725477125,0.01510620,0.00047302,-1.00074768,0.122070,-0.061035,-0.061035
7735359083,0.01409912,-0.00006104,-1.00082397,0.000000,0.061035,-0.061035
7745230916,0.01530457,-0.00224304,-0.99977112,0.122070,0.183105,-0.122070
7755372500,0.01481628,-0.00215149,-1.00088501,0.000000,0.183105,-0.061035
7765500166,0.01472473,-0.00216675,-0.99954224,0.061035,0.000000,-0.061035
7773144083,0.01585388,-0.00126648,-1.00032043,0.061035,0.000000,-0.061035
7775691666,0.01585388,-0.00126648,-1.00032043,0.122070,0.061035,-0.061035
7783280083,0.01614380,0.00076294,-0.99919128,0.122070,0.061035,-0.061035
7785819166,0.01614380,0.00076294,-0.99919128,-0.061035,0.061035,0.000000
7793401833,0.01466370,0.00025940,-1.00053406,-0.061035,0.061035,0.000000
7795947041,0.01466370,0.00025940,-1.00053406,0.122070,0.000000,-0.061035
7803406458,0.01556396,0.00196838,-1.00172424,0.122070,0.000000,-0.061035
7805948958,0.01556396,0.00196838,-1.00172424,0.061035,0.122070,-0.122070
7813307041,0.01596069,0.00199890,-0.99853516,0.061035,0.122070,-0.122070
7815850708,0.01596069,0.00199890,-0.99853516,0.000000,0.061035,-0.061035
7823434000,0.01513672,-0.00099182,-1.00016785,0.000000,0.061035,-0.061035
7825973250,0.01513672,-0.00099182,-1.00016785,0.061035,0.000000,-0.183105
7833569083,0.01571655,0.00028992,-1.00163269,0.061035,0.000000,-0.183105
7836123958,0.01571655,0.00028992,-1.00163269,0.122070,0.061035,-0.183105
7843727958,0.01501465,-0.00030518,-0.99891663,0.122070,0.061035,-0.183105
7846282875,0.01501465,-0.00030518,-0.99891663,0.183105,0.122070,-0.122070
7853882250,0.01576233,-0.00044250,-1.00173950,0.183105,0.122070,-0.122070
7856435083,0.01576233,-0.00044250,-1.00173950,0.000000,0.122070,-0.061035
7864035625,0.01524353,-0.00022888,-0.99911499,0.000000,0.122070,-0.061035
7866581833,0.01524353,-0.00022888,-0.99911499,0.000000,-0.061035,0.061035
7874164416,0.01589966,0.00019836,-1.00126648,0.000000,-0.061035,0.061035
7876700000,0.01589966,0.00019836,-1.00126648,0.183105,0.000000,-0.122070
7884222833,0.01635742,-0.00079346,-1.00103760,0.183105,0.000000,-0.122070
7886776625,0.01635742,-0.00079346,-1.00103760,0.000000,0.061035,-0.183105
7894167291,0.01502991,-0.00099182,-1.00050354,0.000000,0.061035,-0.183105
7896703750,0.01502991,-0.00099182,-1.00050354,0.061035,0.183105,0.000000
7904313125,0.01496887,-0.00155640,-0.99909973,0.061035,0.183105,0.000000
7906862708,0.01496887,-0.00155640,-0.99909973,0.122070,0.061035,0.122070
7914446541,0.01506042,-0.00134277,-1.00091553,0.122070,0.061035,0.122070
7916984000,0.01506042,-0.00134277,-1.00091553,0.061035,0.061035,-0.122070
7924573083,0.01437378,-0.00128174,-1.00151062,0.061035,0.061035,-0.122070
7927110666,0.01437378,-0.00128174,-1.00151062,0.000000,0.000000,-0.061035
7934690666,0.01451111,-0.00047302,-1.00015259,0.000000,0.000000,-0.061035
7937227375,0.01451111,-0.00047302,-1.00015259,0.061035,0.000000,-0.061035
7944877583,0.01538086,0.00019836,-1.00190735,0.061035,0.000000,-0.061035
7947432000,0.01538086,0.00019836,-1.00190735,0.122070,-0.061035,0.000000
7955212291,0.01554871,0.00097656,-1.00120544,0.122070,-0.061035,0.000000
7957758750,0.01554871,0.00097656,-1.00120544,0.000000,0.000000,-0.061035
7965352791,0.01565552,0.00155640,-1.00077820,0.061035,0.000000,-0.061035
7975481250,0.01693726,0.00096130,-1.00062561,0.122070,0.061035,0.000000
7985604125,0.01576233,0.00088501,-0.99922180,0.122070,0.183105,-0.061035
7995729041,0.01528931,0.00085449,-1.00042725,-0.061035,0.000000,0.000000
8005852958,0.01564026,0.00044250,-1.00080872,0.000000,0.061035,0.061035
8015969500,0.01475525,-0.00135803,-1.00221252,0.000000,0.000000,0.000000
8026097750,0.01445007,-0.00218201,-0.99958801,-0.061035,-0.122070,-0.183105
8036224541,0.01554871,-0.00158691,-1.00080872,0.061035,-0.061035,-0.122070
8046064875,0.01580811,-0.00059509,-1.00112915,0.122070,0.061035,0.000000
8056272333,0.01504517,0.00085449,-1.00032043,0.122070,0.061035,-0.061035
8066430791,0.01635742,0.00079346,-1.00077820,-0.061035,0.183105,0.000000
8076574833,0.01451111,-0.00007629,-1.00036621,0.061035,0.000000,0.000000
8084204541,0.01344299,0.00009155,-1.00143433,0.061035,0.000000,0.000000
8086761250,0.01344299,0.00009155,-1.00143433,0.061035,-0.122070,-0.061035
8094229541,0.01327515,0.00054932,-0.99946594,0.061035,-0.122070,-0.061035
8096800625,0.01327515,0.00054932,-0.99946594,0.000000,0.183105,0.061035
8104513000,0.01438904,-0.00129700,-1.00022888,0.000000,0.183105,0.061035
8107098250,0.01438904,-0.00129700,-1.00022888,0.000000,0.000000,0.000000
8114787625,0.01516724,-0.00218201,-1.00088501,0.000000,0.000000,0.000000
8117393375,0.01516724,-0.00218201,-1.00088501,-0.061035,0.061035,-0.061035
8125009041,0.01574707,-0.00111389,-1.00021362,-0.061035,0.061035,-0.061035
8127570333,0.01574707,-0.00111389,-1.00021362,0.061035,0.061035,-0.244141
8135180250,0.01536560,-0.00067139,-1.00103760,0.061035,0.061035,-0.244141
8137685083,0.01536560,-0.00067139,-1.00103760,0.000000,0.061035,-0.061035
8145295583,0.01603699,0.00100708,-1.00041199,0.000000,0.061035,-0.061035
8147858625,0.01603699,0.00100708,-1.00041199,0.061035,-0.061035,-0.122070
8155505000,0.01715088,-0.00004578,-1.00140381,-0.122070,0.061035,0.000000
8165661208,0.01748657,-0.00134277,-1.00111389,0.000000,0.122070,-0.061035
8175509083,0.01773071,-0.00062561,-1.00000000,0.122070,0.122070,-0.122070
8185649166,0.01547241,0.00129700,-0.99995422,0.000000,0.122070,-0.122070
8195440250,0.01239014,0.00122070,-0.99981689,0.000000,0.122070,-0.122070
8198001791,0.01239014,0.00122070,-0.99981689,0.122070,0.000000,-0.122070
8205640250,0.01226807,0.00030518,-1.00039673,-0.061035,0.000000,-0.061035
8215790541,0.01246643,-0.00033569,-1.00053406,0.183105,0.061035,-0.061035
8225667583,0.01373291,-0.00228882,-1.00039673,0.000000,-0.122070,-0.061035
8235506666,0.01437378,-0.00253296,-1.00146484,0.000000,-0.122070,-0.061035
8238052833,0.01437378,-0.00253296,-1.00146484,0.183105,-0.061035,-0.122070
8245698833,0.01449585,-0.00126648,-1.00137329,0.061035,0.000000,-0.244141
8255832083,0.01512146,-0.00073242,-1.00141907,0.061035,0.000000,-0.244141
8258381291,0.01512146,-0.00073242,-1.00141907,0.000000,0.183105,0.000000
8265982916,0.01629639,0.00013733,-1.00117493,0.000000,0.183105,0.000000
8268526166,0.01629639,0.00013733,-1.00117493,0.000000,0.061035,-0.122070
8276184083,0.01623535,0.00114441,-1.00100708,0.000000,0.061035,0.061035
8286318041,0.01664734,0.00000000,-1.00119019,0.122070,0.000000,0.000000
8296464625,0.01509094,-0.00047302,-1.00053406,0.061035,0.000000,-0.122070
8306594583,0.01390076,-0.00054932,-0.99913025,0.000000,0.000000,-0.061035
8316340708,0.01397705,-0.00083923,-1.00238037,0.061035,0.061035,0.000000
8326452125,0.01330566,0.00123596,-1.00128174,0.061035,0.061035,0.000000
8336575250,0.01426697,0.00010681,-0.99894714,0.061035,-0.061035,-0.122070
8346725458,0.01557922,-0.00062561,-1.00057983,0.122070,0.122070,-0.061035
8356683833,0.01715088,-0.00111389,-1.00004578,0.061035,0.061035,-0.183105
8366821833,0.01811218,-0.00195312,-1.00100708,0.000000,-0.061035,-0.061035
8376452750,0.01689148,-0.00105286,-1.00102234,-0.122070,0.122070,-0.061035
8386307750,0.01483154,-0.00062561,-1.00028992,0.061035,0.000000,-0.122070
8395636958,0.01362610,-0.00001526,-1.00192261,0.061035,0.000000,-0.122070
8398185833,0.01362610,-0.00001526,-1.00192261,0.000000,-0.061035,-0.122070
8405795875,0.01452637,0.00048828,-1.00053406,0.000000,-0.061035,-0.122070
8408335083,0.01452637,0.00048828,-1.00053406,0.061035,0.061035,-0.061035
8415922791,0.01379395,0.00044250,-0.99964905,0.061035,0.061035,-0.061035
8418465375,0.01379395,0.00044250,-0.99964905,0.000000,0.122070,-0.061035
8426046583,0.01425171,0.00230408,-1.00164795,0.000000,0.122070,-0.061035
8428584250,0.01425171,0.00230408,-1.00164795,0.000000,-0.122070,0.000000
8436204541,0.01600647,0.00323486,-0.99777222,0.061035,0.000000,-0.061035
8446051500,0.01608276,0.00390625,-1.00148010,0.061035,0.000000,-0.061035
8448592833,0.01608276,0.00390625,-1.00148010,0.122070,0.061035,-0.122070
8456194208,0.01594543,0.00375366,-1.00083923,0.122070,0.061035,-0.122070
8458751916,0.01594543,0.00375366,-1.00083923,0.061035,0.061035,0.000000
8466346375,0.01513672,0.00201416,-1.00077820,0.122070,0.122070,-0.061035
8476482500,0.01512146,-0.00013733,-0.99928284,0.122070,0.061035,0.000000
8486545833,0.01597595,-0.00151062,-1.00001526,0.061035,0.061035,-0.061035
8496714541,0.01571655,-0.00444031,-1.00105286,0.000000,0.122070,-0.061035
8506846458,0.01431274,-0.00564575,-1.00036621,0.122070,0.000000,0.000000
8516959250,0.01440430,-0.00402832,-1.00057983,0.122070,-0.061035,-0.122070
8527069875,0.01409912,-0.00427246,-1.00007629,0.061035,-0.061035,-0.122070
8536705625,0.01467896,-0.00210571,-1.00129700,0.183105,0.061035,0.000000
8546865291,0.01544189,-0.00006104,-1.00152588,0.061035,0.122070,-0.061035
8556934333,0.01536560,0.00152588,-1.00068665,0.183105,0.000000,-0.122070
8566803416,0.01574707,0.00378418,-1.00088501,0.000000,-0.122070,0.061035
8576956583,0.01564026,0.00474548,-1.00144958,0.061035,0.183105,0.000000
8586605500,0.01509094,0.00482178,-1.00177002,0.061035,0.183105,0.000000
8588876375,0.01509094,0.00482178,-1.00177002,0.122070,0.122070,0.000000
8596461625,0.01576233,0.00427246,-1.00138855,0.122070,0.122070,0.000000
8599000333,0.01576233,0.00427246,-1.00138855,0.000000,0.122070,-0.061035
8606579958,0.01640320,0.00297546,-1.00080872,0.000000,0.122070,-0.061035
8608775416,0.01640320,0.00297546,-1.00080872,-0.061035,0.061035,-0.122070
8616377291,0.01570129,-0.00027466,-1.00067139,-0.061035,0.061035,-0.122070
8618915958,0.01570129,-0.00027466,-1.00067139,0.000000,0.122070,0.000000
8626512708,0.01542664,-0.00236511,-0.99946594,0.000000,0.122070,0.000000
8629050250,0.01542664,-0.00236511,-0.99946594,0.061035,0.061035,-0.061035
8636386833,0.01460266,-0.00466919,-0.99940491,0.061035,0.061035,-0.061035
8638927375,0.01460266,-0.00466919,-0.99940491,0.061035,-0.061035,-0.061035
8646518416,0.01460266,-0.00531006,-1.00033569,0.061035,-0.061035,-0.061035
8649057250,0.01460266,-0.00531006,-1.00033569,0.061035,0.000000,-0.122070
8656536500,0.01385498,-0.00613403,-1.00047302,0.061035,0.000000,-0.122070
8659073625,0.01385498,-0.00613403,-1.00047302,0.061035,0.183105,-0.061035
8666655000,0.01371765,-0.00514221,-1.00009155,0.061035,0.183105,-0.061035
8669189625,0.01371765,-0.00514221,-1.00009155,0.000000,0.000000,0.000000
8676786791,0.01423645,-0.00282288,-1.00119019,0.000000,0.000000,0.000000
8679329416,0.01423645,-0.00282288,-1.00119019,0.061035,-0.061035,-0.122070
8686918500,0.01371765,-0.00048828,-1.00027466,0.061035,-0.061035,-0.122070
8689476416,0.01371765,-0.00048828,-1.00027466,0.000000,0.122070,-0.183105
8697069625,0.01435852,0.00094604,-1.00056458,0.000000,0.122070,-0.183105
8699521125,0.01435852,0.00094604,-1.00056458,0.000000,0.000000,-0.183105
8707120458,0.01605225,0.00285339,-1.00007629,0.000000,0.000000,-0.183105
8717233375,0.01466370,0.00376892,-1.00143433,0.000000,0.061035,-0.122070
8727342291,0.01640320,0.00469971,-1.00131226,0.061035,0.000000,-0.122070
8737452208,0.01684570,0.00494385,-0.99981689,0.061035,0.061035,0.000000
8747559541,0.01705933,0.00479126,-1.00071716,0.122070,0.061035,-0.061035
8757676875,0.01821899,0.00337219,-1.00030518,0.061035,0.061035,0.000000
8767798833,0.01635742,0.00149536,-1.00009155,0.061035,0.122070,0.000000
8777920958,0.01539612,-0.00042725,-0.99949646,0.122070,0.000000,-0.122070
8788036541,0.01435852,-0.00462341,-1.00047302,0.000000,-0.061035,-0.183105
8797759625,0.01417542,-0.00552368,-1.00016785,-0.061035,0.000000,-0.122070
8807897291,0.01414490,-0.00567627,-0.99990845,0.000000,0.061035,-0.122070
8818024916,0.01289368,-0.00431824,-1.00064087,0.061035,0.000000,-0.122070
8828141833,0.01353455,-0.00262451,-0.99992371,0.122070,0.000000,-0.061035
8838254416,0.01411438,-0.00062561,-1.00022888,0.183105,0.061035,-0.183105
8848403875,0.01426697,0.00274658,-1.00013733,0.061035,0.000000,0.000000
8858557291,0.01556396,0.00312805,-0.99903870,0.122070,0.061035,0.000000
8866207041,0.01684570,0.00431824,-1.00033569,0.122070,0.061035,0.000000
8868744583,0.01684570,0.00431824,-1.00033569,0.061035,0.122070,-0.122070
8876337583,0.01690674,0.00436401,-1.00091553,0.061035,0.122070,-0.122070
8878880333,0.01690674,0.00436401,-1.00091553,0.000000,0.183105,-0.061035
8886268041,0.01589966,0.00303650,-0.99940491,0.000000,0.183105,-0.061035
8888816916,0.01589966,0.00303650,-0.99940491,-0.061035,0.061035,-0.061035
8898640125,0.01490784,0.00259399,-1.00102234,0.061035,0.000000,-0.061035
8908793666,0.01522827,0.00051880,-1.00013733,0.122070,0.122070,0.122070
8916393750,0.01431274,-0.00277710,-0.99851990,0.122070,0.122070,0.122070
8918936625,0.01431274,-0.00277710,-0.99851990,0.000000,0.061035,-0.122070
8926528083,0.01396179,-0.00529480,-0.99993896,0.000000,0.061035,-0.122070
8928838916,0.01396179,-0.00529480,-0.99993896,0.122070,0.122070,-0.122070
8936453375,0.01498413,-0.00680542,-0.99945068,0.122070,0.122070,-0.122070
8938995250,0.01498413,-0.00680542,-0.99945068,0.183105,0.122070,-0.183105
8946582791,0.01414490,-0.00531006,-1.00013733,0.183105,0.122070,-0.183105
8949145666,0.01414490,-0.00531006,-1.00013733,0.244141,-0.122070,-0.244141
8959018750,0.01519775,-0.00315857,-0.99972534,0.061035,-0.061035,-0.061035
8966620041,0.01539612,-0.00096130,-1.00028992,0.061035,-0.061035,-0.061035
8969160625,0.01539612,-0.00096130,-1.00028992,0.183105,0.061035,-0.122070
8976749458,0.01548767,0.00108337,-0.99995422,0.183105,0.061035,-0.122070
8979290791,0.01548767,0.00108337,-0.99995422,0.000000,0.000000,0.000000
8986922208,0.01373291,0.00364685,-1.00019836,0.000000,0.000000,0.000000
8989471000,0.01373291,0.00364685,-1.00019836,0.000000,0.000000,-0.061035
8996848958,0.01354980,0.00445557,-1.00010681,0.000000,0.000000,-0.061035
8998908458,0.01354980,0.00445557,-1.00010681,0.000000,0.000000,-0.061035
9008710375,0.01475525,0.00419617,-0.99984741,0.061035,0.000000,-0.061035
9018852166,0.01567078,0.00416565,-1.00244141,0.122070,0.000000,0.061035
9028982500,0.01615906,0.00193787,-1.00053406,0.000000,0.061035,0.000000
9039105625,0.01673889,0.00082397,-1.00135803,0.000000,0.061035,0.000000
9049237166,0.01701355,-0.00077820,-1.00053406,0.122070,0.061035,-0.061035
9059092750,0.01542664,-0.00241089,-0.99987793,-0.061035,0.061035,0.000000
9069238333,0.01464844,-0.00318909,-0.99981689,0.000000,0.061035,-0.061035
9079386500,0.01489258,-0.00389099,-1.00094604,0.061035,0.122070,-0.183105
9089499791,0.01431274,-0.00422668,-1.00071716,0.122070,-0.061035,-0.061035
9099048041,0.01353455,-0.00335693,-0.99928284,0.061035,0.061035,-0.061035
9109196250,0.01368713,-0.00195312,-1.00038147,0.061035,0.000000,-0.183105
9119309541,0.01441956,0.00025940,-0.99972534,0.122070,0.000000,-0.061035
9129443041,0.01396179,0.00135803,-1.00067139,0.183105,0.000000,-0.122070
9139342083,0.01490784,0.00259399,-1.00016785,0.122070,-0.183105,-0.061035
9149506125,0.01455688,0.00263977,-0.99984741,0.000000,0.000000,-0.183105
9159659000,0.01548767,0.00230408,-1.00080872,0.061035,-0.061035,0.000000
9167250000,0.01692200,0.00097656,-1.00021362,0.061035,-0.061035,0.000000
9169789791,0.01692200,0.00097656,-1.00021362,0.000000,0.000000,-0.061035
9177371458,0.01702881,-0.00025940,-1.00128174,0.000000,0.000000,-0.061035
9179944208,0.01702881,-0.00025940,-1.00128174,0.061035,0.122070,-0.061035
9187298000,0.01615906,-0.00105286,-1.00099182,0.061035,0.122070,-0.061035
9189857083,0.01615906,-0.00105286,-1.00099182,0.122070,0.000000,-0.061035
9197468166,0.01477051,-0.00201416,-1.00096130,0.122070,0.000000,-0.061035
9200009041,0.01477051,-0.00201416,-1.00096130,0.000000,0.061035,0.000000
9207633583,0.01478577,-0.00187683,-1.00070190,0.000000,0.061035,0.000000
9210219208,0.01478577,-0.00187683,-1.00070190,0.061035,0.122070,-0.122070
9217914083,0.01551819,-0.00115967,-1.00033569,0.061035,0.122070,-0.122070
9220478416,0.01551819,-0.00115967,-1.00033569,-0.061035,0.122070,-0.122070
9228070125,0.01545715,-0.00112915,-1.00038147,-0.061035,0.122070,-0.122070
9230620416,0.01545715,-0.00112915,-1.00038147,0.061035,0.061035,-0.061035
9238176583,0.01556396,-0.00151062,-1.00132751,0.061035,0.061035,-0.061035
9240722416,0.01556396,-0.00151062,-1.00132751,-0.183105,0.061035,-0.183105
9248318333,0.01528931,-0.00027466,-1.00082397,-0.183105,0.061035,-0.183105
9250879333,0.01528931,-0.00027466,-1.00082397,0.061035,0.061035,-0.061035
9258210625,0.01565552,0.00013733,-1.00021362,0.061035,0.061035,-0.061035
9260748083,0.01565552,0.00013733,-1.00021362,0.000000,0.061035,-0.122070
9268339708,0.01502991,0.00054932,-1.00038147,0.000000,0.061035,-0.122070
9270891208,0.01502991,0.00054932,-1.00038147,0.061035,-0.061035,-0.061035
9278480000,0.01397705,0.00218201,-1.00032043,0.061035,-0.061035,-0.061035
9281025166,0.01397705,0.00218201,-1.00032043,0.122070,-0.122070,-0.061035
9288425666,0.01417542,0.00236511,-1.00115967,0.122070,-0.122070,-0.061035
9290974750,0.01417542,0.00236511,-1.00115967,0.061035,0.000000,-0.122070
9298313625,0.01594543,0.00166321,-1.00141907,0.061035,0.000000,-0.122070
9300871375,0.01594543,0.00166321,-1.00141907,0.061035,0.122070,-0.061035
9308452375,0.01593018,-0.00012207,-0.99952698,0.061035,0.122070,-0.061035
9310981208,0.01593018,-0.00012207,-0.99952698,0.183105,0.000000,-0.061035
9318453291,0.01567078,-0.00068665,-1.00103760,0.183105,0.000000,-0.061035
9320990708,0.01567078,-0.00068665,-1.00103760,0.183105,0.183105,-0.061035
9328602791,0.01496887,-0.00013733,-0.99958801,0.183105,0.183105,-0.061035
9331151250,0.01496887,-0.00013733,-0.99958801,0.061035,0.183105,-0.061035
9338760000,0.01469421,-0.00154114,-1.00018311,0.061035,0.183105,-0.061035
9341095666,0.01469421,-0.00154114,-1.00018311,0.000000,0.122070,0.000000
9348687708,0.01519775,-0.00105286,-0.99896240,0.000000,0.122070,0.000000
9351227541,0.01519775,-0.00105286,-0.99896240,0.061035,0.061035,-0.061035
9358821916,0.01490784,-0.00245667,-1.00010681,0.061035,0.061035,-0.061035
9361389416,0.01490784,-0.00245667,-1.00010681,0.000000,0.122070,-0.122070
9368952666,0.01542664,-0.00219727,-0.99946594,0.000000,0.122070,-0.122070
9371483708,0.01542664,-0.00219727,-0.99946594,0.061035,0.000000,-0.061035
9378597625,0.01515198,0.00009155,-1.00042725,0.061035,0.000000,-0.061035
9381116083,0.01515198,0.00009155,-1.00042725,0.061035,0.000000,-0.122070
9388665083,0.01493835,-0.00012207,-1.00070190,0.061035,0.000000,-0.122070
9391192125,0.01493835,-0.00012207,-1.00070190,-0.061035,-0.061035,-0.061035
9398283375,0.01475525,0.00030518,-1.00128174,-0.061035,-0.061035,-0.061035
9400806125,0.01475525,0.00030518,-1.00128174,0.183105,0.122070,-0.183105
9408183000,0.01498413,0.00062561,-1.00102234,0.183105,0.122070,-0.183105
9410709125,0.01498413,0.00062561,-1.00102234,0.122070,-0.122070,0.000000
9420573000,0.01502991,0.00175476,-0.99966431,0.122070,0.000000,0.061035
9428129833,0.01556396,0.00169373,-1.00090027,0.122070,0.000000,0.061035
9430651666,0.01556396,0.00169373,-1.00090027,0.061035,0.061035,-0.061035
9438201000,0.01618958,0.00192261,-1.00132751,0.061035,0.061035,-0.061035
9440724291,0.01618958,0.00192261,-1.00132751,0.000000,0.061035,0.000000
9450804291,0.01637268,-0.00009155,-1.00097656,0.000000,-0.122070,0.061035
9460597541,0.01512146,0.00196838,-1.00068665,0.061035,0.061035,-0.061035
9470700000,0.01300049,0.00415039,-0.99902344,-0.061035,0.122070,-0.183105
9478174791,0.01663208,0.00019836,-1.00119019,-0.061035,0.122070,-0.183105
9480707958,0.01663208,0.00019836,-1.00119019,0.000000,-0.061035,-0.061035
9488331375,0.01721191,-0.00189209,-0.99984741,0.000000,-0.061035,-0.061035
9490866250,0.01721191,-0.00189209,-0.99984741,0.122070,0.061035,-0.122070
9498463625,0.01678467,-0.00267029,-1.00193787,0.122070,0.061035,-0.122070
9501005458,0.01678467,-0.00267029,-1.00193787,0.061035,0.122070,0.061035
9508591666,0.01467896,-0.00225830,-0.99861145,0.061035,0.122070,0.061035
9511131041,0.01467896,-0.00225830,-0.99861145,0.183105,0.061035,-0.122070
9518712541,0.01489258,-0.00202942,-1.00028992,0.183105,0.061035,-0.122070
9521251041,0.01489258,-0.00202942,-1.00028992,0.000000,0.183105,-0.061035
9528414416,0.01455688,-0.00299072,-1.00088501,0.000000,0.183105,-0.061035
9530963500,0.01455688,-0.00299072,-1.00088501,0.183105,0.122070,-0.122070
9538546833,0.01605225,-0.00160217,-0.99877930,0.183105,0.122070,-0.122070
9541086166,0.01605225,-0.00160217,-0.99877930,0.122070,0.000000,-0.183105
9550716541,0.01591492,-0.00170898,-1.00166321,-0.122070,0.000000,-0.061035
9560605458,0.01568604,-0.00097656,-0.99981689,0.061035,0.061035,-0.061035
9568198166,0.01518250,0.00007629,-1.00103760,0.061035,0.061035,-0.061035
9570749166,0.01518250,0.00007629,-1.00103760,-0.061035,0.122070,0.000000
9578353625,0.01527405,0.00192261,-1.00033569,-0.061035,0.122070,0.000000
9580903333,0.01527405,0.00192261,-1.00033569,0.061035,0.122070,0.000000
9590800500,0.01536560,0.00247192,-1.00015259,0.061035,0.061035,-0.061035
9600561041,0.01542664,0.00325012,-1.00080872,0.122070,0.061035,0.000000
9610552875,0.01461792,0.00311279,-1.00122070,0.061035,0.000000,-0.061035
9620728833,0.01597595,0.00230408,-1.00071716,0.000000,0.000000,0.000000
9630964916,0.01597595,0.00096130,-1.00004578,0.061035,-0.122070,-0.122070
9638616083,0.01672363,-0.00053406,-1.00047302,0.061035,-0.122070,-0.122070
9641176041,0.01672363,-0.00053406,-1.00047302,0.000000,0.061035,0.000000
9648786625,0.01541138,-0.00164795,-1.00018311,0.000000,0.061035,0.000000
9651353500,0.01541138,-0.00164795,-1.00018311,0.122070,-0.061035,-0.183105
9658961541,0.01396179,-0.00361633,-1.00077820,0.122070,-0.061035,-0.183105
9661503750,0.01396179,-0.00361633,-1.00077820,0.122070,-0.061035,0.061035
9669107208,0.01382446,-0.00306702,-1.00068665,0.122070,-0.061035,0.061035
9671648083,0.01382446,-0.00306702,-1.00068665,0.061035,0.061035,-0.122070
9679232500,0.01336670,-0.00141907,-1.00064087,0.061035,0.061035,-0.122070
9681777208,0.01336670,-0.00141907,-1.00064087,0.061035,0.061035,-0.183105
9689375833,0.01466370,-0.00129700,-1.00096130,0.061035,0.061035,-0.183105
9691506041,0.01466370,-0.00129700,-1.00096130,0.061035,0.000000,-0.061035
9699096333,0.01579285,-0.00119019,-0.99958801,0.061035,0.000000,-0.061035
9701645250,0.01579285,-0.00119019,-0.99958801,-0.061035,0.061035,-0.244141
9709230208,0.01541138,0.00045776,-1.00064087,-0.061035,0.061035,-0.244141
9711781375,0.01541138,0.00045776,-1.00064087,0.061035,0.000000,-0.061035
9719374958,0.01506042,0.00119019,-1.00064087,0.061035,0.000000,-0.061035
9721909791,0.01506042,0.00119019,-1.00064087,0.061035,0.000000,-0.061035
9729511166,0.01539612,0.00146484,-1.00090027,0.061035,0.000000,-0.061035
9732054708,0.01539612,0.00146484,-1.00090027,-0.061035,0.000000,0.061035
9739636958,0.01441956,0.00207520,-1.00057983,-0.061035,0.000000,0.061035
9742174666,0.01441956,0.00207520,-1.00057983,0.061035,0.183105,0.000000
9749758583,0.01382446,0.00253296,-1.00103760,0.061035,0.183105,0.000000
9752298250,0.01382446,0.00253296,-1.00103760,0.244141,-0.061035,-0.244141
9759887875,0.01564026,0.00209045,-1.00003052,0.244141,-0.061035,-0.244141
9762424916,0.01564026,0.00209045,-1.00003052,0.000000,-0.061035,-0.061035
9770019333,0.01582336,0.00062561,-1.00022888,0.000000,-0.061035,-0.061035
9772565833,0.01582336,0.00062561,-1.00022888,0.061035,0.061035,-0.061035
9780171583,0.01623535,-0.00070190,-1.00061035,0.183105,0.122070,0.000000
9790316166,0.01556396,-0.00129700,-1.00015259,0.122070,0.061035,-0.122070
9800222000,0.01495361,-0.00244141,-1.00019836,0.122070,0.000000,0.000000
9810333208,0.01432800,-0.00265503,-1.00024414,0.000000,-0.061035,-0.183105
9820443500,0.01371765,-0.00291443,-1.00120544,0.061035,0.122070,-0.061035
9830561833,0.01339722,-0.00309753,-1.00151062,0.000000,-0.061035,-0.061035
9840564291,0.01414490,-0.00251770,-0.99992371,0.061035,0.122070,0.061035
9850207125,0.01547241,-0.00173950,-0.99925232,0.061035,0.122070,0.061035
9852526583,0.01547241,-0.00173950,-0.99925232,-0.122070,0.000000,-0.183105
9860127375,0.01551819,0.00001526,-0.99948120,-0.122070,0.000000,-0.183105
9862667625,0.01551819,0.00001526,-0.99948120,0.061035,0.122070,-0.122070
9870001166,0.01557922,0.00154114,-1.00062561,0.061035,0.122070,-0.122070
9872538708,0.01557922,0.00154114,-1.00062561,0.122070,0.122070,-0.061035
9880023333,0.01528931,0.00274658,-0.99980164,0.122070,0.122070,-0.061035
9882292833,0.01528931,0.00274658,-0.99980164,0.061035,0.061035,-0.122070
9889891125,0.01550293,0.00364685,-0.99992371,0.061035,0.061035,-0.122070
9892430666,0.01550293,0.00364685,-0.99992371,0.061035,0.000000,-0.122070
9900018708,0.01620483,0.00198364,-1.00070190,0.061035,0.000000,-0.122070
9902557875,0.01620483,0.00198364,-1.00070190,0.122070,0.122070,-0.061035
9910164083,0.01594543,0.00119019,-1.00068665,0.122070,0.122070,-0.061035
9912707958,0.01594543,0.00119019,-1.00068665,0.061035,0.061035,-0.183105
9920302625,0.01539612,0.00080872,-1.00161743,0.061035,0.061035,-0.183105
9922849875,0.01539612,0.00080872,-1.00161743,0.061035,0.122070,0.000000
9930453208,0.01678467,0.00000000,-1.00151062,0.061035,0.122070,0.000000
9932999541,0.01678467,0.00000000,-1.00151062,0.000000,0.061035,-0.122070
9940610416,0.01486206,-0.00151062,-0.99966431,0.061035,0.061035,-0.061035
9950736833,0.01420593,-0.00213623,-1.00032043,0.061035,0.183105,0.061035
9960487041,0.01382446,-0.00239563,-1.00019836,0.061035,0.183105,0.061035
9963040791,0.01382446,-0.00239563,-1.00019836,0.061035,0.061035,-0.061035
9970657500,0.01376343,-0.00328064,-1.00027466,0.122070,0.000000,-0.122070
9980387000,0.01332092,-0.00340271,-0.99958801,0.122070,0.000000,-0.122070
9982935583,0.01332092,-0.00340271,-0.99958801,0.061035,-0.061035,0.000000
9990211375,0.01495361,-0.00259399,-1.00068665,0.061035,-0.061035,0.000000
9992747583,0.01495361,-0.00259399,-1.00068665,0.000000,-0.061035,-0.244141
10000335041,0.01608276,-0.00007629,-1.00067139,0.000000,-0.061035,-0.244141
10002872375,0.01608276,-0.00007629,-1.00067139,0.000000,-0.061035,-0.244141
10010457333,0.01641846,0.00155640,-1.00041199,0.000000,-0.061035,-0.244141
10012994250,0.01641846,0.00155640,-1.00041199,0.183105,0.061035,-0.183105
10020577083,0.01687622,0.00180054,-1.00079346,0.183105,0.061035,-0.183105
10023116291,0.01687622,0.00180054,-1.00079346,0.061035,0.122070,-0.061035
10030430666,0.01530457,0.00253296,-1.00004578,0.061035,0.122070,-0.061035
10032968916,0.01530457,0.00253296,-1.00004578,0.122070,0.000000,0.000000
10040256458,0.01580811,0.00244141,-0.99993896,0.122070,0.000000,0.000000
10042802541,0.01580811,0.00244141,-0.99993896,0.061035,0.000000,-0.061035
10050387166,0.01446533,0.00209045,-1.00048828,0.061035,0.000000,-0.061035
10052927208,0.01446533,0.00209045,-1.00048828,0.183105,0.122070,0.061035
10060395875,0.01580811,0.00048828,-1.00096130,0.183105,0.122070,0.061035
10062935125,0.01580811,0.00048828,-1.00096130,-0.061035,0.122070,-0.305176
10070150708,0.01652527,-0.00033569,-1.00105286,-0.061035,0.122070,-0.305176
10072689250,0.01652527,-0.00033569,-1.00105286,0.061035,0.000000,0.000000
10080279708,0.01556396,-0.00030518,-1.00041199,0.061035,0.000000,0.000000
10082823291,0.01556396,-0.00030518,-1.00041199,0.000000,0.000000,0.000000
10092584125,0.01559448,-0.00112915,-1.00015259,0.122070,-0.061035,0.000000
10102024750,0.01495361,-0.00125122,-0.99942017,0.061035,0.000000,-0.061035
10112148166,0.01499939,-0.00151062,-0.99925232,0.061035,-0.061035,-0.061035
10122341333,0.01466370,-0.00158691,-1.00177002,0.061035,0.000000,-0.122070
10132475958,0.01280212,-0.00120544,-0.99893188,0.000000,0.183105,-0.061035
10142327333,0.01368713,-0.00068665,-0.99906921,0.000000,0.061035,-0.122070
10152200166,0.01515198,-0.00207520,-1.00093079,-0.732422,-0.122070,-0.061035
10162334791,0.01416016,-0.00042725,-0.99923706,0.000000,0.061035,0.000000
10172557166,0.01515198,0.00120544,-1.00440979,-0.183105,0.122070,-0.061035
10180214625,0.01391602,0.00209045,-0.99990845,-0.183105,0.122070,-0.061035
10182801500,0.01391602,0.00209045,-0.99990845,0.061035,0.061035,-0.122070
10190400458,0.01449585,0.00250244,-0.99908447,0.061035,0.061035,-0.122070
10192939083,0.01449585,0.00250244,-0.99908447,-0.122070,0.000000,-0.061035
10200522583,0.01606750,0.00247192,-1.00308228,-0.122070,0.000000,-0.061035
10203059750,0.01606750,0.00247192,-1.00308228,0.061035,0.061035,-0.061035
10210652875,0.01620483,0.00222778,-1.00000000,0.061035,0.061035,-0.061035
10213195666,0.01620483,0.00222778,-1.00000000,0.244141,-0.061035,-0.061035
10220793791,0.01686096,-0.00102234,-1.00204468,0.244141,-0.061035,-0.061035
10223344416,0.01686096,-0.00102234,-1.00204468,0.061035,0.122070,0.061035
10230938416,0.01664734,-0.00241089,-0.99838257,0.061035,0.122070,0.061035
10233479666,0.01664734,-0.00241089,-0.99838257,0.000000,0.122070,0.061035
10241067458,0.01486206,-0.00152588,-1.00001526,0.000000,0.122070,0.061035
10243611416,0.01486206,-0.00152588,-1.00001526,0.000000,0.000000,-0.122070
10251212291,0.01473999,-0.00122070,-1.00013733,0.000000,0.000000,-0.122070
10253766125,0.01473999,-0.00122070,-1.00013733,0.000000,0.061035,-0.183105
10261375083,0.01461792,-0.00192261,-0.99980164,0.000000,0.061035,-0.183105
10263918416,0.01461792,-0.00192261,-0.99980164,-0.061035,0.000000,-0.122070
10271567750,0.01437378,-0.00225830,-1.00105286,0.000000,0.183105,-0.122070
10281564333,0.01483154,-0.00044250,-1.00151062,0.000000,0.000000,-0.122070
10291319000,0.01576233,0.00016785,-1.00042725,0.000000,0.000000,-0.122070
10293859416,0.01576233,0.00016785,-1.00042725,0.061035,0.122070,-0.122070
10301455166,0.01515198,0.00009155,-0.99923706,0.061035,0.122070,-0.122070
10304000666,0.01515198,0.00009155,-0.99923706,0.122070,0.061035,-0.122070
10311618916,0.01579285,0.00126648,-1.00181580,0.000000,0.000000,-0.122070
10321761208,0.01591492,0.00167847,-1.00163269,0.000000,-0.122070,-0.122070
10331883041,0.01411438,0.00079346,-0.99967957,0.122070,0.183105,0.061035
10341997375,0.01451111,0.00128174,-1.00120544,0.122070,0.183105,0.061035
10344536500,0.01451111,0.00128174,-1.00120544,0.000000,0.122070,-0.061035
10351915000,0.01583862,0.00016785,-1.00013733,0.000000,0.122070,-0.061035
10354473875,0.01583862,0.00016785,-1.00013733,0.000000,0.061035,-0.061035
10362080125,0.01618958,-0.00033569,-1.00192261,0.000000,0.061035,-0.061035
10364619458,0.01618958,-0.00033569,-1.00192261,0.000000,-0.061035,-0.061035
10372219625,0.01635742,-0.00059509,-1.00042725,0.122070,0.061035,0.000000
10382347291,0.01614380,-0.00160217,-1.00027466,0.000000,0.061035,-0.183105
10391790916,0.01521301,-0.00180054,-0.99984741,0.000000,0.061035,-0.183105
10394387375,0.01521301,-0.00180054,-0.99984741,0.000000,-0.061035,-0.122070
10401990791,0.01481628,-0.00149536,-0.99929810,0.000000,-0.061035,-0.122070
10404527708,0.01481628,-0.00149536,-0.99929810,0.122070,0.122070,-0.061035
10412132791,0.01487732,-0.00172424,-1.00016785,0.122070,0.122070,-0.061035
10414677041,0.01487732,-0.00172424,-1.00016785,0.061035,0.122070,-0.061035
10422279000,0.01533508,-0.00056458,-0.99971008,0.061035,0.061035,-0.061035
10432408958,0.01579285,-0.00027466,-0.99972534,0.061035,0.061035,0.000000
10442527833,0.01481628,0.00042725,-1.00036621,0.061035,0.122070,-0.122070
10452655875,0.01556396,0.00122070,-1.00050354,0.061035,0.122070,-0.061035
10462788750,0.01522827,0.00083923,-1.00079346,0.122070,0.000000,0.000000
10472899208,0.01603699,0.00054932,-0.99821472,-0.061035,0.000000,-0.061035
10482901208,0.01689148,0.00025940,-0.99958801,0.061035,0.061035,-0.061035
10493013083,0.01583862,-0.00030518,-0.99975586,0.061035,-0.061035,0.000000
10503145458,0.01525879,0.00033569,-1.00187683,0.061035,0.122070,0.061035
10512840666,0.01589966,0.00025940,-1.00074768,0.000000,0.183105,-0.061035
10522953958,0.01577759,0.00009155,-0.99980164,0.061035,-0.061035,-0.122070
10533067333,0.01463318,0.00025940,-1.00057983,0.000000,0.122070,0.000000
10543095541,0.01492310,-0.00123596,-1.00036621,-0.061035,-0.061035,-0.061035
10553260416,0.01570129,-0.00186157,-1.00122070,0.000000,-0.061035,-0.122070
10563437500,0.01432800,-0.00189209,-1.00065613,0.122070,0.061035,-0.061035
10573562750,0.01498413,-0.00061035,-1.00125122,0.000000,0.122070,0.061035
10581195291,0.01528931,-0.00015259,-1.00148010,0.000000,0.122070,0.061035
10583754208,0.01528931,-0.00015259,-1.00148010,0.122070,0.122070,-0.122070
10591363875,0.01583862,-0.00086975,-1.00083923,0.122070,0.122070,-0.122070
10593917750,0.01583862,-0.00086975,-1.00083923,0.122070,0.122070,-0.061035
10601506083,0.01533508,-0.00033569,-1.00086975,0.122070,0.122070,-0.061035
10604053333,0.01533508,-0.00033569,-1.00086975,0.000000,0.061035,-0.244141
10611660250,0.01577759,0.00067139,-0.99917603,0.000000,0.061035,-0.244141
10614273625,0.01577759,0.00067139,-0.99917603,0.122070,0.061035,-0.061035
10621885500,0.01528931,0.00062561,-0.99914551,0.122070,0.061035,-0.061035
10624423125,0.01528931,0.00062561,-0.99914551,0.122070,0.061035,-0.122070
