timestamp_ns,accel_x,accel_y,accel_z,gyro_x,gyro_y,gyro_z
93772125,0.00117493,0.00851440,-1.00697327,0.000000,0.000000,0.000000
103138625,0.00117493,0.00851440,-1.00697327,0.244141,-0.061035,-0.122070
106867500,0.00135803,0.00863647,-1.00732422,0.244141,-0.061035,-0.122070
112537625,0.00135803,0.00863647,-1.00732422,0.244141,-0.122070,-0.061035
115251000,0.00195312,0.00762939,-1.00575256,0.244141,-0.122070,-0.061035
118027333,0.00195312,0.00762939,-1.00575256,0.366211,0.061035,0.000000
120877750,0.00202942,0.00743103,-1.00628662,0.366211,0.061035,0.000000
126696041,0.00202942,0.00743103,-1.00628662,0.244141,0.061035,-0.122070
132225250,0.00317383,0.00834656,-1.00683594,0.244141,0.061035,-0.122070
137898375,0.00317383,0.00834656,-1.00683594,0.427246,-0.061035,0.000000
140525958,0.00402832,0.00788879,-1.00599670,0.427246,-0.061035,0.000000
146291541,0.00402832,0.00788879,-1.00599670,0.366211,0.061035,-0.061035
151344041,0.00262451,0.00749207,-1.00500488,0.366211,0.061035,-0.061035
156391208,0.00262451,0.00749207,-1.00500488,0.305176,-0.061035,-0.183105
161441458,0.00149536,0.00793457,-1.00614929,0.305176,-0.061035,-0.183105
166491041,0.00149536,0.00793457,-1.00614929,0.183105,-0.061035,-0.183105
171526208,0.00205994,0.00799561,-1.00576782,0.183105,-0.061035,-0.183105
176571833,0.00205994,0.00799561,-1.00576782,0.305176,0.183105,0.000000
179103583,0.00157166,0.00918579,-1.00495911,0.305176,0.183105,0.000000
186643875,0.00157166,0.00918579,-1.00495911,0.366211,0.000000,-0.183105
189158500,0.00233459,0.00959778,-1.00556946,0.366211,0.000000,-0.183105
196712666,0.00233459,0.00959778,-1.00556946,0.305176,0.061035,-0.183105
199088000,0.00276184,0.00857544,-1.00714111,0.305176,0.061035,-0.183105
206666666,0.00276184,0.00857544,-1.00714111,0.488281,0.000000,-0.122070
209185208,0.00219727,0.00822449,-1.00518799,0.488281,0.000000,-0.122070
216718000,0.00219727,0.00822449,-1.00518799,0.427246,0.183105,-0.122070
219240041,0.00141907,0.00762939,-1.00556946,0.427246,0.183105,-0.122070
226115250,0.00141907,0.00762939,-1.00556946,0.366211,0.061035,0.061035
230806458,0.00105286,0.00799561,-1.00477600,0.366211,0.061035,0.061035
235830375,0.00105286,0.00799561,-1.00477600,0.244141,0.061035,-0.122070
240759666,0.00077820,0.00755310,-1.00588989,0.244141,0.061035,-0.122070
245754375,0.00077820,0.00755310,-1.00588989,0.488281,0.061035,-0.122070
250355916,0.00140381,0.00791931,-1.00599670,0.488281,0.061035,-0.122070
257930125,0.00140381,0.00791931,-1.00599670,0.488281,0.183105,-0.122070
260469166,0.00198364,0.00843811,-1.00634766,0.488281,0.183105,-0.122070
268018875,0.00198364,0.00843811,-1.00634766,0.366211,0.122070,0.000000
270561250,0.00247192,0.00730896,-1.00634766,0.366211,0.122070,0.000000
275649625,0.00247192,0.00730896,-1.00634766,0.366211,0.000000,-0.061035
280674708,0.00355530,0.00741577,-1.00604248,0.366211,0.000000,-0.061035
285702833,0.00355530,0.00741577,-1.00604248,0.305176,-0.061035,0.000000
290743416,0.00225830,0.00778198,-1.00512695,0.305176,-0.061035,0.000000
295764625,0.00225830,0.00778198,-1.00512695,0.305176,0.183105,-0.061035
300795583,0.00201416,0.00746155,-1.00550842,0.305176,0.183105,-0.061035
305840750,0.00201416,0.00746155,-1.00550842,0.305176,-0.122070,-0.061035
310862291,0.00054932,0.00761414,-1.00888062,0.305176,-0.122070,-0.061035
315902625,0.00054932,0.00761414,-1.00888062,0.244141,0.061035,-0.061035
320947916,-0.00015259,0.00750732,-1.00752258,0.244141,0.061035,-0.061035
325986625,-0.00015259,0.00750732,-1.00752258,0.305176,0.000000,0.000000
331035291,0.00195312,0.00854492,-1.00453186,0.305176,0.000000,0.000000
336091583,0.00195312,0.00854492,-1.00453186,0.305176,0.061035,-0.061035
341141708,0.00399780,0.00918579,-1.00437927,0.305176,0.061035,-0.061035
346177958,0.00399780,0.00918579,-1.00437927,0.427246,0.122070,-0.061035
351235333,0.00444031,0.00900269,-1.00659180,0.427246,0.122070,-0.061035
356285083,0.00444031,0.00900269,-1.00659180,0.549316,0.061035,-0.061035
361339083,0.00343323,0.00819397,-1.00523376,0.549316,0.061035,-0.061035
366403416,0.00343323,0.00819397,-1.00523376,0.305176,0.122070,0.122070
371474708,0.00251770,0.00894165,-1.00550842,0.305176,0.122070,0.122070
376531125,0.00251770,0.00894165,-1.00550842,0.366211,0.061035,-0.061035
381597708,0.00190735,0.00863647,-1.00669861,0.366211,0.061035,-0.061035
386632708,0.00190735,0.00863647,-1.00669861,0.366211,0.122070,0.000000
389148625,0.00119019,0.00775146,-1.00628662,0.366211,0.122070,0.000000
396689208,0.00119019,0.00775146,-1.00628662,0.366211,0.183105,0.000000
399206208,0.00143433,0.00758362,-1.00608826,0.366211,0.183105,0.000000
406308208,0.00143433,0.00758362,-1.00608826,0.366211,0.000000,-0.061035
411340500,0.00181580,0.00691223,-1.00453186,0.366211,0.000000,-0.061035
416426000,0.00181580,0.00691223,-1.00453186,0.244141,0.061035,-0.122070
421564333,0.00332642,0.00775146,-1.00556946,0.244141,0.061035,-0.122070
426681625,0.00332642,0.00775146,-1.00556946,0.427246,0.183105,-0.122070
429250416,0.00262451,0.00790405,-1.00671387,0.427246,0.183105,-0.122070
436854791,0.00262451,0.00790405,-1.00671387,0.122070,-0.061035,-0.122070
439390458,0.00219727,0.00743103,-1.00473022,0.122070,-0.061035,-0.122070
446826666,0.00219727,0.00743103,-1.00473022,0.427246,0.000000,-0.061035
451648250,0.00138855,0.00721741,-1.00660706,0.427246,0.000000,-0.061035
456688958,0.00138855,0.00721741,-1.00660706,0.244141,0.061035,0.061035
459219500,0.00164795,0.00810242,-1.00646973,0.244141,0.061035,0.061035
466857166,0.00164795,0.00810242,-1.00646973,0.183105,0.122070,-0.061035
469434166,0.00137329,0.00848389,-1.00743103,0.183105,0.122070,-0.061035
477056333,0.00137329,0.00848389,-1.00743103,0.305176,0.183105,-0.122070
479326458,0.00109863,0.00869751,-1.00518799,0.305176,0.183105,-0.122070
486997000,0.00109863,0.00869751,-1.00518799,0.305176,0.061035,0.000000
489554541,0.00212097,0.00868225,-1.00605774,0.305176,0.061035,0.000000
497163250,0.00212097,0.00868225,-1.00605774,0.488281,0.000000,-0.183105
499731916,0.00141907,0.00895691,-1.00608826,0.488281,0.000000,-0.183105
506979708,0.00141907,0.00895691,-1.00608826,0.366211,-0.061035,-0.061035
509568875,0.00138855,0.00903320,-1.00714111,0.366211,-0.061035,-0.061035
517210708,0.00138855,0.00903320,-1.00714111,0.244141,0.061035,-0.061035
519805166,0.00151062,0.00810242,-1.00546265,0.244141,0.061035,-0.061035
527443583,0.00151062,0.00810242,-1.00546265,0.305176,0.122070,-0.061035
529987375,0.00166321,0.00721741,-1.00572205,0.305176,0.122070,-0.061035
537366791,0.00166321,0.00721741,-1.00572205,0.305176,-0.061035,-0.061035
539920416,0.00137329,0.00787354,-1.00637817,0.305176,-0.061035,-0.061035
547556708,0.00137329,0.00787354,-1.00637817,0.366211,0.183105,0.122070
550131541,0.00169373,0.00689697,-1.00578308,0.366211,0.183105,0.122070
557338833,0.00169373,0.00689697,-1.00578308,0.122070,0.000000,0.000000
559888208,0.00338745,0.00711060,-1.00553894,0.122070,0.000000,0.000000
567498750,0.00338745,0.00711060,-1.00553894,0.305176,0.061035,-0.122070
570078000,0.00355530,0.00814819,-1.00677490,0.305176,0.061035,-0.122070
577707833,0.00355530,0.00814819,-1.00677490,0.305176,0.061035,0.061035
580321000,0.00415039,0.00865173,-1.00680542,0.305176,0.061035,0.061035
587659041,0.00415039,0.00865173,-1.00680542,0.305176,0.061035,-0.183105
590217250,0.00314331,0.00762939,-1.00575256,0.305176,0.061035,-0.183105
597876041,0.00314331,0.00762939,-1.00575256,0.305176,0.122070,-0.183105
600475375,0.00277710,0.00758362,-1.00503540,0.305176,0.122070,-0.183105
608102916,0.00277710,0.00758362,-1.00503540,0.244141,-0.122070,-0.061035
610383041,0.00082397,0.00784302,-1.00706482,0.244141,-0.122070,-0.061035
617999625,0.00082397,0.00784302,-1.00706482,0.305176,-0.122070,-0.122070
620542166,0.00018311,0.00863647,-1.00535583,0.305176,-0.122070,-0.122070
628153333,0.00018311,0.00863647,-1.00535583,0.244141,0.061035,-0.122070
630704250,-0.00001526,0.00770569,-1.00579834,0.244141,0.061035,-0.122070
637846375,-0.00001526,0.00770569,-1.00579834,0.244141,-0.061035,-0.183105
640404958,0.00062561,0.00822449,-1.00463867,0.244141,-0.061035,-0.183105
647756375,0.00062561,0.00822449,-1.00463867,0.427246,0.061035,0.000000
650330875,0.00184631,0.00924683,-1.00650024,0.427246,0.061035,0.000000
657955416,0.00184631,0.00924683,-1.00650024,0.366211,0.122070,-0.061035
660510208,0.00178528,0.00956726,-1.00675964,0.366211,0.122070,-0.061035
668149416,0.00178528,0.00956726,-1.00675964,0.366211,0.000000,0.000000
670697666,0.00160217,0.00927734,-1.00592041,0.366211,0.000000,0.000000
675796750,0.00160217,0.00927734,-1.00592041,0.244141,0.000000,-0.061035
680794833,0.00221252,0.00857544,-1.00576782,0.244141,0.000000,-0.061035
685871958,0.00221252,0.00857544,-1.00576782,0.366211,0.000000,0.000000
690949625,0.00315857,0.00746155,-1.00680542,0.366211,0.000000,0.000000
696016500,0.00315857,0.00746155,-1.00680542,0.305176,0.061035,-0.183105
701084583,0.00212097,0.00750732,-1.00549316,0.305176,0.061035,-0.183105
706154541,0.00212097,0.00750732,-1.00549316,0.305176,0.122070,-0.122070
711224791,0.00263977,0.00752258,-1.00532532,0.305176,0.122070,-0.122070
716299416,0.00263977,0.00752258,-1.00532532,0.305176,0.000000,0.000000
721380875,0.00224304,0.00746155,-1.00633240,0.305176,0.000000,0.000000
726462166,0.00224304,0.00746155,-1.00633240,0.305176,0.061035,0.000000
731554625,0.00192261,0.00704956,-1.00666809,0.305176,0.061035,0.000000
736645083,0.00192261,0.00704956,-1.00666809,0.366211,0.061035,0.000000
739196291,0.00161743,0.00718689,-1.00546265,0.366211,0.061035,0.000000
746801750,0.00161743,0.00718689,-1.00546265,0.488281,0.061035,0.000000
751684750,0.00149536,0.00859070,-1.00645447,0.488281,0.061035,0.000000
756753208,0.00149536,0.00859070,-1.00645447,0.366211,-0.061035,-0.183105
761817041,0.00112915,0.00825500,-1.00584412,0.366211,-0.061035,-0.183105
766881875,0.00112915,0.00825500,-1.00584412,0.305176,0.000000,-0.061035
769418583,0.00117493,0.00762939,-1.00590515,0.305176,0.000000,-0.061035
777009000,0.00117493,0.00762939,-1.00590515,0.366211,0.000000,-0.122070
779549416,0.00180054,0.00791931,-1.00645447,0.366211,0.000000,-0.122070
787160166,0.00180054,0.00791931,-1.00645447,0.366211,-0.122070,0.000000
792231250,0.00189209,0.00859070,-1.00622559,0.366211,-0.122070,0.000000
797276333,0.00189209,0.00859070,-1.00622559,0.305176,0.000000,-0.061035
799811375,0.00148010,0.00903320,-1.00720215,0.305176,0.000000,-0.061035
807413541,0.00148010,0.00903320,-1.00720215,0.305176,-0.061035,-0.061035
809947083,0.00207520,0.00831604,-1.00685120,0.305176,-0.061035,-0.061035
817548625,0.00207520,0.00831604,-1.00685120,0.366211,0.000000,-0.061035
820091208,0.00306702,0.00819397,-1.00512695,0.366211,0.000000,-0.061035
827684958,0.00306702,0.00819397,-1.00512695,0.305176,0.061035,0.061035
830036625,0.00337219,0.00692749,-1.00544739,0.305176,0.061035,0.061035
837225291,0.00337219,0.00692749,-1.00544739,0.305176,-0.061035,0.000000
841885416,0.00297546,0.00715637,-1.00630188,0.305176,-0.061035,0.000000
846951333,0.00297546,0.00715637,-1.00630188,0.488281,-0.061035,-0.183105
852019375,0.00338745,0.00718689,-1.00631714,0.488281,-0.061035,-0.183105
857080458,0.00338745,0.00718689,-1.00631714,0.305176,0.122070,-0.122070
862185375,0.00230408,0.00782776,-1.00581360,0.305176,0.122070,-0.122070
867260916,0.00230408,0.00782776,-1.00581360,0.183105,0.000000,-0.061035
869799958,0.00183105,0.00765991,-1.00529480,0.183105,0.000000,-0.061035
877496750,0.00183105,0.00765991,-1.00529480,0.244141,0.000000,-0.061035
880112958,0.00115967,0.00823975,-1.00559998,0.244141,0.000000,-0.061035
887788375,0.00115967,0.00823975,-1.00559998,0.427246,0.000000,0.000000
890334791,0.00144958,0.00782776,-1.00514221,0.427246,0.000000,0.000000
898009125,0.00144958,0.00782776,-1.00514221,0.366211,0.122070,-0.183105
900587083,0.00048828,0.00820923,-1.00596619,0.366211,0.122070,-0.183105
905663875,0.00048828,0.00820923,-1.00596619,0.427246,0.061035,0.000000
910839333,0.00047302,0.00869751,-1.00627136,0.427246,0.061035,0.000000
915807208,0.00047302,0.00869751,-1.00627136,0.305176,0.061035,-0.061035
921008458,0.00050354,0.00938416,-1.00585938,0.305176,0.061035,-0.061035
926144166,0.00050354,0.00938416,-1.00585938,0.366211,-0.061035,-0.061035
931203416,0.00204468,0.00936890,-1.00598145,0.366211,-0.061035,-0.061035
936253083,0.00204468,0.00936890,-1.00598145,0.427246,-0.061035,0.000000
941288166,0.00158691,0.00787354,-1.00663757,0.427246,-0.061035,0.000000
946346750,0.00158691,0.00787354,-1.00663757,0.244141,0.061035,-0.061035
951411958,0.00234985,0.00820923,-1.00630188,0.244141,0.061035,-0.061035
956449625,0.00234985,0.00820923,-1.00630188,0.366211,0.000000,0.061035
961500750,0.00129700,0.00793457,-1.00616455,0.366211,0.000000,0.061035
966546666,0.00129700,0.00793457,-1.00616455,0.427246,0.061035,-0.061035
971582333,0.00209045,0.00750732,-1.00552368,0.427246,0.061035,-0.061035
976587125,0.00209045,0.00750732,-1.00552368,0.305176,0.000000,-0.061035
981192000,0.00216675,0.00819397,-1.00608826,0.305176,0.000000,-0.061035
986273000,0.00216675,0.00819397,-1.00608826,0.183105,-0.061035,-0.122070
991323416,0.00212097,0.00782776,-1.00541687,0.183105,-0.061035,-0.122070
996368375,0.00212097,0.00782776,-1.00541687,0.427246,0.061035,0.061035
1001398333,0.00244141,0.00711060,-1.00582886,0.427246,0.061035,0.061035
1006449666,0.00244141,0.00711060,-1.00582886,0.427246,0.122070,0.000000
1011482458,0.00164795,0.00762939,-1.00602722,0.427246,0.122070,0.000000
1016515125,0.00164795,0.00762939,-1.00602722,0.183105,-0.061035,-0.122070
1021566875,0.00213623,0.00846863,-1.00740051,0.183105,-0.061035,-0.122070
1026611333,0.00213623,0.00846863,-1.00740051,0.427246,0.000000,0.000000
1031699208,0.00242615,0.00868225,-1.00648499,0.427246,0.000000,0.000000
1036782833,0.00242615,0.00868225,-1.00648499,0.305176,0.000000,-0.061035
1041834625,0.00238037,0.00773621,-1.00566101,0.305176,0.000000,-0.061035
1046860958,0.00238037,0.00773621,-1.00566101,0.305176,0.061035,-0.122070
1051896333,0.00163269,0.00720215,-1.00555420,0.305176,0.061035,-0.122070
1056941375,0.00163269,0.00720215,-1.00555420,0.366211,0.061035,-0.061035
1061973833,0.00151062,0.00706482,-1.00556946,0.366211,0.061035,-0.061035
1067003958,0.00151062,0.00706482,-1.00556946,0.427246,-0.061035,-0.061035
1072049416,0.00155640,0.00784302,-1.00482178,0.427246,-0.061035,-0.061035
1077080666,0.00155640,0.00784302,-1.00482178,0.549316,0.061035,-0.061035
1079599291,0.00189209,0.00816345,-1.00717163,0.549316,0.061035,-0.061035
1087017416,0.00189209,0.00816345,-1.00717163,0.366211,-0.061035,-0.061035
1092063416,0.00218201,0.00880432,-1.00677490,0.366211,-0.061035,-0.061035
1097105708,0.00218201,0.00880432,-1.00677490,0.305176,0.061035,0.061035
1099622541,0.00160217,0.00816345,-1.00498962,0.305176,0.061035,0.061035
1107175625,0.00160217,0.00816345,-1.00498962,0.305176,0.061035,-0.122070
1109698458,0.00102234,0.00781250,-1.00593567,0.305176,0.061035,-0.122070
1117235208,0.00102234,0.00781250,-1.00593567,0.305176,0.061035,0.000000
1119755666,0.00225830,0.00793457,-1.00610352,0.305176,0.061035,0.000000
1127300291,0.00225830,0.00793457,-1.00610352,0.305176,0.000000,0.000000
1129819250,0.00143433,0.00837708,-1.00624084,0.305176,0.000000,0.000000
1137145833,0.00143433,0.00837708,-1.00624084,0.366211,0.000000,0.000000
1139695875,0.00257874,0.00814819,-1.00575256,0.366211,0.000000,0.000000
1147208291,0.00257874,0.00814819,-1.00575256,0.366211,0.061035,0.061035
1149772083,0.00271606,0.00827026,-1.00616455,0.366211,0.061035,0.061035
1157356750,0.00271606,0.00827026,-1.00616455,0.244141,0.183105,-0.061035
1159891125,0.00083923,0.00810242,-1.00666809,0.244141,0.183105,-0.061035
1167531083,0.00083923,0.00810242,-1.00666809,0.244141,0.000000,0.061035
1170077750,0.00068665,0.00761414,-1.00599670,0.244141,0.000000,0.061035
1177695958,0.00068665,0.00761414,-1.00599670,0.183105,0.000000,-0.061035
1179946083,0.00213623,0.00773621,-1.00663757,0.183105,0.000000,-0.061035
1187607500,0.00213623,0.00773621,-1.00663757,0.366211,0.061035,-0.122070
1190179291,0.00291443,0.00808716,-1.00573730,0.366211,0.061035,-0.122070
1197547083,0.00291443,0.00808716,-1.00573730,0.122070,0.000000,0.000000
1200192708,0.00241089,0.00733948,-1.00709534,0.122070,0.000000,0.000000
1207821875,0.00241089,0.00733948,-1.00709534,0.427246,-0.061035,-0.122070
1210402875,0.00164795,0.00804138,-1.00610352,0.427246,-0.061035,-0.122070
1218039958,0.00164795,0.00804138,-1.00610352,0.244141,0.061035,0.122070
1220609750,0.00244141,0.00837708,-1.00595093,0.244141,0.061035,0.122070
1225696833,0.00244141,0.00837708,-1.00595093,0.183105,0.061035,-0.122070
1230607375,0.00329590,0.00834656,-1.00595093,0.183105,0.061035,-0.122070
1235690375,0.00329590,0.00834656,-1.00595093,0.244141,-0.061035,-0.183105
1240770791,0.00193787,0.00752258,-1.00595093,0.244141,-0.061035,-0.183105
1245798416,0.00193787,0.00752258,-1.00595093,0.427246,0.061035,0.061035
1250744958,0.00088501,0.00865173,-1.00619507,0.427246,0.061035,0.061035
1258034458,0.00088501,0.00865173,-1.00619507,0.305176,0.061035,0.061035
1260588166,0.00119019,0.00817871,-1.00550842,0.305176,0.061035,0.061035
1265646333,0.00119019,0.00817871,-1.00550842,0.366211,0.061035,-0.183105
1270716041,0.00036621,0.00798035,-1.00593567,0.366211,0.061035,-0.183105
1278353208,0.00036621,0.00798035,-1.00593567,0.366211,-0.122070,-0.183105
1280903250,0.00167847,0.00784302,-1.00657654,0.366211,-0.122070,-0.183105
1285965916,0.00167847,0.00784302,-1.00657654,0.305176,-0.061035,0.000000
1291038625,0.00225830,0.00794983,-1.00668335,0.305176,-0.061035,0.000000
1296148416,0.00225830,0.00794983,-1.00668335,0.305176,-0.061035,-0.122070
1301228625,0.00106812,0.00695801,-1.00646973,0.305176,-0.061035,-0.122070
1306302458,0.00106812,0.00695801,-1.00646973,0.427246,0.061035,0.122070
1311371791,0.00152588,0.00753784,-1.00588989,0.427246,0.061035,0.122070
1316446458,0.00152588,0.00753784,-1.00588989,0.305176,0.061035,-0.061035
1321518500,0.00265503,0.00735474,-1.00683594,0.305176,0.061035,-0.061035
1326622541,0.00265503,0.00735474,-1.00683594,0.305176,0.061035,0.000000
1331686750,0.00320435,0.00697327,-1.00556946,0.305176,0.061035,0.000000
1336749125,0.00320435,0.00697327,-1.00556946,0.366211,0.061035,0.000000
1341833333,0.00282288,0.00642395,-1.00582886,0.366211,0.061035,0.000000
1346926666,0.00282288,0.00642395,-1.00582886,0.305176,-0.061035,-0.122070
1352006208,0.00187683,0.00759888,-1.00619507,0.305176,-0.061035,-0.122070
1357076166,0.00187683,0.00759888,-1.00619507,0.427246,-0.061035,-0.061035
1362157500,0.00212097,0.00822449,-1.00575256,0.427246,-0.061035,-0.061035
1367254500,0.00212097,0.00822449,-1.00575256,0.244141,-0.061035,-0.183105
1369799208,0.00128174,0.00843811,-1.00503540,0.244141,-0.061035,-0.183105
1377410291,0.00128174,0.00843811,-1.00503540,0.549316,-0.122070,-0.122070
1379962583,0.00151062,0.00862122,-1.00653076,0.549316,-0.122070,-0.122070
1387554000,0.00151062,0.00862122,-1.00653076,0.183105,0.000000,-0.122070
1390097916,0.00157166,0.00927734,-1.00744629,0.183105,0.000000,-0.122070
1397692541,0.00157166,0.00927734,-1.00744629,0.427246,0.000000,0.000000
1400232000,0.00125122,0.00862122,-1.00607300,0.427246,0.000000,0.000000
1407377958,0.00125122,0.00862122,-1.00607300,0.183105,0.000000,-0.061035
1409923916,0.00178528,0.00866699,-1.00627136,0.183105,0.000000,-0.061035
1417517958,0.00178528,0.00866699,-1.00627136,0.305176,0.122070,-0.122070
1419925000,0.00125122,0.00807190,-1.00645447,0.305176,0.122070,-0.122070
1427517000,0.00125122,0.00807190,-1.00645447,0.366211,0.061035,0.061035
1430068458,0.00253296,0.00817871,-1.00614929,0.366211,0.061035,0.061035
1437194083,0.00253296,0.00817871,-1.00614929,0.305176,0.122070,-0.122070
1439742500,0.00349426,0.00796509,-1.00543213,0.305176,0.122070,-0.122070
1447344583,0.00349426,0.00796509,-1.00543213,0.244141,0.061035,-0.061035
1449890375,0.00233459,0.00682068,-1.00628662,0.244141,0.061035,-0.061035
1457491583,0.00233459,0.00682068,-1.00628662,0.244141,0.122070,0.061035
1459932625,0.00189209,0.00645447,-1.00604248,0.244141,0.122070,0.061035
1467518875,0.00189209,0.00645447,-1.00604248,0.366211,0.000000,-0.061035
1470056333,0.00241089,0.00727844,-1.00627136,0.366211,0.000000,-0.061035
1477666458,0.00241089,0.00727844,-1.00627136,0.488281,0.000000,-0.061035
1480218458,0.00247192,0.00723267,-1.00599670,0.488281,0.000000,-0.061035
1487477833,0.00247192,0.00723267,-1.00599670,0.366211,0.061035,-0.122070
1490016291,0.00100708,0.00732422,-1.00607300,0.366211,0.061035,-0.122070
1497658875,0.00100708,0.00732422,-1.00607300,0.305176,0.000000,-0.061035
1500215458,0.00175476,0.00828552,-1.00685120,0.305176,0.000000,-0.061035
1507807625,0.00175476,0.00828552,-1.00685120,0.427246,0.000000,-0.061035
1510358041,0.00170898,0.00848389,-1.00564575,0.427246,0.000000,-0.061035
1517975333,0.00170898,0.00848389,-1.00564575,0.427246,0.122070,0.000000
1520517666,0.00115967,0.00936890,-1.00613403,0.427246,0.122070,0.000000
1528036791,0.00115967,0.00936890,-1.00613403,0.305176,0.000000,-0.061035
1530587916,0.00193787,0.00883484,-1.00627136,0.305176,0.000000,-0.061035
1535663708,0.00193787,0.00883484,-1.00627136,0.122070,-0.061035,-0.122070
1540740333,0.00247192,0.00888062,-1.00532532,0.122070,-0.061035,-0.122070
1545792583,0.00247192,0.00888062,-1.00532532,0.244141,0.061035,-0.122070
1550860208,0.00144958,0.00805664,-1.00572205,0.244141,0.061035,-0.122070
1555932375,0.00144958,0.00805664,-1.00572205,0.183105,-0.061035,-0.061035
1561006750,0.00207520,0.00814819,-1.00535583,0.183105,-0.061035,-0.061035
1565767625,0.00207520,0.00814819,-1.00535583,0.305176,0.061035,-0.061035
1570770666,0.00195312,0.00781250,-1.00659180,0.305176,0.061035,-0.061035
1575817500,0.00195312,0.00781250,-1.00659180,0.305176,-0.061035,0.000000
1580687291,0.00198364,0.00732422,-1.00508118,0.305176,-0.061035,0.000000
1585748375,0.00198364,0.00732422,-1.00508118,0.366211,0.061035,-0.061035
1590824041,0.00221252,0.00721741,-1.00643921,0.366211,0.061035,-0.061035
1595920083,0.00221252,0.00721741,-1.00643921,0.427246,-0.061035,-0.122070
1600884708,0.00189209,0.00862122,-1.00573730,0.427246,-0.061035,-0.122070
1605997958,0.00189209,0.00862122,-1.00573730,0.305176,0.122070,-0.061035
1611125791,0.00270081,0.00874329,-1.00569153,0.305176,0.122070,-0.061035
1616322166,0.00270081,0.00874329,-1.00569153,0.244141,-0.061035,-0.122070
1621448750,0.00241089,0.00769043,-1.00651550,0.244141,-0.061035,-0.122070
1626599583,0.00241089,0.00769043,-1.00651550,0.244141,-0.061035,-0.122070
1631721541,0.00198364,0.00720215,-1.00669861,0.244141,-0.061035,-0.122070
1636885541,0.00198364,0.00720215,-1.00669861,0.305176,-0.122070,-0.183105
1642017458,0.00192261,0.00781250,-1.00604248,0.305176,-0.122070,-0.183105
1647095166,0.00192261,0.00781250,-1.00604248,0.366211,-0.061035,-0.122070
1652217250,0.00221252,0.00749207,-1.00671387,0.366211,-0.061035,-0.122070
1657303791,0.00221252,0.00749207,-1.00671387,0.244141,0.000000,0.000000
1659858916,0.00131226,0.00819397,-1.00613403,0.244141,0.000000,0.000000
1667476166,0.00131226,0.00819397,-1.00613403,0.244141,0.000000,0.000000
1670039750,0.00131226,0.00769043,-1.00669861,0.244141,0.000000,0.000000
1677422916,0.00131226,0.00769043,-1.00669861,0.183105,-0.061035,0.000000
1680050875,0.00181580,0.00756836,-1.00596619,0.183105,-0.061035,0.000000
1687511541,0.00181580,0.00756836,-1.00596619,0.305176,0.061035,0.061035
1690084750,0.00134277,0.00785828,-1.00596619,0.305176,0.061035,0.061035
1697268750,0.00134277,0.00785828,-1.00596619,0.366211,0.000000,0.000000
1699893708,0.00207520,0.00889587,-1.00559998,0.366211,0.000000,0.000000
1707560750,0.00207520,0.00889587,-1.00559998,0.305176,0.061035,-0.122070
1710141500,0.00245667,0.00885010,-1.00640869,0.305176,0.061035,-0.122070
1717825250,0.00245667,0.00885010,-1.00640869,0.427246,0.061035,0.000000
1720385875,0.00196838,0.00810242,-1.00570679,0.427246,0.061035,0.000000
1728013500,0.00196838,0.00810242,-1.00570679,0.427246,0.061035,-0.122070
1730590000,0.00210571,0.00843811,-1.00621033,0.427246,0.061035,-0.122070
1735668250,0.00210571,0.00843811,-1.00621033,0.244141,0.000000,-0.061035
1740411500,0.00256348,0.00819397,-1.00563049,0.244141,0.000000,-0.061035
1748081750,0.00256348,0.00819397,-1.00563049,0.183105,0.000000,-0.183105
1750692041,0.00285339,0.00778198,-1.00613403,0.183105,0.000000,-0.183105
1755791750,0.00285339,0.00778198,-1.00613403,0.244141,0.183105,-0.061035
1760900500,0.00241089,0.00737000,-1.00579834,0.244141,0.183105,-0.061035
1766032458,0.00241089,0.00737000,-1.00579834,0.244141,0.122070,-0.183105
1771154083,0.00172424,0.00770569,-1.00642395,0.244141,0.122070,-0.183105
1776220083,0.00172424,0.00770569,-1.00642395,0.244141,0.061035,0.061035
1781331125,0.00210571,0.00805664,-1.00656128,0.244141,0.061035,0.061035
1786435625,0.00210571,0.00805664,-1.00656128,0.305176,-0.122070,-0.122070
1791513000,0.00251770,0.00784302,-1.00569153,0.305176,-0.122070,-0.122070
1796586875,0.00251770,0.00784302,-1.00569153,0.427246,0.000000,-0.122070
1801653375,0.00152588,0.00822449,-1.00592041,0.427246,0.000000,-0.122070
1806805958,0.00152588,0.00822449,-1.00592041,0.305176,-0.122070,0.000000
1811921250,0.00083923,0.00842285,-1.00701904,0.305176,-0.122070,0.000000
1817083458,0.00083923,0.00842285,-1.00701904,0.122070,0.000000,-0.061035
1822214625,0.00164795,0.00866699,-1.00659180,0.122070,0.000000,-0.061035
1827333833,0.00164795,0.00866699,-1.00659180,0.305176,0.061035,-0.061035
1829889833,0.00166321,0.00740051,-1.00677490,0.305176,0.061035,-0.061035
1837498458,0.00166321,0.00740051,-1.00677490,0.366211,0.122070,-0.061035
1840042416,0.00157166,0.00822449,-1.00730896,0.366211,0.122070,-0.061035
1847684125,0.00157166,0.00822449,-1.00730896,0.244141,0.061035,0.000000
1850307500,0.00183105,0.00708008,-1.00608826,0.244141,0.061035,0.000000
1857720333,0.00183105,0.00708008,-1.00608826,0.366211,0.000000,-0.061035
1859974125,0.00231934,0.00790405,-1.00672913,0.366211,0.000000,-0.061035
1867615541,0.00231934,0.00790405,-1.00672913,0.305176,0.000000,-0.183105
1870174083,0.00164795,0.00802612,-1.00592041,0.305176,0.000000,-0.183105
1877879875,0.00164795,0.00802612,-1.00592041,0.305176,0.000000,0.000000
1880455750,0.00140381,0.00764465,-1.00569153,0.305176,0.000000,0.000000
1888067375,0.00140381,0.00764465,-1.00569153,0.122070,0.000000,-0.122070
1890628833,0.00186157,0.00807190,-1.00689697,0.122070,0.000000,-0.122070
1895713916,0.00186157,0.00807190,-1.00689697,0.244141,0.000000,-0.183105
1900831583,0.00236511,0.00801086,-1.00688171,0.244141,0.000000,-0.183105
1905933833,0.00236511,0.00801086,-1.00688171,0.366211,-0.061035,-0.122070
1911064625,0.00236511,0.00845337,-1.00552368,0.366211,-0.061035,-0.122070
1916259666,0.00236511,0.00845337,-1.00552368,0.305176,0.000000,-0.061035
1921363500,0.00192261,0.00765991,-1.00628662,0.305176,0.000000,-0.061035
1926465833,0.00192261,0.00765991,-1.00628662,0.366211,-0.122070,0.000000
1931548291,0.00209045,0.00769043,-1.00537109,0.366211,-0.122070,0.000000
1936614083,0.00209045,0.00769043,-1.00537109,0.366211,-0.061035,-0.122070
1941686500,0.00282288,0.00787354,-1.00668335,0.366211,-0.061035,-0.122070
1946556791,0.00282288,0.00787354,-1.00668335,0.244141,0.183105,-0.061035
1951665875,0.00164795,0.00805664,-1.00645447,0.244141,0.183105,-0.061035
1956741875,0.00164795,0.00805664,-1.00645447,0.244141,-0.061035,-0.122070
1961864166,0.00183105,0.00865173,-1.00654602,0.244141,-0.061035,-0.122070
1966797583,0.00183105,0.00865173,-1.00654602,0.366211,0.122070,-0.183105
1971913750,0.00219727,0.00859070,-1.00526428,0.366211,0.122070,-0.183105
1976598416,0.00219727,0.00859070,-1.00526428,0.305176,0.122070,0.000000
1981749875,0.00360107,0.00822449,-1.00727844,0.305176,0.122070,0.000000
1986892375,0.00360107,0.00822449,-1.00727844,0.305176,-0.122070,-0.061035
1992010791,0.00256348,0.00805664,-1.00637817,0.305176,-0.122070,-0.061035
1997104791,0.00256348,0.00805664,-1.00637817,0.366211,-0.061035,-0.061035
2002239750,0.00225830,0.00811768,-1.00564575,0.366211,-0.061035,-0.061035
2007367625,0.00225830,0.00811768,-1.00564575,0.366211,0.000000,-0.183105
2009925041,0.00215149,0.00871277,-1.00611877,0.366211,0.000000,-0.183105
2017565625,0.00215149,0.00871277,-1.00611877,0.244141,-0.061035,0.061035
2020124375,0.00227356,0.00842285,-1.00636292,0.244141,-0.061035,0.061035
2027762750,0.00227356,0.00842285,-1.00636292,0.183105,0.000000,-0.061035
2030310875,0.00230408,0.00790405,-1.00613403,0.183105,0.000000,-0.061035
2037909791,0.00230408,0.00790405,-1.00613403,0.183105,0.000000,-0.061035
2040392541,0.00155640,0.00791931,-1.00656128,0.183105,0.000000,-0.061035
2048034208,0.00155640,0.00791931,-1.00656128,0.366211,0.183105,-0.061035
2050609666,0.00157166,0.00811768,-1.00581360,0.366211,0.183105,-0.061035
2058198166,0.00157166,0.00811768,-1.00581360,0.427246,0.122070,0.122070
2060750833,0.00180054,0.00917053,-1.00663757,0.427246,0.122070,0.122070
2065862958,0.00180054,0.00917053,-1.00663757,0.244141,0.061035,-0.122070
2070956125,0.00166321,0.00805664,-1.00549316,0.244141,0.061035,-0.122070
2078327708,0.00166321,0.00805664,-1.00549316,0.244141,0.061035,-0.183105
2080977666,0.00161743,0.00749207,-1.00628662,0.244141,0.061035,-0.183105
2088281958,0.00161743,0.00749207,-1.00628662,0.366211,-0.061035,-0.244141
2090865833,0.00216675,0.00779724,-1.00514221,0.366211,-0.061035,-0.244141
2095790750,0.00216675,0.00779724,-1.00514221,0.366211,0.122070,-0.061035
2100615416,0.00253296,0.00709534,-1.00596619,0.366211,0.122070,-0.061035
2108308958,0.00253296,0.00709534,-1.00596619,0.305176,0.000000,0.061035
2110872416,0.00149536,0.00715637,-1.00604248,0.305176,0.000000,0.061035
2116004791,0.00149536,0.00715637,-1.00604248,0.305176,0.000000,0.061035
2121116500,0.00184631,0.00779724,-1.00708008,0.305176,0.000000,0.061035
2126214666,0.00184631,0.00779724,-1.00708008,0.244141,0.000000,0.000000
2131306125,0.00178528,0.00749207,-1.00585938,0.244141,0.000000,0.000000
2136374291,0.00178528,0.00749207,-1.00585938,0.244141,-0.061035,-0.061035
2141437958,0.00186157,0.00808716,-1.00592041,0.244141,-0.061035,-0.061035
2146543833,0.00186157,0.00808716,-1.00592041,0.366211,0.000000,-0.061035
2151652666,0.00088501,0.00840759,-1.00588989,0.366211,0.000000,-0.061035
2156728083,0.00088501,0.00840759,-1.00588989,0.244141,0.000000,-0.122070
2161826083,0.00187683,0.00773621,-1.00663757,0.244141,0.000000,-0.122070
2166473333,0.00187683,0.00773621,-1.00663757,0.244141,-0.061035,0.000000
2171571916,0.00248718,0.00660706,-1.00587463,0.244141,-0.061035,0.000000
2176600750,0.00248718,0.00660706,-1.00587463,0.305176,0.061035,-0.122070
2181738541,0.00195312,0.00816345,-1.00642395,0.305176,0.061035,-0.122070
2186538458,0.00195312,0.00816345,-1.00642395,0.244141,-0.061035,0.000000
2191632833,0.00236511,0.00869751,-1.00613403,0.244141,-0.061035,0.000000
2196552916,0.00236511,0.00869751,-1.00613403,0.244141,-0.122070,0.061035
2201638250,0.00303650,0.00680542,-1.00712585,0.244141,-0.122070,0.061035
2206706583,0.00303650,0.00680542,-1.00712585,0.488281,0.000000,0.000000
2211803208,0.00285339,0.00775146,-1.00698853,0.488281,0.000000,0.000000
2216909333,0.00285339,0.00775146,-1.00698853,0.244141,0.061035,-0.122070
2221978666,0.00218201,0.00796509,-1.00657654,0.244141,0.061035,-0.122070
2227059708,0.00218201,0.00796509,-1.00657654,0.305176,0.000000,0.000000
2232169333,0.00251770,0.00729370,-1.00505066,0.305176,0.000000,0.000000
2237249791,0.00251770,0.00729370,-1.00505066,0.366211,0.061035,-0.183105
2239792458,0.00212097,0.00688171,-1.00588989,0.366211,0.061035,-0.183105
2247417375,0.00212097,0.00688171,-1.00588989,0.366211,0.061035,0.000000
2249970458,0.00228882,0.00727844,-1.00540161,0.366211,0.061035,0.000000
2257560916,0.00228882,0.00727844,-1.00540161,0.366211,0.000000,-0.061035
2260116750,0.00196838,0.00743103,-1.00662231,0.366211,0.000000,-0.061035
2267765000,0.00196838,0.00743103,-1.00662231,0.305176,0.000000,-0.061035
2270338583,0.00137329,0.00796509,-1.00555420,0.305176,0.000000,-0.061035
2277953708,0.00137329,0.00796509,-1.00555420,0.305176,0.122070,-0.061035
2280504916,0.00141907,0.00750732,-1.00674438,0.305176,0.122070,-0.061035
2288080625,0.00141907,0.00750732,-1.00674438,0.305176,-0.061035,-0.183105
2290615541,0.00123596,0.00839233,-1.00666809,0.305176,-0.061035,-0.183105
2298195583,0.00123596,0.00839233,-1.00666809,0.366211,0.061035,-0.122070
2300730875,0.00141907,0.00852966,-1.00500488,0.366211,0.061035,-0.122070
2305865625,0.00141907,0.00852966,-1.00500488,0.427246,0.000000,0.000000
2310883708,0.00254822,0.00820923,-1.00595093,0.427246,0.000000,0.000000
2315931333,0.00254822,0.00820923,-1.00595093,0.305176,-0.061035,0.000000
2321000250,0.00178528,0.00813293,-1.00611877,0.305176,-0.061035,0.000000
2326060666,0.00178528,0.00813293,-1.00611877,0.305176,0.000000,0.000000
2331120416,0.00172424,0.00816345,-1.00529480,0.305176,0.000000,0.000000
2336206541,0.00172424,0.00816345,-1.00529480,0.305176,-0.122070,-0.122070
2341277833,0.00192261,0.00825500,-1.00457764,0.305176,-0.122070,-0.122070
2346360708,0.00192261,0.00825500,-1.00457764,0.244141,0.061035,-0.122070
2350667291,0.00140381,0.00724792,-1.00613403,0.244141,0.061035,-0.122070
2358272041,0.00140381,0.00724792,-1.00613403,0.244141,0.061035,-0.061035
2360833208,0.00325012,0.00700378,-1.00634766,0.244141,0.061035,-0.061035
2365911250,0.00325012,0.00700378,-1.00634766,0.244141,0.000000,-0.061035
2370983833,0.00201416,0.00669861,-1.00669861,0.244141,0.000000,-0.061035
2376052416,0.00201416,0.00669861,-1.00669861,0.305176,0.000000,-0.122070
2381140500,0.00123596,0.00714111,-1.00505066,0.305176,0.000000,-0.122070
2386215583,0.00123596,0.00714111,-1.00505066,0.427246,-0.061035,0.000000
2391281583,0.00161743,0.00819397,-1.00640869,0.427246,-0.061035,0.000000
2396349208,0.00161743,0.00819397,-1.00640869,0.305176,0.000000,-0.061035
2401148208,0.00166321,0.00790405,-1.00714111,0.305176,0.000000,-0.061035
2406265041,0.00166321,0.00790405,-1.00714111,0.366211,0.122070,-0.061035
2411431083,0.00132751,0.00773621,-1.00654602,0.366211,0.122070,-0.061035
2416518666,0.00132751,0.00773621,-1.00654602,0.305176,0.122070,0.061035
2421601541,0.00129700,0.00831604,-1.00636292,0.305176,0.122070,0.061035
2426594083,0.00129700,0.00831604,-1.00636292,0.427246,0.061035,-0.061035
2431662416,0.00161743,0.00772095,-1.00691223,0.427246,0.061035,-0.061035
2436738041,0.00161743,0.00772095,-1.00691223,0.427246,0.122070,0.061035
2441516250,0.00172424,0.00813293,-1.00558472,0.427246,0.122070,0.061035
2446592625,0.00172424,0.00813293,-1.00558472,0.305176,0.061035,0.000000
2451657666,0.00132751,0.00749207,-1.00663757,0.305176,0.061035,0.000000
2456720250,0.00132751,0.00749207,-1.00663757,0.366211,0.000000,-0.122070
2461788958,0.00210571,0.00741577,-1.00598145,0.366211,0.000000,-0.122070
2466869166,0.00210571,0.00741577,-1.00598145,0.427246,0.061035,0.061035
2471966500,0.00238037,0.00704956,-1.00737000,0.427246,0.061035,0.061035
2477084083,0.00238037,0.00704956,-1.00737000,0.244141,-0.061035,-0.122070
2482215208,0.00233459,0.00773621,-1.00712585,0.244141,-0.061035,-0.122070
2487297500,0.00233459,0.00773621,-1.00712585,0.366211,0.061035,-0.061035
2489837333,0.00254822,0.00810242,-1.00683594,0.366211,0.061035,-0.061035
2497461750,0.00254822,0.00810242,-1.00683594,0.244141,0.061035,-0.122070
2500007375,0.00201416,0.00791931,-1.00527954,0.244141,0.061035,-0.122070
2507607083,0.00201416,0.00791931,-1.00527954,0.366211,0.000000,0.000000
2509924083,0.00135803,0.00756836,-1.00672913,0.366211,0.000000,0.000000
2517526500,0.00135803,0.00756836,-1.00672913,0.366211,0.061035,-0.122070
2520085125,0.00166321,0.00849915,-1.00611877,0.366211,0.061035,-0.122070
2527676208,0.00166321,0.00849915,-1.00611877,0.366211,0.122070,-0.122070
2530223291,0.00180054,0.00802612,-1.00701904,0.366211,0.122070,-0.122070
2537807541,0.00180054,0.00802612,-1.00701904,0.366211,0.061035,-0.061035
2540336333,0.00122070,0.00872803,-1.00671387,0.366211,0.061035,-0.061035
2547917416,0.00122070,0.00872803,-1.00671387,0.427246,0.122070,-0.183105
2550456125,0.00199890,0.00831604,-1.00558472,0.427246,0.122070,-0.183105
2558066125,0.00199890,0.00831604,-1.00558472,0.244141,-0.061035,-0.122070
2560613083,0.00112915,0.00880432,-1.00581360,0.244141,-0.061035,-0.122070
2568215375,0.00112915,0.00880432,-1.00581360,0.244141,0.000000,-0.061035
2570762250,0.00178528,0.00778198,-1.00695801,0.244141,0.000000,-0.061035
2575899833,0.00178528,0.00778198,-1.00695801,0.244141,0.061035,-0.061035
2580983791,0.00233459,0.00782776,-1.00660706,0.244141,0.061035,-0.061035
2586069958,0.00233459,0.00782776,-1.00660706,0.305176,0.000000,-0.122070
2591152583,0.00273132,0.00714111,-1.00648499,0.305176,0.000000,-0.122070
2596213666,0.00273132,0.00714111,-1.00648499,0.244141,0.000000,-0.122070
2600809291,0.00157166,0.00790405,-1.00579834,0.244141,0.000000,-0.122070
2605916083,0.00157166,0.00790405,-1.00579834,0.305176,0.000000,-0.122070
2610985458,0.00128174,0.00746155,-1.00564575,0.305176,0.000000,-0.122070
2616068625,0.00128174,0.00746155,-1.00564575,0.244141,-0.061035,-0.122070
2621169625,0.00135803,0.00744629,-1.00517273,0.244141,-0.061035,-0.122070
2626263916,0.00135803,0.00744629,-1.00517273,0.183105,-0.061035,-0.122070
2631343875,0.00222778,0.00788879,-1.00656128,0.183105,-0.061035,-0.122070
2636132125,0.00222778,0.00788879,-1.00656128,0.305176,0.000000,0.000000
2641210708,0.00230408,0.00819397,-1.00544739,0.305176,0.000000,0.000000
2646288333,0.00230408,0.00819397,-1.00544739,0.305176,0.000000,-0.061035
2650956833,0.00257874,0.00839233,-1.00691223,0.305176,0.000000,-0.061035
2656021750,0.00257874,0.00839233,-1.00691223,0.488281,0.122070,-0.061035
2661109041,0.00241089,0.00816345,-1.00605774,0.488281,0.122070,-0.061035
2668207291,0.00241089,0.00816345,-1.00605774,0.244141,0.061035,0.000000
2670748916,0.00096130,0.00767517,-1.00556946,0.244141,0.061035,0.000000
2678364750,0.00096130,0.00767517,-1.00556946,0.427246,0.061035,0.000000
2680910791,0.00085449,0.00819397,-1.00610352,0.427246,0.061035,0.000000
2685982666,0.00085449,0.00819397,-1.00610352,0.305176,0.122070,-0.061035
2691045333,0.00271606,0.00767517,-1.00601196,0.305176,0.122070,-0.061035
2696128166,0.00271606,0.00767517,-1.00601196,0.183105,0.000000,0.000000
2701218541,0.00254822,0.00753784,-1.00621033,0.183105,0.000000,0.000000
2706296875,0.00254822,0.00753784,-1.00621033,0.427246,0.000000,-0.061035
2711371208,0.00204468,0.00772095,-1.00627136,0.427246,0.000000,-0.061035
2716443000,0.00204468,0.00772095,-1.00627136,0.183105,0.000000,-0.122070
2721529916,0.00166321,0.00892639,-1.00611877,0.183105,0.000000,-0.122070
2726614000,0.00166321,0.00892639,-1.00611877,0.244141,-0.061035,-0.122070
2731692916,0.00155640,0.00805664,-1.00662231,0.244141,-0.061035,-0.122070
2736778750,0.00155640,0.00805664,-1.00662231,0.488281,0.183105,0.061035
2741852541,0.00178528,0.00822449,-1.00628662,0.488281,0.183105,0.061035
2746939416,0.00178528,0.00822449,-1.00628662,0.366211,0.061035,-0.122070
2751906416,0.00216675,0.00819397,-1.00544739,0.366211,0.061035,-0.122070
2756990583,0.00216675,0.00819397,-1.00544739,0.305176,-0.061035,-0.061035
2762091541,0.00164795,0.00814819,-1.00567627,0.305176,-0.061035,-0.061035
2767177708,0.00164795,0.00814819,-1.00567627,0.244141,-0.061035,0.000000
2769716041,0.00143433,0.00817871,-1.00659180,0.244141,-0.061035,0.000000
2777302458,0.00143433,0.00817871,-1.00659180,0.244141,0.061035,0.000000
2782377666,0.00158691,0.00796509,-1.00648499,0.244141,0.061035,0.000000
2787449000,0.00158691,0.00796509,-1.00648499,0.366211,0.061035,-0.183105
2789987000,0.00169373,0.00872803,-1.00656128,0.366211,0.061035,-0.183105
2797605833,0.00169373,0.00872803,-1.00656128,0.305176,0.000000,0.000000
2800152125,0.00219727,0.00914001,-1.00599670,0.305176,0.000000,0.000000
2807763666,0.00219727,0.00914001,-1.00599670,0.305176,-0.061035,-0.122070
2809933458,0.00228882,0.00840759,-1.00558472,0.305176,-0.061035,-0.122070
2817544916,0.00228882,0.00840759,-1.00558472,0.244141,0.122070,0.000000
2820084375,0.00175476,0.00776672,-1.00502014,0.244141,0.122070,0.000000
2827690833,0.00175476,0.00776672,-1.00502014,0.366211,0.061035,-0.122070
2830232250,0.00178528,0.00778198,-1.00599670,0.366211,0.061035,-0.122070
2837812666,0.00178528,0.00778198,-1.00599670,0.427246,0.000000,-0.061035
2840338791,0.00186157,0.00830078,-1.00593567,0.427246,0.000000,-0.061035
2847842583,0.00186157,0.00830078,-1.00593567,0.183105,0.000000,-0.061035
2850370750,0.00248718,0.00894165,-1.00573730,0.183105,0.000000,-0.061035
2857907458,0.00248718,0.00894165,-1.00573730,0.244141,0.000000,0.000000
2860463083,0.00242615,0.00785828,-1.00698853,0.244141,0.000000,0.000000
2868037250,0.00242615,0.00785828,-1.00698853,0.305176,0.061035,0.000000
2870582041,0.00225830,0.00753784,-1.00546265,0.305176,0.061035,0.000000
2878189333,0.00225830,0.00753784,-1.00546265,0.244141,0.122070,-0.183105
2880744791,0.00126648,0.00819397,-1.00660706,0.244141,0.122070,-0.183105
2888182291,0.00126648,0.00819397,-1.00660706,0.427246,0.061035,0.000000
2890730208,0.00163269,0.00798035,-1.00588989,0.427246,0.061035,0.000000
2898337291,0.00163269,0.00798035,-1.00588989,0.366211,-0.061035,-0.122070
2900877041,0.00215149,0.00857544,-1.00579834,0.366211,-0.061035,-0.122070
2908462833,0.00215149,0.00857544,-1.00579834,0.183105,0.000000,-0.244141
2911015083,0.00196838,0.00791931,-1.00572205,0.183105,0.000000,-0.244141
2916085291,0.00196838,0.00791931,-1.00572205,0.244141,0.000000,0.000000
2921164500,0.00230408,0.00837708,-1.00651550,0.244141,0.000000,0.000000
2926251791,0.00230408,0.00837708,-1.00651550,0.244141,0.000000,-0.061035
2931027166,0.00215149,0.00781250,-1.00636292,0.244141,0.000000,-0.061035
2936121875,0.00215149,0.00781250,-1.00636292,0.305176,-0.122070,0.061035
2941216291,0.00248718,0.00811768,-1.00656128,0.305176,-0.122070,0.061035
2946294666,0.00248718,0.00811768,-1.00656128,0.305176,-0.061035,-0.122070
2951365791,0.00297546,0.00798035,-1.00634766,0.305176,-0.061035,-0.122070
2956460375,0.00297546,0.00798035,-1.00634766,0.366211,0.000000,-0.061035
2961528583,0.00186157,0.00758362,-1.00630188,0.366211,0.000000,-0.061035
2966601333,0.00186157,0.00758362,-1.00630188,0.305176,0.000000,-0.061035
2971667791,0.00083923,0.00779724,-1.00592041,0.305176,0.000000,-0.061035
2976602083,0.00083923,0.00779724,-1.00592041,0.305176,0.061035,-0.122070
2981667375,0.00097656,0.00845337,-1.00604248,0.305176,0.061035,-0.122070
2986746041,0.00097656,0.00845337,-1.00604248,0.244141,0.000000,0.000000
2991795083,0.00201416,0.00891113,-1.00549316,0.244141,0.000000,0.000000
2996871166,0.00201416,0.00891113,-1.00549316,0.366211,0.183105,-0.061035
3001941875,0.00152588,0.00875854,-1.00692749,0.366211,0.183105,-0.061035
3007012625,0.00152588,0.00875854,-1.00692749,0.183105,0.000000,0.000000
3012086833,0.00103760,0.00898743,-1.00627136,0.183105,0.000000,0.000000
3016969291,0.00103760,0.00898743,-1.00627136,0.305176,0.000000,-0.061035
3022064041,0.00143433,0.00816345,-1.00582886,0.305176,0.000000,-0.061035
3027399208,0.00143433,0.00816345,-1.00582886,0.244141,0.000000,-0.061035
3029942250,0.00199890,0.00851440,-1.00453186,0.244141,0.000000,-0.061035
3037512458,0.00199890,0.00851440,-1.00453186,0.488281,0.122070,0.000000
3040050208,0.00048828,0.00785828,-1.00582886,0.488281,0.122070,0.000000
3047612333,0.00048828,0.00785828,-1.00582886,0.366211,0.000000,-0.244141
3050138416,0.00216675,0.00650024,-1.00605774,0.366211,0.000000,-0.244141
3057723416,0.00216675,0.00650024,-1.00605774,0.244141,0.000000,0.061035
3060263875,0.00225830,0.00788879,-1.00686646,0.244141,0.000000,0.061035
3067893208,0.00225830,0.00788879,-1.00686646,0.366211,0.122070,-0.061035
3070018166,0.00236511,0.00755310,-1.00564575,0.366211,0.122070,-0.061035
3077650958,0.00236511,0.00755310,-1.00564575,0.366211,-0.061035,0.000000
3082718833,0.00251770,0.00825500,-1.00653076,0.366211,-0.061035,0.000000
3087783750,0.00251770,0.00825500,-1.00653076,0.366211,0.000000,-0.183105
3090319791,0.00122070,0.00895691,-1.00617981,0.366211,0.000000,-0.183105
3097933208,0.00122070,0.00895691,-1.00617981,0.427246,0.000000,0.000000
3100506291,0.00073242,0.00782776,-1.00656128,0.427246,0.000000,0.000000
3108101541,0.00073242,0.00782776,-1.00656128,0.183105,0.122070,-0.122070
3110228750,0.00108337,0.00781250,-1.00588989,0.183105,0.122070,-0.122070
3117848583,0.00108337,0.00781250,-1.00588989,0.305176,-0.061035,-0.061035
3120394166,0.00212097,0.00709534,-1.00555420,0.305176,-0.061035,-0.061035
3127998041,0.00212097,0.00709534,-1.00555420,0.305176,0.061035,-0.061035
3130544041,0.00183105,0.00775146,-1.00567627,0.305176,0.061035,-0.061035
3138126958,0.00183105,0.00775146,-1.00567627,0.427246,0.061035,0.000000
3140677583,0.00140381,0.00761414,-1.00653076,0.427246,0.061035,0.000000
3148338833,0.00140381,0.00761414,-1.00653076,0.305176,0.122070,-0.061035
3150893875,0.00222778,0.00801086,-1.00517273,0.305176,0.122070,-0.061035
3158540375,0.00222778,0.00801086,-1.00517273,0.427246,0.061035,-0.183105
3161084666,0.00170898,0.00761414,-1.00637817,0.427246,0.061035,-0.183105
3166181041,0.00170898,0.00761414,-1.00637817,0.305176,0.061035,-0.061035
3171092791,0.00148010,0.00759888,-1.00662231,0.305176,0.061035,-0.061035
3176196250,0.00148010,0.00759888,-1.00662231,0.183105,0.000000,0.000000
3181258708,0.00274658,0.00791931,-1.00628662,0.183105,0.000000,0.000000
3186304125,0.00274658,0.00791931,-1.00628662,0.488281,0.061035,-0.122070
3191423875,0.00259399,0.00836182,-1.00622559,0.488281,0.061035,-0.122070
3196087166,0.00259399,0.00836182,-1.00622559,0.366211,0.061035,-0.061035
3200726166,0.00160217,0.00819397,-1.00669861,0.366211,0.061035,-0.061035
3208395875,0.00160217,0.00819397,-1.00669861,0.183105,-0.122070,-0.122070
3210953541,0.00094604,0.00816345,-1.00561523,0.183105,-0.122070,-0.122070
3218284833,0.00094604,0.00816345,-1.00561523,0.305176,0.061035,-0.061035
3220814083,0.00286865,0.00787354,-1.00596619,0.305176,0.061035,-0.061035
3228396125,0.00286865,0.00787354,-1.00596619,0.183105,0.061035,-0.061035
3230942291,0.00228882,0.00762939,-1.00582886,0.183105,0.061035,-0.061035
3238230000,0.00228882,0.00762939,-1.00582886,0.183105,0.061035,-0.122070
3240605666,0.00210571,0.00732422,-1.00549316,0.183105,0.061035,-0.122070
3248209000,0.00210571,0.00732422,-1.00549316,0.488281,0.122070,-0.122070
3250749625,0.00228882,0.00880432,-1.00631714,0.488281,0.122070,-0.122070
3258360041,0.00228882,0.00880432,-1.00631714,0.305176,0.061035,-0.122070
3260899333,0.00225830,0.00819397,-1.00595093,0.305176,0.061035,-0.122070
3268527291,0.00225830,0.00819397,-1.00595093,0.244141,0.000000,-0.061035
3271084333,0.00201416,0.00756836,-1.00573730,0.244141,0.000000,-0.061035
3278408000,0.00201416,0.00756836,-1.00573730,0.366211,0.000000,0.000000
3280937500,0.00173950,0.00811768,-1.00546265,0.366211,0.000000,0.000000
3288506041,0.00173950,0.00811768,-1.00546265,0.305176,0.061035,-0.061035
3291052166,0.00236511,0.00863647,-1.00611877,0.305176,0.061035,-0.061035
3298299500,0.00236511,0.00863647,-1.00611877,0.366211,0.061035,-0.122070
3300842291,0.00260925,0.00817871,-1.00648499,0.366211,0.061035,-0.122070
3308430291,0.00260925,0.00817871,-1.00648499,0.305176,0.061035,-0.122070
3310970333,0.00280762,0.00828552,-1.00503540,0.305176,0.061035,-0.122070
3318553000,0.00280762,0.00828552,-1.00503540,0.183105,0.061035,0.000000
3321099750,0.00239563,0.00770569,-1.00531006,0.183105,0.061035,0.000000
3326207958,0.00239563,0.00770569,-1.00531006,0.366211,0.000000,0.000000
3331282041,0.00215149,0.00743103,-1.00642395,0.366211,0.000000,0.000000
3336372375,0.00215149,0.00743103,-1.00642395,0.244141,0.061035,0.000000
3341475625,0.00218201,0.00752258,-1.00646973,0.244141,0.061035,0.000000
3346557208,0.00218201,0.00752258,-1.00646973,0.183105,-0.122070,-0.061035
3351635833,0.00166321,0.00752258,-1.00616455,0.183105,-0.122070,-0.061035
3356721625,0.00166321,0.00752258,-1.00616455,0.183105,0.061035,0.000000
3361812125,0.00192261,0.00740051,-1.00567627,0.183105,0.061035,0.000000
3366872541,0.00192261,0.00740051,-1.00567627,0.366211,-0.061035,0.000000
3371937125,0.00196838,0.00769043,-1.00662231,0.366211,-0.061035,0.000000
3377011958,0.00196838,0.00769043,-1.00662231,0.366211,0.000000,-0.244141
3382067791,0.00260925,0.00860596,-1.00627136,0.366211,0.000000,-0.244141
3387141375,0.00260925,0.00860596,-1.00627136,0.366211,0.000000,-0.061035
3392212875,0.00167847,0.00779724,-1.00674438,0.366211,0.000000,-0.061035
3397275041,0.00167847,0.00779724,-1.00674438,0.366211,0.000000,-0.061035
3402342708,0.00189209,0.00717163,-1.00552368,0.366211,0.000000,-0.061035
3407422208,0.00189209,0.00717163,-1.00552368,0.305176,0.122070,-0.061035
3409925375,0.00207520,0.00863647,-1.00637817,0.305176,0.122070,-0.061035
3417532916,0.00207520,0.00863647,-1.00637817,0.305176,0.000000,-0.183105
3420076541,0.00141907,0.00878906,-1.00613403,0.305176,0.000000,-0.183105
3426754416,0.00141907,0.00878906,-1.00613403,0.244141,0.061035,-0.061035
3431848208,0.00112915,0.00845337,-1.00703430,0.244141,0.061035,-0.061035
3436910000,0.00112915,0.00845337,-1.00703430,0.366211,0.061035,-0.122070
3441973375,0.00137329,0.00798035,-1.00556946,0.366211,0.061035,-0.122070
3446569166,0.00137329,0.00798035,-1.00556946,0.366211,0.000000,-0.183105
3451642708,0.00241089,0.00715637,-1.00639343,0.366211,0.000000,-0.183105
3456706833,0.00241089,0.00715637,-1.00639343,0.427246,0.000000,0.000000
3461784458,0.00196838,0.00764465,-1.00637817,0.427246,0.000000,0.000000
3466852125,0.00196838,0.00764465,-1.00637817,0.366211,0.000000,-0.122070
3471911708,0.00242615,0.00807190,-1.00640869,0.366211,0.000000,-0.122070
3476493541,0.00242615,0.00807190,-1.00640869,0.305176,0.000000,0.061035
3481593333,0.00276184,0.00840759,-1.00601196,0.305176,0.000000,0.061035
3486211708,0.00276184,0.00840759,-1.00601196,0.305176,0.000000,-0.122070
3491278083,0.00236511,0.00711060,-1.00590515,0.305176,0.000000,-0.122070
3496352000,0.00236511,0.00711060,-1.00590515,0.305176,0.000000,0.000000
3501435875,0.00257874,0.00782776,-1.00547791,0.305176,0.000000,0.000000
3506238250,0.00257874,0.00782776,-1.00547791,0.305176,0.061035,0.000000
3511329958,0.00233459,0.00772095,-1.00596619,0.305176,0.061035,0.000000
3516422541,0.00233459,0.00772095,-1.00596619,0.305176,-0.061035,-0.122070
3521088041,0.00277710,0.00833130,-1.00552368,0.305176,-0.061035,-0.122070
3526208541,0.00277710,0.00833130,-1.00552368,0.427246,0.000000,-0.061035
3531289708,0.00202942,0.00743103,-1.00648499,0.427246,0.000000,-0.061035
3536401000,0.00202942,0.00743103,-1.00648499,0.427246,0.122070,-0.183105
3541417541,0.00248718,0.00819397,-1.00648499,0.427246,0.122070,-0.183105
3546519958,0.00248718,0.00819397,-1.00648499,0.549316,0.000000,-0.122070
3551604416,0.00256348,0.00805664,-1.00624084,0.549316,0.000000,-0.122070
3556710333,0.00256348,0.00805664,-1.00624084,0.366211,0.000000,-0.061035
3561822791,0.00213623,0.00848389,-1.00559998,0.366211,0.000000,-0.061035
3566920458,0.00213623,0.00848389,-1.00559998,0.305176,-0.061035,-0.061035
3571996666,0.00204468,0.00785828,-1.00712585,0.305176,-0.061035,-0.061035
3576590208,0.00204468,0.00785828,-1.00712585,0.244141,0.122070,-0.122070
3581269166,0.00180054,0.00772095,-1.00614929,0.244141,0.122070,-0.122070
3586406666,0.00180054,0.00772095,-1.00614929,0.305176,0.061035,-0.122070
3591517666,0.00221252,0.00810242,-1.00625610,0.305176,0.061035,-0.122070
3596615458,0.00221252,0.00810242,-1.00625610,0.183105,-0.061035,-0.122070
3601701666,0.00210571,0.00784302,-1.00566101,0.183105,-0.061035,-0.122070
3606789625,0.00210571,0.00784302,-1.00566101,0.427246,0.061035,0.000000
3611900583,0.00225830,0.00714111,-1.00544739,0.427246,0.061035,0.000000
3617040291,0.00225830,0.00714111,-1.00544739,0.244141,0.000000,-0.061035
3622149833,0.00204468,0.00822449,-1.00590515,0.244141,0.000000,-0.061035
3627256833,0.00204468,0.00822449,-1.00590515,0.427246,0.061035,-0.061035
3632336291,0.00231934,0.00753784,-1.00611877,0.427246,0.061035,-0.061035
3637431083,0.00231934,0.00753784,-1.00611877,0.244141,-0.061035,-0.122070
3639969458,0.00224304,0.00811768,-1.00532532,0.244141,-0.061035,-0.122070
3647566000,0.00224304,0.00811768,-1.00532532,0.366211,0.061035,-0.122070
3650107583,0.00096130,0.00717163,-1.00541687,0.366211,0.061035,-0.122070
3657190750,0.00096130,0.00717163,-1.00541687,0.305176,0.000000,-0.061035
3662304791,0.00190735,0.00781250,-1.00526428,0.305176,0.000000,-0.061035
3667483833,0.00190735,0.00781250,-1.00526428,0.427246,0.061035,-0.061035
3670109416,0.00172424,0.00843811,-1.00616455,0.427246,0.061035,-0.061035
3677794875,0.00172424,0.00843811,-1.00616455,0.183105,0.000000,-0.061035
3680401375,0.00155640,0.00808716,-1.00631714,0.183105,0.000000,-0.061035
3688151916,0.00155640,0.00808716,-1.00631714,0.305176,0.122070,-0.122070
3690703625,0.00227356,0.00720215,-1.00588989,0.305176,0.122070,-0.122070
3698343500,0.00227356,0.00720215,-1.00588989,0.366211,0.061035,0.000000
3700934375,0.00181580,0.00801086,-1.00535583,0.366211,0.061035,0.000000
3708517166,0.00181580,0.00801086,-1.00535583,0.366211,0.000000,-0.061035
3710896791,0.00219727,0.00791931,-1.00502014,0.366211,0.000000,-0.061035
3718610708,0.00219727,0.00791931,-1.00502014,0.244141,0.061035,-0.061035
3721202041,0.00141907,0.00735474,-1.00605774,0.244141,0.061035,-0.061035
3728811291,0.00141907,0.00735474,-1.00605774,0.244141,0.061035,-0.122070
3731369375,0.00195312,0.00781250,-1.00727844,0.244141,0.061035,-0.122070
3739033416,0.00195312,0.00781250,-1.00727844,0.488281,0.000000,-0.061035
3741587708,0.00213623,0.00921631,-1.00617981,0.488281,0.000000,-0.061035
3746693916,0.00213623,0.00921631,-1.00617981,0.427246,0.000000,-0.122070
3751771875,0.00135803,0.00900269,-1.00671387,0.427246,0.000000,-0.122070
3756846708,0.00135803,0.00900269,-1.00671387,0.244141,0.000000,-0.183105
3761926541,0.00146484,0.00799561,-1.00624084,0.244141,0.000000,-0.183105
3766783500,0.00146484,0.00799561,-1.00624084,0.366211,-0.061035,-0.061035
3771868000,0.00184631,0.00857544,-1.00549316,0.366211,-0.061035,-0.061035
3776936916,0.00184631,0.00857544,-1.00549316,0.366211,0.000000,0.000000
3782078875,0.00151062,0.00836182,-1.00625610,0.366211,0.000000,0.000000
3786768750,0.00151062,0.00836182,-1.00625610,0.427246,0.061035,0.000000
3791859708,0.00225830,0.00685120,-1.00660706,0.427246,0.061035,0.000000
3796937541,0.00225830,0.00685120,-1.00660706,0.305176,0.061035,-0.061035
3802021375,0.00112915,0.00697327,-1.00672913,0.305176,0.061035,-0.061035
3807114958,0.00112915,0.00697327,-1.00672913,0.366211,0.000000,-0.122070
3812222083,0.00152588,0.00764465,-1.00466919,0.366211,0.000000,-0.122070
3817064416,0.00152588,0.00764465,-1.00466919,0.183105,0.000000,-0.244141
3822145958,0.00248718,0.00764465,-1.00596619,0.183105,0.000000,-0.244141
3827223625,0.00248718,0.00764465,-1.00596619,0.183105,0.061035,0.000000
3832310000,0.00189209,0.00761414,-1.00570679,0.183105,0.061035,0.000000
3837381416,0.00189209,0.00761414,-1.00570679,0.305176,0.061035,0.000000
3842472083,0.00193787,0.00819397,-1.00593567,0.305176,0.061035,0.000000
3847196416,0.00193787,0.00819397,-1.00593567,0.305176,0.061035,-0.061035
3852370625,0.00163269,0.00796509,-1.00550842,0.305176,0.061035,-0.061035
3857532791,0.00163269,0.00796509,-1.00550842,0.488281,-0.061035,-0.061035
3860133333,0.00071716,0.00703430,-1.00572205,0.488281,-0.061035,-0.061035
3867882625,0.00071716,0.00703430,-1.00572205,0.244141,0.122070,-0.122070
3870462916,0.00196838,0.00727844,-1.00674438,0.244141,0.122070,-0.122070
3878080208,0.00196838,0.00727844,-1.00674438,0.366211,-0.061035,-0.122070
3880337166,0.00186157,0.00782776,-1.00637817,0.366211,-0.061035,-0.122070
3887906416,0.00186157,0.00782776,-1.00637817,0.183105,0.061035,-0.183105
3890240416,0.00219727,0.00799561,-1.00633240,0.183105,0.061035,-0.183105
3897820708,0.00219727,0.00799561,-1.00633240,0.305176,-0.061035,0.000000
3900080875,0.00177002,0.00784302,-1.00610352,0.305176,-0.061035,0.000000
3907654250,0.00177002,0.00784302,-1.00610352,0.305176,-0.061035,-0.122070
3912297875,0.00143433,0.00810242,-1.00523376,0.305176,-0.061035,-0.122070
3917394791,0.00143433,0.00810242,-1.00523376,0.183105,-0.122070,-0.122070
3922484291,0.00230408,0.00801086,-1.00711060,0.183105,-0.122070,-0.122070
3927571333,0.00230408,0.00801086,-1.00711060,0.244141,0.061035,0.000000
3930130500,0.00123596,0.00914001,-1.00595093,0.244141,0.061035,0.000000
3937721208,0.00123596,0.00914001,-1.00595093,0.305176,0.000000,0.000000
3940264833,0.00093079,0.00839233,-1.00717163,0.305176,0.000000,0.000000
3947857958,0.00093079,0.00839233,-1.00717163,0.305176,-0.061035,-0.061035
3950302625,0.00262451,0.00823975,-1.00621033,0.305176,-0.061035,-0.061035
3957881500,0.00262451,0.00823975,-1.00621033,0.305176,0.000000,0.061035
3962462416,0.00230408,0.00817871,-1.00611877,0.305176,0.000000,0.061035
3967580375,0.00230408,0.00817871,-1.00611877,0.305176,0.000000,-0.061035
3970129916,0.00216675,0.00729370,-1.00511169,0.305176,0.000000,-0.061035
3977737500,0.00216675,0.00729370,-1.00511169,0.366211,0.000000,-0.122070
3980295208,0.00271606,0.00700378,-1.00526428,0.366211,0.000000,-0.122070
3987285500,0.00271606,0.00700378,-1.00526428,0.244141,0.000000,-0.122070
3992383708,0.00202942,0.00781250,-1.00686646,0.244141,0.000000,-0.122070
3997687791,0.00202942,0.00781250,-1.00686646,0.366211,0.000000,-0.061035
4000259625,0.00154114,0.00781250,-1.00717163,0.366211,0.000000,-0.061035
4007941333,0.00154114,0.00781250,-1.00717163,0.305176,0.061035,-0.122070
4010559000,0.00164795,0.00764465,-1.00598145,0.305176,0.061035,-0.122070
4018241583,0.00164795,0.00764465,-1.00598145,0.366211,0.061035,0.000000
4020827458,0.00170898,0.00807190,-1.00614929,0.366211,0.061035,0.000000
4028085291,0.00170898,0.00807190,-1.00614929,0.366211,-0.061035,0.061035
4030625916,0.00190735,0.00918579,-1.00559998,0.366211,-0.061035,0.061035
4038273375,0.00190735,0.00918579,-1.00559998,0.366211,0.122070,0.000000
4040832166,0.00180054,0.00810242,-1.00590515,0.366211,0.122070,0.000000
4048468500,0.00180054,0.00810242,-1.00590515,0.427246,0.000000,0.000000
4051057041,0.00195312,0.00819397,-1.00535583,0.427246,0.000000,0.000000
4058734166,0.00195312,0.00819397,-1.00535583,0.366211,0.061035,-0.061035
4061340250,0.00125122,0.00805664,-1.00588989,0.366211,0.061035,-0.061035
4068985000,0.00125122,0.00805664,-1.00588989,0.366211,0.000000,-0.122070
4071613791,0.00234985,0.00827026,-1.00682068,0.366211,0.000000,-0.122070
4078896958,0.00234985,0.00827026,-1.00682068,0.244141,-0.183105,-0.183105
4081466333,0.00233459,0.00857544,-1.00637817,0.244141,-0.183105,-0.183105
4086694958,0.00233459,0.00857544,-1.00637817,0.488281,0.122070,-0.061035
4091784208,0.00212097,0.00764465,-1.00523376,0.488281,0.122070,-0.061035
4096874875,0.00212097,0.00764465,-1.00523376,0.366211,0.061035,-0.183105
4101975708,0.00302124,0.00770569,-1.00651550,0.366211,0.061035,-0.183105
4107072458,0.00302124,0.00770569,-1.00651550,0.366211,0.000000,0.000000
4111978166,0.00311279,0.00735474,-1.00596619,0.366211,0.000000,0.000000
4116756208,0.00311279,0.00735474,-1.00596619,0.305176,0.000000,-0.061035
4121843916,0.00280762,0.00767517,-1.00622559,0.305176,0.000000,-0.061035
4126936708,0.00280762,0.00767517,-1.00622559,0.244141,0.000000,-0.122070
4132006791,0.00219727,0.00733948,-1.00593567,0.244141,0.000000,-0.122070
4137072875,0.00219727,0.00733948,-1.00593567,0.244141,0.061035,-0.061035
4142151291,0.00169373,0.00807190,-1.00596619,0.244141,0.061035,-0.061035
4147254250,0.00169373,0.00807190,-1.00596619,0.183105,0.000000,-0.122070
4152044791,0.00189209,0.00825500,-1.00532532,0.183105,0.000000,-0.122070
4157135916,0.00189209,0.00825500,-1.00532532,0.183105,-0.122070,-0.061035
4162229416,0.00225830,0.00782776,-1.00590515,0.183105,-0.122070,-0.061035
4167335750,0.00225830,0.00782776,-1.00590515,0.183105,0.122070,0.000000
4172432458,0.00163269,0.00843811,-1.00526428,0.183105,0.122070,0.000000
4177559750,0.00163269,0.00843811,-1.00526428,0.305176,0.000000,-0.244141
4180150208,0.00190735,0.00831604,-1.00654602,0.305176,0.000000,-0.244141
4187423375,0.00190735,0.00831604,-1.00654602,0.305176,0.061035,-0.061035
4191971333,0.00288391,0.00917053,-1.00633240,0.305176,0.061035,-0.061035
4197083416,0.00288391,0.00917053,-1.00633240,0.305176,-0.061035,-0.061035
4202284666,0.00172424,0.00814819,-1.00624084,0.305176,-0.061035,-0.061035
4207432541,0.00172424,0.00814819,-1.00624084,0.366211,0.000000,-0.061035
4212539416,0.00236511,0.00888062,-1.00671387,0.366211,0.000000,-0.061035
4217615125,0.00236511,0.00888062,-1.00671387,0.366211,0.061035,0.000000
4222285750,0.00231934,0.00721741,-1.00611877,0.366211,0.061035,0.000000
4227379458,0.00231934,0.00721741,-1.00611877,0.427246,0.061035,0.000000
4232424833,0.00263977,0.00785828,-1.00570679,0.427246,0.061035,0.000000
4237498500,0.00263977,0.00785828,-1.00570679,0.427246,0.000000,-0.122070
4242416375,0.00187683,0.00743103,-1.00566101,0.427246,0.000000,-0.122070
4247481625,0.00187683,0.00743103,-1.00566101,0.488281,0.122070,-0.122070
4252572291,0.00207520,0.00733948,-1.00505066,0.488281,0.122070,-0.122070
4257663125,0.00207520,0.00733948,-1.00505066,0.366211,0.000000,-0.061035
4260229125,0.00244141,0.00825500,-1.00570679,0.366211,0.000000,-0.061035
4267803166,0.00244141,0.00825500,-1.00570679,0.427246,0.061035,-0.122070
4270363833,0.00225830,0.00767517,-1.00625610,0.427246,0.061035,-0.122070
4277989000,0.00225830,0.00767517,-1.00625610,0.427246,0.000000,0.000000
4280560750,0.00218201,0.00813293,-1.00682068,0.427246,0.000000,0.000000
4288160125,0.00218201,0.00813293,-1.00682068,0.305176,0.061035,0.000000
4290709500,0.00120544,0.00894165,-1.00601196,0.305176,0.061035,0.000000
4298320875,0.00120544,0.00894165,-1.00601196,0.305176,0.000000,-0.122070
4300866375,0.00155640,0.00750732,-1.00541687,0.305176,0.000000,-0.122070
4308464041,0.00155640,0.00750732,-1.00541687,0.244141,0.000000,-0.122070
4311009375,0.00175476,0.00784302,-1.00625610,0.244141,0.000000,-0.122070
4318625375,0.00175476,0.00784302,-1.00625610,0.427246,0.000000,-0.122070
4321173041,0.00170898,0.00830078,-1.00540161,0.427246,0.000000,-0.122070
4328799000,0.00170898,0.00830078,-1.00540161,0.183105,-0.061035,-0.122070
4331356291,0.00181580,0.00814819,-1.00656128,0.183105,-0.061035,-0.122070
4338950666,0.00181580,0.00814819,-1.00656128,0.305176,-0.061035,-0.061035
4341505000,0.00260925,0.00761414,-1.00633240,0.305176,-0.061035,-0.061035
4349129666,0.00260925,0.00761414,-1.00633240,0.305176,0.061035,0.000000
4351677375,0.00335693,0.00852966,-1.00588989,0.305176,0.061035,0.000000
4356632916,0.00335693,0.00852966,-1.00588989,0.488281,0.061035,-0.061035
4361714625,0.00268555,0.00791931,-1.00559998,0.488281,0.061035,-0.061035
4366799083,0.00268555,0.00791931,-1.00559998,0.244141,-0.061035,-0.122070
4371872333,0.00193787,0.00756836,-1.00708008,0.244141,-0.061035,-0.122070
4376953625,0.00193787,0.00756836,-1.00708008,0.305176,-0.061035,-0.183105
4382015541,0.00175476,0.00749207,-1.00553894,0.305176,-0.061035,-0.183105
4387104416,0.00175476,0.00749207,-1.00553894,0.305176,0.000000,-0.061035
4392182833,0.00233459,0.00695801,-1.00639343,0.305176,0.000000,-0.061035
4397269791,0.00233459,0.00695801,-1.00639343,0.244141,0.000000,-0.122070
4402349625,0.00221252,0.00735474,-1.00614929,0.244141,0.000000,-0.122070
4407263000,0.00221252,0.00735474,-1.00614929,0.305176,-0.061035,-0.122070
4412211750,0.00180054,0.00730896,-1.00630188,0.305176,-0.061035,-0.122070
4417289958,0.00180054,0.00730896,-1.00630188,0.244141,0.061035,0.000000
4422383375,0.00251770,0.00740051,-1.00616455,0.244141,0.061035,0.000000
4427467750,0.00251770,0.00740051,-1.00616455,0.366211,0.000000,-0.061035
4432575750,0.00119019,0.00762939,-1.00625610,0.366211,0.000000,-0.061035
4437652000,0.00119019,0.00762939,-1.00625610,0.305176,0.122070,-0.061035
4440189208,0.00187683,0.00801086,-1.00567627,0.305176,0.122070,-0.061035
4447817666,0.00187683,0.00801086,-1.00567627,0.488281,0.061035,-0.061035
4450370458,0.00251770,0.00886536,-1.00640869,0.488281,0.061035,-0.061035
4457962125,0.00251770,0.00886536,-1.00640869,0.244141,-0.061035,-0.183105
4460506041,0.00146484,0.00822449,-1.00616455,0.244141,-0.061035,-0.183105
4468102041,0.00146484,0.00822449,-1.00616455,0.305176,0.000000,-0.183105
4470640250,0.00177002,0.00758362,-1.00660706,0.305176,0.000000,-0.183105
4478258125,0.00177002,0.00758362,-1.00660706,0.244141,-0.061035,0.061035
4480811333,0.00186157,0.00784302,-1.00622559,0.244141,-0.061035,0.061035
4488428291,0.00186157,0.00784302,-1.00622559,0.183105,0.061035,-0.061035
4490990041,0.00186157,0.00822449,-1.00653076,0.183105,0.061035,-0.061035
4498339500,0.00186157,0.00822449,-1.00653076,0.244141,0.061035,0.000000
4500875541,0.00181580,0.00775146,-1.00578308,0.244141,0.061035,0.000000
4508045500,0.00181580,0.00775146,-1.00578308,0.366211,-0.061035,-0.061035
4510608375,0.00135803,0.00772095,-1.00656128,0.366211,-0.061035,-0.061035
4517846333,0.00135803,0.00772095,-1.00656128,0.244141,-0.061035,0.000000
4520426416,0.00236511,0.00793457,-1.00585938,0.244141,-0.061035,0.000000
4527925750,0.00236511,0.00793457,-1.00585938,0.366211,0.061035,-0.122070
4530511333,0.00216675,0.00793457,-1.00643921,0.366211,0.061035,-0.122070
4538166375,0.00216675,0.00793457,-1.00643921,0.305176,0.122070,0.061035
4540250541,0.00154114,0.00811768,-1.00590515,0.305176,0.122070,0.061035
4547410000,0.00154114,0.00811768,-1.00590515,0.305176,-0.061035,-0.061035
4552456041,0.00199890,0.00799561,-1.00621033,0.305176,-0.061035,-0.061035
4557500666,0.00199890,0.00799561,-1.00621033,0.305176,-0.061035,-0.061035
4562552208,0.00216675,0.00788879,-1.00563049,0.305176,-0.061035,-0.061035
4567413791,0.00216675,0.00788879,-1.00563049,0.305176,0.000000,0.061035
4572518541,0.00219727,0.00749207,-1.00561523,0.305176,0.000000,0.061035
4577277875,0.00219727,0.00749207,-1.00561523,0.305176,0.061035,-0.122070
4582368958,0.00099182,0.00778198,-1.00579834,0.305176,0.061035,-0.122070
4587474250,0.00099182,0.00778198,-1.00579834,0.305176,0.061035,0.000000
4592606083,0.00270081,0.00782776,-1.00637817,0.305176,0.061035,0.000000
4597702166,0.00270081,0.00782776,-1.00637817,0.305176,0.000000,-0.061035
4600254000,0.00183105,0.00790405,-1.00648499,0.305176,0.000000,-0.061035
4607856958,0.00183105,0.00790405,-1.00648499,0.305176,0.000000,0.061035
4612450541,0.00321960,0.00648499,-1.00646973,0.305176,0.000000,0.061035
4617393583,0.00321960,0.00648499,-1.00646973,0.244141,0.183105,-0.061035
4622455833,0.00241089,0.00840759,-1.00572205,0.244141,0.183105,-0.061035
4627526375,0.00241089,0.00840759,-1.00572205,0.366211,0.000000,0.000000
4632614291,0.00097656,0.00871277,-1.00567627,0.366211,0.000000,0.000000
4637702458,0.00097656,0.00871277,-1.00567627,0.366211,-0.061035,-0.122070
4640248416,0.00144958,0.00834656,-1.00650024,0.366211,-0.061035,-0.122070
4647853291,0.00144958,0.00834656,-1.00650024,0.427246,0.061035,0.000000
4650396000,0.00123596,0.00874329,-1.00578308,0.427246,0.061035,0.000000
4657985333,0.00123596,0.00874329,-1.00578308,0.183105,0.061035,-0.122070
4660530875,0.00132751,0.00804138,-1.00520325,0.183105,0.061035,-0.122070
4667720791,0.00132751,0.00804138,-1.00520325,0.244141,0.000000,-0.122070
4670260291,0.00128174,0.00895691,-1.00611877,0.244141,0.000000,-0.122070
4677879666,0.00128174,0.00895691,-1.00611877,0.366211,0.122070,-0.061035
4680447250,0.00189209,0.00868225,-1.00662231,0.366211,0.122070,-0.061035
4688122000,0.00189209,0.00868225,-1.00662231,0.366211,0.061035,0.000000
4690839708,0.00170898,0.00788879,-1.00509644,0.366211,0.061035,0.000000
4698484500,0.00170898,0.00788879,-1.00509644,0.305176,0.000000,-0.122070
4701051500,0.00216675,0.00805664,-1.00666809,0.305176,0.000000,-0.122070
4708654333,0.00216675,0.00805664,-1.00666809,0.427246,0.122070,-0.061035
4711219375,0.00282288,0.00787354,-1.00537109,0.427246,0.122070,-0.061035
4718416833,0.00282288,0.00787354,-1.00537109,0.305176,-0.061035,0.061035
4720981625,0.00097656,0.00778198,-1.00529480,0.305176,-0.061035,0.061035
4728587916,0.00097656,0.00778198,-1.00529480,0.244141,0.000000,-0.122070
4731142958,0.00192261,0.00843811,-1.00520325,0.244141,0.000000,-0.122070
4738759250,0.00192261,0.00843811,-1.00520325,0.427246,0.122070,-0.244141
4741287541,0.00213623,0.00813293,-1.00549316,0.427246,0.122070,-0.244141
4748873125,0.00213623,0.00813293,-1.00549316,0.305176,0.061035,-0.061035
4751415666,0.00219727,0.00743103,-1.00502014,0.305176,0.061035,-0.061035
4759032458,0.00219727,0.00743103,-1.00502014,0.244141,0.183105,-0.061035
4761585916,0.00148010,0.00738525,-1.00550842,0.244141,0.183105,-0.061035
4766696708,0.00148010,0.00738525,-1.00550842,0.244141,0.122070,-0.061035
4771771541,0.00143433,0.00860596,-1.00627136,0.244141,0.122070,-0.061035
4776845541,0.00143433,0.00860596,-1.00627136,0.366211,0.061035,-0.061035
4781925791,0.00181580,0.00813293,-1.00611877,0.366211,0.061035,-0.061035
4787014458,0.00181580,0.00813293,-1.00611877,0.183105,-0.061035,0.000000
4792080875,0.00233459,0.00762939,-1.00511169,0.183105,-0.061035,0.000000
4797140708,0.00233459,0.00762939,-1.00511169,0.488281,0.000000,-0.183105
4802201166,0.00230408,0.00794983,-1.00640869,0.488281,0.000000,-0.183105
4807260125,0.00230408,0.00794983,-1.00640869,0.305176,0.061035,-0.122070
4812310541,0.00132751,0.00860596,-1.00633240,0.305176,0.061035,-0.122070
4817343375,0.00132751,0.00860596,-1.00633240,0.305176,0.061035,0.000000
4822377750,0.00199890,0.00727844,-1.00653076,0.305176,0.061035,0.000000
4827401875,0.00199890,0.00727844,-1.00653076,0.122070,0.000000,-0.183105
4832425875,0.00187683,0.00791931,-1.00569153,0.122070,0.000000,-0.183105
4837450500,0.00187683,0.00791931,-1.00569153,0.305176,0.061035,-0.183105
4842471000,0.00154114,0.00787354,-1.00537109,0.305176,0.061035,-0.183105
4847490500,0.00154114,0.00787354,-1.00537109,0.305176,-0.061035,-0.122070
4852539041,0.00227356,0.00776672,-1.00527954,0.305176,-0.061035,-0.122070
4857605083,0.00227356,0.00776672,-1.00527954,0.305176,0.000000,0.000000
4862702333,0.00265503,0.00804138,-1.00650024,0.305176,0.000000,0.000000
4867770000,0.00265503,0.00804138,-1.00650024,0.305176,0.061035,-0.061035
4872799541,0.00199890,0.00769043,-1.00479126,0.305176,0.061035,-0.061035
4877838000,0.00199890,0.00769043,-1.00479126,0.122070,0.000000,-0.122070
4882877458,0.00164795,0.00769043,-1.00593567,0.122070,0.000000,-0.122070
4887915458,0.00164795,0.00769043,-1.00593567,0.366211,-0.061035,-0.061035
4892953666,0.00181580,0.00840759,-1.00473022,0.366211,-0.061035,-0.061035
4897998250,0.00181580,0.00840759,-1.00473022,0.549316,0.122070,-0.061035
4903043791,0.00279236,0.00848389,-1.00534058,0.549316,0.122070,-0.061035
4908083708,0.00279236,0.00848389,-1.00534058,0.488281,0.000000,-0.122070
4913117666,0.00250244,0.00820923,-1.00596619,0.488281,0.000000,-0.122070
4918160000,0.00250244,0.00820923,-1.00596619,0.366211,0.122070,-0.061035
4920673375,0.00314331,0.00828552,-1.00622559,0.366211,0.122070,-0.061035
4928214041,0.00314331,0.00828552,-1.00622559,0.244141,0.000000,-0.061035
4930728625,0.00166321,0.00831604,-1.00509644,0.244141,0.000000,-0.061035
4938294708,0.00166321,0.00831604,-1.00509644,0.244141,0.000000,-0.061035
4940812916,0.00189209,0.00758362,-1.00631714,0.244141,0.000000,-0.061035
4948378583,0.00189209,0.00758362,-1.00631714,0.305176,-0.061035,0.061035
4950901666,0.00177002,0.00727844,-1.00640869,0.305176,-0.061035,0.061035
4958477833,0.00177002,0.00727844,-1.00640869,0.366211,0.061035,-0.061035
4960998500,0.00132751,0.00769043,-1.00579834,0.366211,0.061035,-0.061035
4968576875,0.00132751,0.00769043,-1.00579834,0.366211,-0.061035,-0.061035
4971101208,0.00178528,0.00857544,-1.00598145,0.366211,-0.061035,-0.061035
4978680333,0.00178528,0.00857544,-1.00598145,0.305176,0.061035,-0.122070
4981205875,0.00173950,0.00883484,-1.00561523,0.305176,0.061035,-0.122070
4988857250,0.00173950,0.00883484,-1.00561523,0.366211,0.122070,-0.061035
4991408916,0.00111389,0.00859070,-1.00469971,0.366211,0.122070,-0.061035
4998853375,0.00111389,0.00859070,-1.00469971,0.244141,-0.061035,-0.122070
5001160125,0.00169373,0.00764465,-1.00666809,0.244141,-0.061035,-0.122070
5008796750,0.00169373,0.00764465,-1.00666809,0.305176,0.061035,-0.061035
5011359041,0.00141907,0.00781250,-1.00636292,0.305176,0.061035,-0.061035
5018897791,0.00141907,0.00781250,-1.00636292,0.305176,-0.061035,-0.122070
5021470500,0.00198364,0.00694275,-1.00677490,0.305176,-0.061035,-0.122070
5029090000,0.00198364,0.00694275,-1.00677490,0.305176,0.061035,-0.061035
5031635083,0.00291443,0.00714111,-1.00588989,0.305176,0.061035,-0.061035
5036704041,0.00291443,0.00714111,-1.00588989,0.244141,0.061035,0.000000
5041774500,0.00201416,0.00703430,-1.00549316,0.244141,0.061035,0.000000
5046862291,0.00201416,0.00703430,-1.00549316,0.366211,0.061035,-0.061035
5051606541,0.00189209,0.00769043,-1.00602722,0.366211,0.061035,-0.061035
5056715416,0.00189209,0.00769043,-1.00602722,0.366211,0.061035,-0.122070
5061802875,0.00205994,0.00790405,-1.00611877,0.366211,0.061035,-0.122070
5066880500,0.00205994,0.00790405,-1.00611877,0.244141,0.061035,0.000000
5071937541,0.00242615,0.00796509,-1.00515747,0.244141,0.061035,0.000000
5076885041,0.00242615,0.00796509,-1.00515747,0.244141,-0.122070,-0.183105
5081968291,0.00195312,0.00759888,-1.00584412,0.244141,-0.122070,-0.183105
5087039000,0.00195312,0.00759888,-1.00584412,0.427246,-0.061035,-0.061035
5092187208,0.00117493,0.00822449,-1.00682068,0.427246,-0.061035,-0.061035
5097314750,0.00117493,0.00822449,-1.00682068,0.244141,0.000000,-0.061035
5102442791,0.00170898,0.00808716,-1.00611877,0.244141,0.000000,-0.061035
5107556291,0.00170898,0.00808716,-1.00611877,0.183105,0.061035,0.000000
5112709958,0.00218201,0.00881958,-1.00625610,0.183105,0.061035,0.000000
5117878666,0.00218201,0.00881958,-1.00625610,0.244141,0.061035,-0.122070
5122976333,0.00270081,0.00869751,-1.00732422,0.244141,0.061035,-0.122070
5128065833,0.00270081,0.00869751,-1.00732422,0.183105,0.000000,-0.061035
5133158666,0.00282288,0.00836182,-1.00572205,0.183105,0.000000,-0.061035
5138243583,0.00282288,0.00836182,-1.00572205,0.366211,-0.061035,-0.061035
5140798666,0.00225830,0.00755310,-1.00515747,0.366211,-0.061035,-0.061035
5148400375,0.00225830,0.00755310,-1.00515747,0.366211,0.061035,0.000000
5150945083,0.00079346,0.00724792,-1.00544739,0.366211,0.061035,0.000000
5158546291,0.00079346,0.00724792,-1.00544739,0.305176,0.000000,-0.061035
5161089791,0.00108337,0.00735474,-1.00582886,0.305176,0.000000,-0.061035
5168328833,0.00108337,0.00735474,-1.00582886,0.305176,0.000000,0.000000
5170884541,0.00125122,0.00772095,-1.00627136,0.305176,0.000000,0.000000
5178504791,0.00125122,0.00772095,-1.00627136,0.305176,0.122070,0.061035
5181068750,0.00158691,0.00738525,-1.00636292,0.305176,0.122070,0.061035
5188660291,0.00158691,0.00738525,-1.00636292,0.366211,0.061035,-0.122070
5191209541,0.00247192,0.00733948,-1.00521851,0.366211,0.061035,-0.122070
5197843333,0.00247192,0.00733948,-1.00521851,0.244141,0.000000,-0.122070
5202893375,0.00289917,0.00837708,-1.00592041,0.244141,0.000000,-0.122070
5207946958,0.00289917,0.00837708,-1.00592041,0.305176,0.122070,-0.061035
5213020708,0.00209045,0.00842285,-1.00527954,0.305176,0.122070,-0.061035
5218091041,0.00209045,0.00842285,-1.00527954,0.244141,-0.061035,-0.122070
5220705208,0.00175476,0.00817871,-1.00531006,0.244141,-0.061035,-0.122070
5228308458,0.00175476,0.00817871,-1.00531006,0.366211,0.000000,-0.122070
5230849166,0.00178528,0.00733948,-1.00666809,0.366211,0.000000,-0.122070
5238441791,0.00178528,0.00733948,-1.00666809,0.183105,0.000000,0.061035
5240981208,0.00154114,0.00775146,-1.00598145,0.183105,0.000000,0.061035
5248593958,0.00154114,0.00775146,-1.00598145,0.366211,-0.183105,0.000000
5253232666,0.00233459,0.00784302,-1.00646973,0.366211,-0.183105,0.000000
5258300625,0.00233459,0.00784302,-1.00646973,0.305176,-0.122070,-0.183105
5260839291,0.00241089,0.00753784,-1.00668335,0.305176,-0.122070,-0.183105
5268422500,0.00241089,0.00753784,-1.00668335,0.366211,0.122070,-0.061035
5270959833,0.00231934,0.00836182,-1.00640869,0.366211,0.122070,-0.061035
5278554583,0.00231934,0.00836182,-1.00640869,0.488281,-0.061035,-0.061035
5281095416,0.00190735,0.00704956,-1.00523376,0.488281,-0.061035,-0.061035
5288705375,0.00190735,0.00704956,-1.00523376,0.366211,0.122070,-0.061035
5291254250,0.00102234,0.00765991,-1.00593567,0.366211,0.122070,-0.061035
5298447041,0.00102234,0.00765991,-1.00593567,0.488281,0.122070,-0.122070
5300978083,0.00108337,0.00854492,-1.00627136,0.488281,0.122070,-0.122070
5308541416,0.00108337,0.00854492,-1.00627136,0.305176,0.061035,-0.183105
5311074791,0.00181580,0.00898743,-1.00634766,0.305176,0.061035,-0.183105
5318184791,0.00181580,0.00898743,-1.00634766,0.122070,0.061035,-0.061035
5320743833,0.00190735,0.00813293,-1.00631714,0.122070,0.061035,-0.061035
5328004375,0.00190735,0.00813293,-1.00631714,0.366211,0.122070,-0.061035
5333111333,0.00231934,0.00775146,-1.00711060,0.366211,0.122070,-0.061035
5338202875,0.00231934,0.00775146,-1.00711060,0.244141,0.000000,-0.061035
5340763541,0.00230408,0.00701904,-1.00599670,0.244141,0.000000,-0.061035
5348350958,0.00230408,0.00701904,-1.00599670,0.305176,0.061035,-0.122070
5350894708,0.00244141,0.00733948,-1.00526428,0.305176,0.061035,-0.122070
5358513333,0.00244141,0.00733948,-1.00526428,0.244141,0.061035,-0.061035
5361058125,0.00152588,0.00849915,-1.00552368,0.244141,0.061035,-0.061035
5368636416,0.00152588,0.00849915,-1.00552368,0.305176,0.000000,-0.122070
5371193125,0.00161743,0.00802612,-1.00645447,0.305176,0.000000,-0.122070
5378941541,0.00161743,0.00802612,-1.00645447,0.244141,0.000000,-0.122070
5381531583,0.00082397,0.00836182,-1.00509644,0.244141,0.000000,-0.122070
5388688083,0.00082397,0.00836182,-1.00509644,0.244141,0.061035,-0.061035
5391250916,0.00140381,0.00825500,-1.00529480,0.244141,0.061035,-0.061035
5398576291,0.00140381,0.00825500,-1.00529480,0.305176,0.000000,-0.122070
5401126750,0.00126648,0.00871277,-1.00611877,0.305176,0.000000,-0.122070
5408704625,0.00126648,0.00871277,-1.00611877,0.305176,0.000000,-0.244141
5411277125,0.00236511,0.00831604,-1.00868225,0.305176,0.000000,-0.244141
5418879708,0.00236511,0.00831604,-1.00868225,0.427246,0.000000,-0.061035
5421431416,0.00267029,0.00711060,-1.00625610,0.427246,0.000000,-0.061035
5428715041,0.00267029,0.00711060,-1.00625610,0.244141,0.000000,-0.122070
5431269791,0.00358582,0.00762939,-1.00572205,0.244141,0.000000,-0.122070
5438873666,0.00358582,0.00762939,-1.00572205,0.244141,0.122070,-0.061035
5441215625,0.00326538,0.00671387,-1.00639343,0.244141,0.122070,-0.061035
5448850166,0.00326538,0.00671387,-1.00639343,0.366211,0.061035,0.000000
5451409666,0.00201416,0.00715637,-1.00637817,0.366211,0.061035,0.000000
5459033166,0.00201416,0.00715637,-1.00637817,0.244141,-0.061035,-0.122070
5461585500,0.00146484,0.00827026,-1.00585938,0.244141,-0.061035,-0.122070
5466718083,0.00146484,0.00827026,-1.00585938,0.366211,-0.061035,-0.122070
5471875958,0.00154114,0.00715637,-1.00663757,0.366211,-0.061035,-0.122070
5476989333,0.00154114,0.00715637,-1.00663757,0.366211,0.000000,0.000000
5482149416,0.00193787,0.00773621,-1.00732422,0.366211,0.000000,0.000000
5487311500,0.00193787,0.00773621,-1.00732422,0.366211,0.000000,0.000000
5492421375,0.00119019,0.00830078,-1.00662231,0.366211,0.000000,0.000000
5497514583,0.00119019,0.00830078,-1.00662231,0.366211,-0.061035,0.000000
5502678375,0.00125122,0.00924683,-1.00579834,0.366211,-0.061035,0.000000
5507870416,0.00125122,0.00924683,-1.00579834,0.305176,0.000000,-0.122070
5512984333,0.00227356,0.00804138,-1.00621033,0.305176,0.000000,-0.122070
5517865500,0.00227356,0.00804138,-1.00621033,0.061035,0.000000,-0.183105
5523006541,0.00213623,0.00842285,-1.00604248,0.061035,0.000000,-0.183105
5528123333,0.00213623,0.00842285,-1.00604248,0.244141,0.000000,0.000000
5533228708,0.00169373,0.00791931,-1.00628662,0.244141,0.000000,0.000000
5537942125,0.00169373,0.00791931,-1.00628662,0.305176,0.000000,-0.122070
5543017375,0.00196838,0.00758362,-1.00619507,0.305176,0.000000,-0.122070
5548113875,0.00196838,0.00758362,-1.00619507,0.305176,0.122070,-0.122070
5550706000,0.00183105,0.00784302,-1.00602722,0.305176,0.122070,-0.122070
5557999666,0.00183105,0.00784302,-1.00602722,0.427246,0.061035,-0.061035
5562840250,0.00177002,0.00778198,-1.00550842,0.427246,0.061035,-0.061035
5567925083,0.00177002,0.00778198,-1.00550842,0.244141,0.061035,-0.061035
5573034458,0.00222778,0.00727844,-1.00697327,0.244141,0.061035,-0.061035
5578165416,0.00222778,0.00727844,-1.00697327,0.244141,0.061035,-0.061035
5580769458,0.00216675,0.00770569,-1.00552368,0.244141,0.061035,-0.061035
5588331750,0.00216675,0.00770569,-1.00552368,0.244141,0.122070,0.061035
5590878750,0.00186157,0.00790405,-1.00495911,0.244141,0.122070,0.061035
5598470875,0.00186157,0.00790405,-1.00495911,0.427246,0.183105,0.000000
5601028333,0.00218201,0.00772095,-1.00588989,0.427246,0.183105,0.000000
5608616416,0.00218201,0.00772095,-1.00588989,0.488281,0.000000,-0.305176
5611169458,0.00218201,0.00802612,-1.00665283,0.488281,0.000000,-0.305176
5618459000,0.00218201,0.00802612,-1.00665283,0.183105,0.000000,0.000000
5621008541,0.00077820,0.00822449,-1.00595093,0.183105,0.000000,0.000000
5628604875,0.00077820,0.00822449,-1.00595093,0.122070,0.000000,-0.061035
5631117833,0.00137329,0.00765991,-1.00698853,0.122070,0.000000,-0.061035
5638734791,0.00137329,0.00765991,-1.00698853,0.244141,-0.183105,0.000000
5641283208,0.00222778,0.00865173,-1.00733948,0.244141,-0.183105,0.000000
5648487625,0.00222778,0.00865173,-1.00733948,0.366211,0.000000,0.000000
5651037916,0.00309753,0.00823975,-1.00546265,0.366211,0.000000,0.000000
5658629291,0.00309753,0.00823975,-1.00546265,0.427246,0.000000,0.061035
5661190333,0.00115967,0.00872803,-1.00672913,0.427246,0.000000,0.061035
5668829500,0.00115967,0.00872803,-1.00672913,0.427246,-0.061035,-0.061035
5671396541,0.00105286,0.00772095,-1.00639343,0.427246,-0.061035,-0.061035
5679011125,0.00105286,0.00772095,-1.00639343,0.305176,0.061035,0.000000
5681583333,0.00267029,0.00729370,-1.00607300,0.305176,0.061035,0.000000
5689122208,0.00267029,0.00729370,-1.00607300,0.305176,0.122070,-0.061035
5691670125,0.00227356,0.00686646,-1.00559998,0.305176,0.122070,-0.061035
5696733791,0.00227356,0.00686646,-1.00559998,0.427246,0.000000,0.000000
5701807541,0.00250244,0.00727844,-1.00651550,0.427246,0.000000,0.000000
5706880500,0.00250244,0.00727844,-1.00651550,0.305176,0.000000,-0.122070
5711953000,0.00216675,0.00746155,-1.00570679,0.305176,0.000000,-0.122070
5717083000,0.00216675,0.00746155,-1.00570679,0.366211,0.000000,-0.061035
5721849000,0.00196838,0.00749207,-1.00622559,0.366211,0.000000,-0.061035
5729041541,0.00196838,0.00749207,-1.00622559,0.122070,0.061035,-0.061035
5731588250,0.00253296,0.00848389,-1.00598145,0.122070,0.061035,-0.061035
5736671541,0.00253296,0.00848389,-1.00598145,0.366211,0.000000,-0.061035
5741761916,0.00265503,0.00859070,-1.00621033,0.366211,0.000000,-0.061035
5746857666,0.00265503,0.00859070,-1.00621033,0.305176,-0.061035,-0.061035
5751929916,0.00265503,0.00804138,-1.00546265,0.305176,-0.061035,-0.061035
5756994583,0.00265503,0.00804138,-1.00546265,0.305176,0.061035,-0.061035
5762068750,0.00202942,0.00698853,-1.00624084,0.305176,0.061035,-0.061035
5767323333,0.00202942,0.00698853,-1.00624084,0.244141,0.061035,-0.061035
5772447250,0.00247192,0.00769043,-1.00549316,0.244141,0.061035,-0.061035
5777532958,0.00247192,0.00769043,-1.00549316,0.427246,0.000000,-0.122070
5782424125,0.00131226,0.00816345,-1.00666809,0.427246,0.000000,-0.122070
5787508125,0.00131226,0.00816345,-1.00666809,0.427246,0.061035,0.061035
5792585208,0.00262451,0.00837708,-1.00559998,0.427246,0.061035,0.061035
5797648458,0.00262451,0.00837708,-1.00559998,0.305176,0.000000,-0.183105
5802721208,0.00257874,0.00784302,-1.00607300,0.305176,0.000000,-0.183105
5807788208,0.00257874,0.00784302,-1.00607300,0.305176,0.000000,0.000000
5812879208,0.00248718,0.00952148,-1.00546265,0.305176,0.000000,0.000000
5817946291,0.00248718,0.00952148,-1.00546265,0.305176,-0.061035,-0.122070
5823025000,0.00152588,0.00874329,-1.00643921,0.305176,-0.061035,-0.122070
5828137791,0.00152588,0.00874329,-1.00643921,0.305176,0.000000,-0.122070
5833236333,0.00204468,0.00779724,-1.00610352,0.305176,0.000000,-0.122070
5838308125,0.00204468,0.00779724,-1.00610352,0.244141,-0.061035,0.000000
5840847125,0.00094604,0.00813293,-1.00648499,0.244141,-0.061035,0.000000
5848450833,0.00094604,0.00813293,-1.00648499,0.183105,0.000000,-0.122070
5851004000,0.00209045,0.00769043,-1.00599670,0.183105,0.000000,-0.122070
5858617041,0.00209045,0.00769043,-1.00599670,0.183105,0.000000,-0.061035
5861173541,0.00219727,0.00805664,-1.00592041,0.183105,0.000000,-0.061035
5868831375,0.00219727,0.00805664,-1.00592041,0.366211,0.061035,0.000000
5871412916,0.00213623,0.00900269,-1.00581360,0.366211,0.061035,0.000000
5879044750,0.00213623,0.00900269,-1.00581360,0.183105,0.061035,0.000000
5881614125,0.00317383,0.00845337,-1.00633240,0.183105,0.061035,0.000000
5889221416,0.00317383,0.00845337,-1.00633240,0.488281,0.000000,-0.061035
5891801500,0.00331116,0.00785828,-1.00605774,0.488281,0.000000,-0.061035
5896903625,0.00331116,0.00785828,-1.00605774,0.366211,0.061035,-0.061035
5901908208,0.00231934,0.00729370,-1.00491333,0.366211,0.061035,-0.061035
5906972125,0.00231934,0.00729370,-1.00491333,0.305176,0.122070,-0.061035
5912082416,0.00135803,0.00749207,-1.00607300,0.305176,0.122070,-0.061035
5916805291,0.00135803,0.00749207,-1.00607300,0.305176,0.000000,-0.061035
5921925833,0.00123596,0.00729370,-1.00669861,0.305176,0.000000,-0.061035
5926958666,0.00123596,0.00729370,-1.00669861,0.183105,-0.061035,-0.122070
5932045958,0.00183105,0.00796509,-1.00559998,0.183105,-0.061035,-0.122070
5937118791,0.00183105,0.00796509,-1.00559998,0.244141,0.000000,-0.122070
5942187583,0.00198364,0.00805664,-1.00694275,0.244141,0.000000,-0.122070
5947301458,0.00198364,0.00805664,-1.00694275,0.305176,0.000000,-0.061035
5952384750,0.00205994,0.00816345,-1.00590515,0.305176,0.000000,-0.061035
5957473541,0.00205994,0.00816345,-1.00590515,0.305176,0.061035,-0.061035
5962545500,0.00193787,0.00810242,-1.00616455,0.305176,0.061035,-0.061035
5967629583,0.00193787,0.00810242,-1.00616455,0.305176,0.061035,0.000000
5972478375,0.00192261,0.00846863,-1.00611877,0.305176,0.061035,0.000000
5977593291,0.00192261,0.00846863,-1.00611877,0.183105,0.061035,-0.122070
5982692166,0.00224304,0.00793457,-1.00639343,0.183105,0.061035,-0.122070
5987801958,0.00224304,0.00793457,-1.00639343,0.244141,0.000000,-0.061035
5992789125,0.00094604,0.00888062,-1.00546265,0.244141,0.000000,-0.061035
5997877291,0.00094604,0.00888062,-1.00546265,0.305176,0.061035,0.000000
6003001041,0.00112915,0.00843811,-1.00540161,0.305176,0.061035,0.000000
6008087583,0.00112915,0.00843811,-1.00540161,0.183105,0.061035,-0.061035
6013241500,0.00276184,0.00880432,-1.00526428,0.183105,0.061035,-0.061035
6018423916,0.00276184,0.00880432,-1.00526428,0.244141,-0.061035,-0.122070
6021004916,0.00296021,0.00877380,-1.00588989,0.244141,-0.061035,-0.122070
6028472583,0.00296021,0.00877380,-1.00588989,0.366211,0.061035,0.000000
6031039666,0.00215149,0.00845337,-1.00531006,0.366211,0.061035,0.000000
6038645583,0.00215149,0.00845337,-1.00531006,0.244141,0.122070,0.000000
6041195458,0.00215149,0.00730896,-1.00558472,0.244141,0.122070,0.000000
6048827083,0.00215149,0.00730896,-1.00558472,0.244141,0.000000,-0.061035
6051393458,0.00228882,0.00714111,-1.00613403,0.244141,0.000000,-0.061035
6059018916,0.00228882,0.00714111,-1.00613403,0.305176,0.061035,-0.183105
6061570750,0.00195312,0.00691223,-1.00520325,0.305176,0.061035,-0.183105
6069204875,0.00195312,0.00691223,-1.00520325,0.244141,-0.061035,-0.122070
6071773375,0.00125122,0.00740051,-1.00576782,0.244141,-0.061035,-0.122070
6079112583,0.00125122,0.00740051,-1.00576782,0.244141,0.061035,-0.183105
6081291541,0.00180054,0.00793457,-1.00532532,0.244141,0.061035,-0.183105
6088903958,0.00180054,0.00793457,-1.00532532,0.366211,0.000000,0.000000
6091446541,0.00143433,0.00758362,-1.00604248,0.366211,0.000000,0.000000
6099032375,0.00143433,0.00758362,-1.00604248,0.366211,-0.061035,-0.061035
6101578083,0.00106812,0.00715637,-1.00605774,0.366211,-0.061035,-0.061035
6109196500,0.00106812,0.00715637,-1.00605774,0.305176,0.061035,-0.183105
6111791541,0.00146484,0.00775146,-1.00660706,0.305176,0.061035,-0.183105
6116877958,0.00146484,0.00775146,-1.00660706,0.244141,0.061035,-0.061035
6121965625,0.00172424,0.00842285,-1.00610352,0.244141,0.061035,-0.061035
6127047875,0.00172424,0.00842285,-1.00610352,0.244141,0.000000,-0.183105
6132139125,0.00099182,0.00885010,-1.00596619,0.244141,0.000000,-0.183105
6137227875,0.00099182,0.00885010,-1.00596619,0.183105,0.061035,-0.061035
6142308625,0.00137329,0.00828552,-1.00544739,0.183105,0.061035,-0.061035
6147412166,0.00137329,0.00828552,-1.00544739,0.183105,-0.061035,-0.061035
6152504958,0.00115967,0.00854492,-1.00634766,0.183105,-0.061035,-0.061035
6157582250,0.00115967,0.00854492,-1.00634766,0.366211,0.000000,-0.122070
6162430500,0.00219727,0.00840759,-1.00549316,0.366211,0.000000,-0.122070
6167529541,0.00219727,0.00840759,-1.00549316,0.122070,0.061035,-0.122070
6172620375,0.00254822,0.00848389,-1.00559998,0.122070,0.061035,-0.122070
6177693333,0.00254822,0.00848389,-1.00559998,0.305176,0.000000,0.000000
6182396083,0.00189209,0.00831604,-1.00520325,0.305176,0.000000,0.000000
6187494083,0.00189209,0.00831604,-1.00520325,0.244141,0.122070,-0.061035
6192573708,0.00192261,0.00753784,-1.00572205,0.244141,0.122070,-0.061035
6197615875,0.00192261,0.00753784,-1.00572205,0.366211,0.061035,-0.122070
6202679250,0.00161743,0.00817871,-1.00590515,0.366211,0.061035,-0.122070
6207490250,0.00161743,0.00817871,-1.00590515,0.244141,0.061035,-0.122070
6212433500,0.00172424,0.00805664,-1.00637817,0.244141,0.061035,-0.122070
6217278750,0.00172424,0.00805664,-1.00637817,0.183105,0.061035,-0.061035
6222385541,0.00218201,0.00784302,-1.00686646,0.183105,0.061035,-0.061035
6227465916,0.00218201,0.00784302,-1.00686646,0.122070,0.000000,-0.122070
6232405541,0.00186157,0.00872803,-1.00659180,0.122070,0.000000,-0.122070
6237498083,0.00186157,0.00872803,-1.00659180,0.305176,0.061035,0.000000
6242568166,0.00289917,0.00875854,-1.00587463,0.305176,0.061035,0.000000
6247657875,0.00289917,0.00875854,-1.00587463,0.427246,0.122070,-0.183105
6252410625,0.00297546,0.00773621,-1.00743103,0.427246,0.122070,-0.183105
6257497875,0.00297546,0.00773621,-1.00743103,0.305176,0.122070,0.000000
6262569541,0.00286865,0.00741577,-1.00619507,0.305176,0.122070,0.000000
6267634833,0.00286865,0.00741577,-1.00619507,0.366211,0.000000,-0.061035
6272715333,0.00122070,0.00878906,-1.00660706,0.366211,0.000000,-0.061035
6277798125,0.00122070,0.00878906,-1.00660706,0.305176,0.061035,0.000000
6282876666,0.00093079,0.00810242,-1.00584412,0.305176,0.061035,0.000000
6287975666,0.00093079,0.00810242,-1.00584412,0.183105,0.183105,0.061035
6293058875,0.00189209,0.00830078,-1.00601196,0.183105,0.183105,0.061035
6298166416,0.00189209,0.00830078,-1.00601196,0.305176,0.000000,-0.061035
6300716291,0.00158691,0.00854492,-1.00720215,0.305176,0.000000,-0.061035
6308313833,0.00158691,0.00854492,-1.00720215,0.244141,0.122070,0.061035
6310862541,0.00134277,0.00823975,-1.00604248,0.244141,0.122070,0.061035
6318474750,0.00134277,0.00823975,-1.00604248,0.427246,0.122070,-0.061035
6321044083,0.00222778,0.00880432,-1.00523376,0.427246,0.122070,-0.061035
6328642125,0.00222778,0.00880432,-1.00523376,0.122070,0.000000,-0.061035
6331196541,0.00193787,0.00881958,-1.00746155,0.122070,0.000000,-0.061035
6338786291,0.00193787,0.00881958,-1.00746155,0.183105,-0.061035,0.000000
6341330666,0.00187683,0.00854492,-1.00624084,0.183105,-0.061035,0.000000
6348833000,0.00187683,0.00854492,-1.00624084,0.427246,0.061035,-0.183105
6351394750,0.00122070,0.00852966,-1.00604248,0.427246,0.061035,-0.183105
6359003250,0.00122070,0.00852966,-1.00604248,0.305176,0.122070,-0.061035
6361556291,0.00227356,0.00790405,-1.00457764,0.305176,0.122070,-0.061035
6369178666,0.00227356,0.00790405,-1.00457764,0.061035,-0.122070,-0.122070
6371463458,0.00195312,0.00701904,-1.00671387,0.061035,-0.122070,-0.122070
6379069625,0.00195312,0.00701904,-1.00671387,0.305176,0.122070,-0.061035
6381644416,0.00212097,0.00755310,-1.00672913,0.305176,0.122070,-0.061035
6389290833,0.00212097,0.00755310,-1.00672913,0.549316,0.122070,-0.061035
6391882500,0.00161743,0.00810242,-1.00646973,0.549316,0.122070,-0.061035
6396978833,0.00161743,0.00810242,-1.00646973,0.427246,0.000000,-0.061035
6401935791,0.00160217,0.00825500,-1.00593567,0.427246,0.000000,-0.061035
6407046375,0.00160217,0.00825500,-1.00593567,0.305176,0.122070,0.061035
6412197291,0.00270081,0.00743103,-1.00596619,0.305176,0.122070,0.061035
6417127708,0.00270081,0.00743103,-1.00596619,0.244141,-0.122070,-0.122070
6422270916,0.00157166,0.00817871,-1.00544739,0.244141,-0.122070,-0.122070
6427382875,0.00157166,0.00817871,-1.00544739,0.183105,-0.061035,-0.122070
6432468333,0.00140381,0.00822449,-1.00569153,0.183105,-0.061035,-0.122070
6437536083,0.00140381,0.00822449,-1.00569153,0.305176,0.183105,-0.122070
6442608541,0.00123596,0.00901794,-1.00534058,0.305176,0.183105,-0.122070
6447751750,0.00123596,0.00901794,-1.00534058,0.366211,0.183105,0.061035
6452894916,0.00119019,0.00837708,-1.00549316,0.366211,0.183105,0.061035
6457514791,0.00119019,0.00837708,-1.00549316,0.427246,0.122070,-0.122070
6462471208,0.00131226,0.00875854,-1.00613403,0.427246,0.122070,-0.122070
6467256875,0.00131226,0.00875854,-1.00613403,0.427246,0.000000,-0.122070
6472381833,0.00146484,0.00851440,-1.00585938,0.427246,0.000000,-0.122070
6477391291,0.00146484,0.00851440,-1.00585938,0.305176,0.000000,-0.122070
6482548041,0.00250244,0.00765991,-1.00559998,0.305176,0.000000,-0.122070
6487695916,0.00250244,0.00765991,-1.00559998,0.244141,-0.061035,0.000000
6492833041,0.00224304,0.00706482,-1.00692749,0.244141,-0.061035,0.000000
6497692416,0.00224304,0.00706482,-1.00692749,0.244141,-0.061035,-0.183105
6502865791,0.00241089,0.00807190,-1.00521851,0.244141,-0.061035,-0.183105
6507581000,0.00241089,0.00807190,-1.00521851,0.366211,-0.061035,-0.122070
6512710791,0.00222778,0.00682068,-1.00579834,0.366211,-0.061035,-0.122070
6517740291,0.00222778,0.00682068,-1.00579834,0.183105,0.000000,-0.061035
6522855125,0.00209045,0.00701904,-1.00614929,0.183105,0.000000,-0.061035
6527987916,0.00209045,0.00701904,-1.00614929,0.122070,-0.061035,-0.061035
6533113333,0.00230408,0.00711060,-1.00630188,0.122070,-0.061035,-0.061035
6537878375,0.00230408,0.00711060,-1.00630188,0.183105,0.061035,-0.122070
6542599458,0.00160217,0.00761414,-1.00621033,0.183105,0.061035,-0.122070
6547752500,0.00160217,0.00761414,-1.00621033,0.305176,0.000000,-0.061035
6552469500,0.00149536,0.00830078,-1.00515747,0.305176,0.000000,-0.061035
6557608708,0.00149536,0.00830078,-1.00515747,0.305176,-0.061035,-0.122070
6562504125,0.00119019,0.00805664,-1.00596619,0.305176,-0.061035,-0.122070
6567685541,0.00119019,0.00805664,-1.00596619,0.427246,0.061035,0.061035
6572863958,0.00157166,0.00833130,-1.00637817,0.427246,0.061035,0.061035
6578124208,0.00157166,0.00833130,-1.00637817,0.183105,0.000000,-0.122070
6582443000,0.00158691,0.00875854,-1.00596619,0.183105,0.000000,-0.122070
6587607583,0.00158691,0.00875854,-1.00596619,0.244141,0.122070,0.000000
6592596750,0.00209045,0.00733948,-1.00584412,0.244141,0.122070,0.000000
6597707500,0.00209045,0.00733948,-1.00584412,0.427246,0.061035,-0.183105
6602860333,0.00094604,0.00802612,-1.00656128,0.427246,0.061035,-0.183105
6607977041,0.00094604,0.00802612,-1.00656128,0.427246,-0.061035,-0.122070
6612865500,0.00163269,0.00770569,-1.00576782,0.427246,-0.061035,-0.122070
6617973083,0.00163269,0.00770569,-1.00576782,0.183105,-0.122070,-0.183105
6623051708,0.00225830,0.00801086,-1.00576782,0.183105,-0.122070,-0.183105
6628163875,0.00225830,0.00801086,-1.00576782,0.305176,-0.061035,-0.183105
6630737500,0.00193787,0.00828552,-1.00552368,0.305176,-0.061035,-0.183105
6638342458,0.00193787,0.00828552,-1.00552368,0.183105,-0.061035,0.000000
6640898166,0.00259399,0.00749207,-1.00595093,0.183105,-0.061035,0.000000
6648599333,0.00259399,0.00749207,-1.00595093,0.305176,0.061035,-0.122070
6651199708,0.00210571,0.00653076,-1.00573730,0.305176,0.061035,-0.122070
6658814166,0.00210571,0.00653076,-1.00573730,0.427246,0.000000,-0.122070
6661370708,0.00247192,0.00636292,-1.00625610,0.427246,0.000000,-0.122070
6668832708,0.00247192,0.00636292,-1.00625610,0.427246,0.061035,-0.122070
6671404666,0.00166321,0.00720215,-1.00608826,0.427246,0.061035,-0.122070
6679026458,0.00166321,0.00720215,-1.00608826,0.183105,-0.061035,-0.122070
6681575208,0.00160217,0.00770569,-1.00679016,0.183105,-0.061035,-0.122070
6689170791,0.00160217,0.00770569,-1.00679016,0.183105,0.061035,0.000000
6691712666,0.00231934,0.00849915,-1.00621033,0.183105,0.061035,0.000000
6699355583,0.00231934,0.00849915,-1.00621033,0.427246,0.000000,-0.183105
6701933875,0.00129700,0.00782776,-1.00566101,0.427246,0.000000,-0.183105
6707015791,0.00129700,0.00782776,-1.00566101,0.366211,0.061035,-0.061035
6712112291,0.00167847,0.00866699,-1.00588989,0.366211,0.061035,-0.061035
6717301458,0.00167847,0.00866699,-1.00588989,0.366211,0.061035,0.000000
6722444791,0.00170898,0.00970459,-1.00704956,0.366211,0.061035,0.000000
6727546416,0.00170898,0.00970459,-1.00704956,0.244141,0.000000,0.000000
6732627000,0.00227356,0.00915527,-1.00566101,0.244141,0.000000,0.000000
6737715333,0.00227356,0.00915527,-1.00566101,0.305176,0.000000,-0.061035
6742760458,0.00140381,0.00755310,-1.00604248,0.305176,0.000000,-0.061035
6747930875,0.00140381,0.00755310,-1.00604248,0.183105,0.000000,-0.122070
6753098166,0.00210571,0.00825500,-1.00572205,0.183105,0.000000,-0.122070
6758232458,0.00210571,0.00825500,-1.00572205,0.244141,0.000000,-0.061035
6760802708,0.00175476,0.00874329,-1.00685120,0.244141,0.000000,-0.061035
6767858333,0.00175476,0.00874329,-1.00685120,0.244141,0.000000,-0.061035
6772965416,0.00192261,0.00840759,-1.00541687,0.244141,0.000000,-0.061035
6778105041,0.00192261,0.00840759,-1.00541687,0.366211,0.061035,-0.061035
6780876583,0.00173950,0.00827026,-1.00651550,0.366211,0.061035,-0.061035
6788560166,0.00173950,0.00827026,-1.00651550,0.366211,-0.061035,-0.122070
6791141458,0.00234985,0.00831604,-1.00592041,0.366211,-0.061035,-0.122070
6798354125,0.00234985,0.00831604,-1.00592041,0.366211,-0.061035,-0.122070
6800933166,0.00276184,0.00798035,-1.00634766,0.366211,-0.061035,-0.122070
6808629500,0.00276184,0.00798035,-1.00634766,0.427246,0.061035,-0.183105
6811209625,0.00213623,0.00779724,-1.00584412,0.427246,0.061035,-0.183105
6818823958,0.00213623,0.00779724,-1.00584412,0.366211,0.061035,-0.061035
6821370125,0.00305176,0.00746155,-1.00558472,0.366211,0.061035,-0.061035
6828988125,0.00305176,0.00746155,-1.00558472,0.366211,0.000000,-0.061035
6831536416,0.00234985,0.00785828,-1.00668335,0.366211,0.000000,-0.061035
6839127708,0.00234985,0.00785828,-1.00668335,0.244141,0.061035,-0.061035
6841676125,0.00222778,0.00834656,-1.00605774,0.244141,0.061035,-0.061035
6849312916,0.00222778,0.00834656,-1.00605774,0.427246,0.122070,-0.122070
6851863166,0.00242615,0.00814819,-1.00564575,0.427246,0.122070,-0.122070
6859447291,0.00242615,0.00814819,-1.00564575,0.305176,0.122070,-0.061035
6862001916,0.00228882,0.00779724,-1.00645447,0.305176,0.122070,-0.061035
6867076416,0.00228882,0.00779724,-1.00645447,0.305176,-0.061035,-0.122070
6872158791,0.00201416,0.00851440,-1.00642395,0.305176,-0.061035,-0.122070
6877266416,0.00201416,0.00851440,-1.00642395,0.305176,0.061035,-0.061035
6882352583,0.00263977,0.00761414,-1.00627136,0.305176,0.061035,-0.061035
6887181750,0.00263977,0.00761414,-1.00627136,0.305176,0.061035,-0.061035
6892202708,0.00210571,0.00784302,-1.00512695,0.305176,0.061035,-0.061035
6897291041,0.00210571,0.00784302,-1.00512695,0.305176,0.061035,-0.122070
6902362083,0.00230408,0.00849915,-1.00651550,0.305176,0.061035,-0.122070
6907433583,0.00230408,0.00849915,-1.00651550,0.305176,-0.061035,-0.061035
6912450000,0.00061035,0.00804138,-1.00466919,0.305176,-0.061035,-0.061035
6917535791,0.00061035,0.00804138,-1.00466919,0.305176,0.183105,0.000000
6922617458,0.00210571,0.00743103,-1.00506592,0.305176,0.183105,0.000000
6927688833,0.00210571,0.00743103,-1.00506592,0.183105,0.000000,-0.061035
6932406875,0.00245667,0.00712585,-1.00611877,0.183105,0.000000,-0.061035
6937477541,0.00245667,0.00712585,-1.00611877,0.488281,-0.061035,-0.122070
6942199291,0.00234985,0.00752258,-1.00657654,0.488281,-0.061035,-0.122070
6947298375,0.00234985,0.00752258,-1.00657654,0.305176,-0.122070,0.000000
6952378958,0.00274658,0.00833130,-1.00531006,0.305176,-0.122070,0.000000
6957466916,0.00274658,0.00833130,-1.00531006,0.305176,0.000000,-0.122070
6962353166,0.00193787,0.00769043,-1.00671387,0.305176,0.000000,-0.122070
6967502833,0.00193787,0.00769043,-1.00671387,0.305176,-0.061035,-0.061035
6972624708,0.00080872,0.00747681,-1.00531006,0.305176,-0.061035,-0.061035
6977611458,0.00080872,0.00747681,-1.00531006,0.305176,0.061035,-0.061035
6982830375,0.00117493,0.00720215,-1.00495911,0.305176,0.061035,-0.061035
6987999916,0.00117493,0.00720215,-1.00495911,0.305176,0.061035,0.061035
6993193041,0.00192261,0.00811768,-1.00595093,0.305176,0.061035,0.061035
6998373291,0.00192261,0.00811768,-1.00595093,0.183105,-0.122070,-0.183105
7001001208,0.00086975,0.00799561,-1.00747681,0.183105,-0.122070,-0.183105
7008427291,0.00086975,0.00799561,-1.00747681,0.244141,-0.061035,-0.061035
7011042875,0.00158691,0.00868225,-1.00521851,0.244141,-0.061035,-0.061035
7018455708,0.00158691,0.00868225,-1.00521851,0.427246,0.122070,-0.061035
7021049958,0.00199890,0.00788879,-1.00555420,0.427246,0.122070,-0.061035
7028689625,0.00199890,0.00788879,-1.00555420,0.183105,0.000000,-0.122070
7031253541,0.00169373,0.00849915,-1.00558472,0.183105,0.000000,-0.122070
7038874458,0.00169373,0.00849915,-1.00558472,0.244141,0.061035,-0.061035
7041422750,0.00196838,0.00837708,-1.00601196,0.244141,0.061035,-0.061035
7049086291,0.00196838,0.00837708,-1.00601196,0.366211,0.000000,0.000000
7051665875,0.00297546,0.00756836,-1.00695801,0.366211,0.000000,0.000000
7059300666,0.00297546,0.00756836,-1.00695801,0.488281,0.000000,-0.061035
7061694750,0.00265503,0.00761414,-1.00567627,0.488281,0.000000,-0.061035
7069386958,0.00265503,0.00761414,-1.00567627,0.244141,0.061035,-0.183105
7071949125,0.00308228,0.00811768,-1.00590515,0.244141,0.061035,-0.183105
7079159083,0.00308228,0.00811768,-1.00590515,0.122070,0.000000,-0.244141
7081595375,0.00296021,0.00764465,-1.00708008,0.122070,0.000000,-0.244141
7089261875,0.00296021,0.00764465,-1.00708008,0.305176,0.122070,-0.061035
7091832458,0.00213623,0.00720215,-1.00622559,0.305176,0.122070,-0.061035
7099539416,0.00213623,0.00720215,-1.00622559,0.305176,0.000000,-0.122070
7101648916,0.00262451,0.00715637,-1.00622559,0.305176,0.000000,-0.122070
7109271333,0.00262451,0.00715637,-1.00622559,0.427246,0.061035,-0.122070
7111935416,0.00125122,0.00802612,-1.00732422,0.427246,0.061035,-0.122070
7117140958,0.00125122,0.00802612,-1.00732422,0.305176,-0.061035,-0.183105
7122291625,0.00128174,0.00796509,-1.00602722,0.305176,-0.061035,-0.183105
7127420333,0.00128174,0.00796509,-1.00602722,0.305176,0.122070,0.061035
7132405291,0.00169373,0.00849915,-1.00570679,0.305176,0.122070,0.061035
7137477708,0.00169373,0.00849915,-1.00570679,0.488281,0.122070,0.000000
7142558916,0.00198364,0.00823975,-1.00498962,0.488281,0.122070,0.000000
7147679666,0.00198364,0.00823975,-1.00498962,0.305176,-0.122070,0.061035
7152662166,0.00205994,0.00833130,-1.00634766,0.305176,-0.122070,0.061035
7157765416,0.00205994,0.00833130,-1.00634766,0.366211,0.122070,-0.122070
7162907583,0.00195312,0.00874329,-1.00588989,0.366211,0.122070,-0.122070
7168006708,0.00195312,0.00874329,-1.00588989,0.366211,0.000000,0.000000
7173109833,0.00216675,0.00764465,-1.00524902,0.366211,0.000000,0.000000
7178201333,0.00216675,0.00764465,-1.00524902,0.366211,0.061035,0.061035
7183355625,0.00207520,0.00732422,-1.00531006,0.366211,0.061035,0.061035
7188444125,0.00207520,0.00732422,-1.00531006,0.427246,0.000000,-0.061035
7190998041,0.00201416,0.00735474,-1.00576782,0.427246,0.000000,-0.061035
7198674125,0.00201416,0.00735474,-1.00576782,0.305176,0.000000,-0.122070
7201271500,0.00143433,0.00804138,-1.00630188,0.305176,0.000000,-0.122070
7208901583,0.00143433,0.00804138,-1.00630188,0.305176,0.061035,-0.244141
7211496666,0.00181580,0.00759888,-1.00590515,0.305176,0.061035,-0.244141
7219203458,0.00181580,0.00759888,-1.00590515,0.366211,0.061035,-0.061035
7221766916,0.00102234,0.00799561,-1.00634766,0.366211,0.061035,-0.061035
7229391041,0.00102234,0.00799561,-1.00634766,0.305176,-0.061035,-0.061035
7231948375,0.00041199,0.00770569,-1.00518799,0.305176,-0.061035,-0.061035
7239545083,0.00041199,0.00770569,-1.00518799,0.366211,0.000000,-0.122070
7242118291,0.00000000,0.00820923,-1.00544739,0.366211,0.000000,-0.122070
7247286083,0.00000000,0.00820923,-1.00544739,0.305176,-0.122070,-0.061035
7252117708,-0.00022888,0.00938416,-1.00616455,0.305176,-0.122070,-0.061035
7257242000,-0.00022888,0.00938416,-1.00616455,0.488281,0.000000,-0.061035
7262360125,0.00262451,0.00944519,-1.00526428,0.488281,0.000000,-0.061035
7267487000,0.00262451,0.00944519,-1.00526428,0.244141,0.000000,-0.061035
7272596833,0.00244141,0.00878906,-1.00643921,0.244141,0.000000,-0.061035
7277702500,0.00244141,0.00878906,-1.00643921,0.244141,0.061035,-0.061035
7282396000,0.00401306,0.00830078,-1.00657654,0.244141,0.061035,-0.061035
7287460375,0.00401306,0.00830078,-1.00657654,0.366211,0.122070,-0.061035
7292529750,0.00296021,0.00817871,-1.00653076,0.366211,0.122070,-0.061035
7297610666,0.00296021,0.00817871,-1.00653076,0.366211,0.000000,-0.061035
7302702125,0.00276184,0.00796509,-1.00497437,0.366211,0.000000,-0.061035
7307771708,0.00276184,0.00796509,-1.00497437,0.305176,-0.061035,-0.061035
7312443791,0.00263977,0.00871277,-1.00617981,0.305176,-0.061035,-0.061035
7317524333,0.00263977,0.00871277,-1.00617981,0.305176,0.000000,-0.122070
7322601500,0.00238037,0.00796509,-1.00524902,0.305176,0.000000,-0.122070
7327679791,0.00238037,0.00796509,-1.00524902,0.244141,0.061035,-0.061035
7332402833,0.00233459,0.00726318,-1.00616455,0.244141,0.061035,-0.061035
7337479625,0.00233459,0.00726318,-1.00616455,0.183105,0.000000,0.000000
7342536750,0.00160217,0.00747681,-1.00561523,0.183105,0.000000,0.000000
7347612291,0.00160217,0.00747681,-1.00561523,0.244141,0.000000,-0.122070
7352685083,0.00189209,0.00794983,-1.00555420,0.244141,0.000000,-0.122070
7357787416,0.00189209,0.00794983,-1.00555420,0.305176,0.061035,-0.122070
7362451166,0.00170898,0.00811768,-1.00592041,0.305176,0.061035,-0.122070
7367532875,0.00170898,0.00811768,-1.00592041,0.183105,0.061035,0.000000
7372605750,0.00105286,0.00840759,-1.00653076,0.183105,0.061035,0.000000
7377688375,0.00105286,0.00840759,-1.00653076,0.183105,0.000000,-0.122070
7382301666,0.00088501,0.00813293,-1.00631714,0.183105,0.000000,-0.122070
7387370833,0.00088501,0.00813293,-1.00631714,0.305176,0.061035,-0.061035
7392458333,0.00114441,0.00799561,-1.00572205,0.305176,0.061035,-0.061035
7397539833,0.00114441,0.00799561,-1.00572205,0.366211,0.061035,0.000000
7402605708,0.00093079,0.00836182,-1.00534058,0.366211,0.061035,0.000000
7407674833,0.00093079,0.00836182,-1.00534058,0.122070,0.000000,-0.122070
7412450666,0.00181580,0.00817871,-1.00556946,0.122070,0.000000,-0.122070
7417540791,0.00181580,0.00817871,-1.00556946,0.244141,-0.061035,-0.061035
7422619041,0.00300598,0.00894165,-1.00631714,0.244141,-0.061035,-0.061035
7427767375,0.00300598,0.00894165,-1.00631714,0.427246,0.061035,-0.122070
7432441083,0.00218201,0.00898743,-1.00665283,0.427246,0.061035,-0.122070
7437592458,0.00218201,0.00898743,-1.00665283,0.244141,0.122070,-0.183105
7442717083,0.00236511,0.00849915,-1.00590515,0.244141,0.122070,-0.183105
7447493875,0.00236511,0.00849915,-1.00590515,0.366211,0.061035,-0.183105
7452570291,0.00311279,0.00820923,-1.00605774,0.366211,0.061035,-0.183105
7457634208,0.00311279,0.00820923,-1.00605774,0.488281,-0.061035,0.061035
7462698416,0.00207520,0.00802612,-1.00602722,0.488281,-0.061035,0.061035
7467624833,0.00207520,0.00802612,-1.00602722,0.427246,0.061035,-0.061035
7472751500,0.00186157,0.00721741,-1.00592041,0.427246,0.061035,-0.061035
7477974708,0.00186157,0.00721741,-1.00592041,0.244141,0.183105,-0.061035
7483184958,0.00175476,0.00677490,-1.00570679,0.244141,0.183105,-0.061035
7488570500,0.00175476,0.00677490,-1.00570679,0.305176,0.061035,-0.061035
7491161291,0.00236511,0.00758362,-1.00555420,0.305176,0.061035,-0.061035
7498895583,0.00236511,0.00758362,-1.00555420,0.305176,-0.122070,-0.061035
7501543625,0.00158691,0.00831604,-1.00540161,0.305176,-0.122070,-0.061035
7509219333,0.00158691,0.00831604,-1.00540161,0.305176,0.000000,0.000000
7511857250,0.00134277,0.00868225,-1.00541687,0.305176,0.000000,0.000000
7519548708,0.00134277,0.00868225,-1.00541687,0.244141,0.061035,-0.061035
7522138375,0.00114441,0.00874329,-1.00604248,0.244141,0.061035,-0.061035
7527246625,0.00114441,0.00874329,-1.00604248,0.366211,-0.061035,0.000000
7531939250,0.00093079,0.00843811,-1.00613403,0.366211,-0.061035,0.000000
7539553625,0.00093079,0.00843811,-1.00613403,0.183105,0.061035,-0.061035
7542190875,0.00166321,0.00843811,-1.00595093,0.183105,0.061035,-0.061035
7547327083,0.00166321,0.00843811,-1.00595093,0.366211,0.061035,-0.183105
7552507833,0.00180054,0.00794983,-1.00662231,0.366211,0.061035,-0.183105
7557639458,0.00180054,0.00794983,-1.00662231,0.305176,0.061035,-0.061035
7562772250,0.00160217,0.00837708,-1.00642395,0.305176,0.061035,-0.061035
7568018666,0.00160217,0.00837708,-1.00642395,0.305176,0.122070,-0.122070
7573142958,0.00201416,0.00840759,-1.00604248,0.305176,0.122070,-0.122070
7578317833,0.00201416,0.00840759,-1.00604248,0.427246,0.122070,-0.061035
7581069125,0.00251770,0.00730896,-1.00534058,0.427246,0.122070,-0.061035
7588688666,0.00251770,0.00730896,-1.00534058,0.366211,0.061035,-0.061035
7591268125,0.00189209,0.00779724,-1.00483704,0.366211,0.061035,-0.061035
7599068458,0.00189209,0.00779724,-1.00483704,0.366211,0.122070,-0.122070
7601708166,0.00192261,0.00778198,-1.00581360,0.366211,0.122070,-0.122070
7609440625,0.00192261,0.00778198,-1.00581360,0.183105,-0.061035,-0.122070
7612047208,0.00270081,0.00695801,-1.00553894,0.183105,-0.061035,-0.122070
7617265875,0.00270081,0.00695801,-1.00553894,0.122070,0.061035,0.000000
7622364833,0.00273132,0.00738525,-1.00537109,0.122070,0.061035,0.000000
7627472500,0.00273132,0.00738525,-1.00537109,0.305176,0.000000,-0.061035
7632547458,0.00225830,0.00831604,-1.00617981,0.305176,0.000000,-0.061035
7640162791,0.00225830,0.00831604,-1.00617981,0.122070,-0.061035,-0.183105
7642712166,0.00164795,0.00881958,-1.00698853,0.122070,-0.061035,-0.183105
7647824000,0.00164795,0.00881958,-1.00698853,0.427246,0.000000,-0.061035
7652970416,0.00184631,0.00900269,-1.00532532,0.427246,0.000000,-0.061035
7658019666,0.00184631,0.00900269,-1.00532532,0.305176,0.061035,-0.061035
7663102208,0.00233459,0.00906372,-1.00546265,0.305176,0.061035,-0.061035
7668197416,0.00233459,0.00906372,-1.00546265,0.244141,-0.061035,0.000000
7673278416,0.00205994,0.00840759,-1.00570679,0.244141,-0.061035,0.000000
7678381708,0.00205994,0.00840759,-1.00570679,0.183105,-0.061035,-0.122070
7683475916,0.00202942,0.00743103,-1.00668335,0.183105,-0.061035,-0.122070
7688546458,0.00202942,0.00743103,-1.00668335,0.244141,0.000000,-0.122070
7691091791,0.00128174,0.00669861,-1.00552368,0.244141,0.000000,-0.122070
7698730500,0.00128174,0.00669861,-1.00552368,0.366211,0.000000,-0.061035
7701306458,0.00158691,0.00776672,-1.00567627,0.366211,0.000000,-0.061035
7708930125,0.00158691,0.00776672,-1.00567627,0.305176,0.061035,0.000000
7711498416,0.00219727,0.00738525,-1.00559998,0.305176,0.061035,0.000000
7719140583,0.00219727,0.00738525,-1.00559998,0.183105,0.061035,0.000000
7721686708,0.00224304,0.00738525,-1.00672913,0.183105,0.061035,0.000000
7728826833,0.00224304,0.00738525,-1.00672913,0.305176,-0.061035,-0.061035
7731386458,0.00306702,0.00764465,-1.00505066,0.305176,-0.061035,-0.061035
7738983583,0.00306702,0.00764465,-1.00505066,0.427246,0.061035,-0.061035
7741553541,0.00309753,0.00770569,-1.00627136,0.427246,0.061035,-0.061035
7749202666,0.00309753,0.00770569,-1.00627136,0.244141,-0.183105,-0.061035
7751764375,0.00256348,0.00854492,-1.00598145,0.244141,-0.183105,-0.061035
7759365916,0.00256348,0.00854492,-1.00598145,0.488281,0.122070,-0.061035
7761921750,0.00326538,0.00842285,-1.00581360,0.488281,0.122070,-0.061035
7769620958,0.00326538,0.00842285,-1.00581360,0.305176,0.122070,0.000000
7772154083,0.00242615,0.00743103,-1.00616455,0.305176,0.122070,0.000000
7779788083,0.00242615,0.00743103,-1.00616455,0.244141,0.061035,-0.244141
7782342166,0.00209045,0.00721741,-1.00621033,0.244141,0.061035,-0.244141
7789948083,0.00209045,0.00721741,-1.00621033,0.244141,0.061035,-0.061035
7792511041,0.00207520,0.00732422,-1.00517273,0.244141,0.061035,-0.061035
7797667291,0.00207520,0.00732422,-1.00517273,0.427246,0.000000,-0.061035
7802777916,0.00170898,0.00708008,-1.00555420,0.427246,0.000000,-0.061035
7807898583,0.00170898,0.00708008,-1.00555420,0.488281,0.000000,-0.061035
7812999375,0.00144958,0.00814819,-1.00424194,0.488281,0.000000,-0.061035
7818106250,0.00144958,0.00814819,-1.00424194,0.305176,0.183105,0.000000
7823190375,0.00099182,0.00837708,-1.00695801,0.305176,0.183105,0.000000
7828278916,0.00099182,0.00837708,-1.00695801,0.427246,0.122070,-0.183105
7833354875,0.00190735,0.00892639,-1.00547791,0.427246,0.122070,-0.183105
7838421666,0.00190735,0.00892639,-1.00547791,0.366211,0.122070,-0.061035
7843491083,0.00138855,0.00874329,-1.00544739,0.366211,0.122070,-0.061035
7848585625,0.00138855,0.00874329,-1.00544739,0.305176,0.061035,-0.183105
7853265125,0.00190735,0.00898743,-1.00543213,0.305176,0.061035,-0.183105
7858346833,0.00190735,0.00898743,-1.00543213,0.305176,0.000000,0.000000
7863432041,0.00299072,0.00856018,-1.00508118,0.305176,0.000000,0.000000
7868522791,0.00299072,0.00856018,-1.00508118,0.305176,0.000000,0.000000
7871067333,0.00205994,0.00891113,-1.00457764,0.305176,0.000000,0.000000
7878690208,0.00205994,0.00891113,-1.00457764,0.244141,-0.061035,0.061035
7881232333,0.00248718,0.00839233,-1.00628662,0.244141,-0.061035,0.061035
7888821666,0.00248718,0.00839233,-1.00628662,0.427246,0.122070,-0.061035
7891369250,0.00222778,0.00756836,-1.00660706,0.427246,0.122070,-0.061035
7898952625,0.00222778,0.00756836,-1.00660706,0.244141,0.000000,-0.122070
7901487458,0.00172424,0.00750732,-1.00660706,0.244141,0.000000,-0.122070
7909075041,0.00172424,0.00750732,-1.00660706,0.366211,0.061035,0.000000
7911622041,0.00216675,0.00765991,-1.00579834,0.366211,0.061035,0.000000
7919219333,0.00216675,0.00765991,-1.00579834,0.305176,0.061035,0.000000
7921761583,0.00144958,0.00761414,-1.00559998,0.305176,0.061035,0.000000
7929377666,0.00144958,0.00761414,-1.00559998,0.244141,-0.061035,-0.061035
7931931333,0.00196838,0.00811768,-1.00534058,0.244141,-0.061035,-0.061035
7939561000,0.00196838,0.00811768,-1.00534058,0.366211,0.061035,-0.122070
7942118500,0.00170898,0.00788879,-1.00616455,0.366211,0.061035,-0.122070
7949761958,0.00170898,0.00788879,-1.00616455,0.305176,0.061035,0.000000
7952317625,0.00260925,0.00810242,-1.00621033,0.305176,0.061035,0.000000
7959932625,0.00260925,0.00810242,-1.00621033,0.427246,0.061035,0.000000
7962481125,0.00135803,0.00875854,-1.00643921,0.427246,0.061035,0.000000
7970096791,0.00135803,0.00875854,-1.00643921,0.427246,0.061035,-0.122070
7972663000,0.00286865,0.00788879,-1.00561523,0.427246,0.061035,-0.122070
7977746583,0.00286865,0.00788879,-1.00561523,0.366211,0.061035,-0.061035
7982399333,0.00177002,0.00765991,-1.00532532,0.366211,0.061035,-0.061035
7990006083,0.00177002,0.00765991,-1.00532532,0.244141,0.061035,-0.061035
7992577375,0.00079346,0.00808716,-1.00524902,0.244141,0.061035,-0.061035
7997657125,0.00079346,0.00808716,-1.00524902,0.305176,0.000000,-0.061035
8002255833,0.00248718,0.00788879,-1.00546265,0.305176,0.000000,-0.061035
8009582125,0.00248718,0.00788879,-1.00546265,0.366211,-0.061035,-0.061035
8012136708,0.00199890,0.00749207,-1.00556946,0.366211,-0.061035,-0.061035
8019717750,0.00199890,0.00749207,-1.00556946,0.244141,0.000000,-0.183105
8022267916,0.00245667,0.00810242,-1.00506592,0.244141,0.000000,-0.183105
8029490333,0.00245667,0.00810242,-1.00506592,0.244141,0.061035,0.000000
8032032458,0.00146484,0.00834656,-1.00619507,0.244141,0.061035,0.000000
8039642750,0.00146484,0.00834656,-1.00619507,0.305176,0.061035,0.000000
8042182208,0.00172424,0.00865173,-1.00517273,0.305176,0.061035,0.000000
8049822875,0.00172424,0.00865173,-1.00517273,0.305176,0.061035,0.000000
8052325583,0.00120544,0.00839233,-1.00642395,0.305176,0.061035,0.000000
8059475750,0.00120544,0.00839233,-1.00642395,0.366211,-0.061035,-0.061035
8062040208,0.00189209,0.00819397,-1.00601196,0.366211,-0.061035,-0.061035
8069647833,0.00189209,0.00819397,-1.00601196,0.427246,0.061035,-0.061035
8072206833,0.00143433,0.00820923,-1.00657654,0.427246,0.061035,-0.061035
8079877666,0.00143433,0.00820923,-1.00657654,0.183105,0.000000,-0.061035
8082401583,0.00154114,0.00737000,-1.00540161,0.183105,0.000000,-0.061035
8089991583,0.00154114,0.00737000,-1.00540161,0.183105,0.000000,-0.183105
8092532708,0.00227356,0.00714111,-1.00634766,0.183105,0.000000,-0.183105
8097628750,0.00227356,0.00714111,-1.00634766,0.366211,0.183105,0.000000
8102669916,0.00210571,0.00715637,-1.00662231,0.366211,0.183105,0.000000
8107754291,0.00210571,0.00715637,-1.00662231,0.366211,0.061035,-0.122070
8112646041,0.00233459,0.00709534,-1.00535583,0.366211,0.061035,-0.122070
8117713250,0.00233459,0.00709534,-1.00535583,0.366211,-0.061035,-0.061035
8122777416,0.00294495,0.00770569,-1.00592041,0.366211,-0.061035,-0.061035
8127857333,0.00294495,0.00770569,-1.00592041,0.183105,-0.122070,-0.122070
8132388541,0.00280762,0.00740051,-1.00622559,0.183105,-0.122070,-0.122070
8139981166,0.00280762,0.00740051,-1.00622559,0.366211,0.061035,0.122070
8142552083,0.00236511,0.00863647,-1.00622559,0.366211,0.061035,0.122070
8147657125,0.00236511,0.00863647,-1.00622559,0.305176,0.122070,0.000000
8152727208,0.00187683,0.00814819,-1.00666809,0.305176,0.122070,0.000000
8157793833,0.00187683,0.00814819,-1.00666809,0.183105,0.000000,-0.122070
8162632000,0.00219727,0.00775146,-1.00607300,0.183105,0.000000,-0.122070
8167720083,0.00219727,0.00775146,-1.00607300,0.305176,0.000000,-0.122070
8172781375,0.00061035,0.00837708,-1.00556946,0.305176,0.000000,-0.122070
8179691500,0.00061035,0.00837708,-1.00556946,0.183105,0.122070,-0.061035
8182264833,0.00108337,0.00764465,-1.00616455,0.183105,0.122070,-0.061035
8189905000,0.00108337,0.00764465,-1.00616455,0.122070,-0.122070,-0.122070
8192469041,0.00244141,0.00711060,-1.00674438,0.122070,-0.122070,-0.122070
8200083583,0.00244141,0.00711060,-1.00674438,0.183105,-0.061035,-0.061035
8202662250,0.00323486,0.00717163,-1.00592041,0.183105,-0.061035,-0.061035
8207756625,0.00323486,0.00717163,-1.00592041,0.305176,0.061035,0.000000
