timestamp_ns,accel_x,accel_y,accel_z,gyro_x,gyro_y,gyro_z
92690250,-0.00051880,0.00909424,-1.00427246,0.366211,-0.061035,0.000000
100573416,0.00131226,0.00811768,-1.00759888,0.366211,-0.061035,0.000000
104011375,0.00131226,0.00811768,-1.00759888,0.244141,0.122070,0.000000
109515833,0.00257874,0.00775146,-1.00653076,0.305176,0.061035,-0.061035
117964666,0.00222778,0.00740051,-1.00579834,0.305176,0.000000,-0.061035
129225083,0.00393677,0.00575256,-1.00422668,0.305176,0.000000,-0.183105
135244458,0.00335693,0.00552368,-1.00614929,0.305176,0.000000,-0.183105
137760750,0.00335693,0.00552368,-1.00614929,0.183105,0.000000,-0.183105
145295583,0.00234985,0.00592041,-1.00497437,0.183105,0.000000,-0.183105
147815666,0.00234985,0.00592041,-1.00497437,0.305176,0.183105,-0.122070
155345458,0.00112915,0.00645447,-1.00476074,0.305176,0.183105,-0.122070
157857833,0.00112915,0.00645447,-1.00476074,0.488281,0.122070,-0.183105
165399333,0.00109863,0.00671387,-1.00587463,0.488281,0.122070,-0.183105
167925750,0.00109863,0.00671387,-1.00587463,0.244141,0.122070,-0.122070
175303166,0.00032043,0.00756836,-1.00566101,0.244141,0.122070,-0.122070
177828708,0.00032043,0.00756836,-1.00566101,0.305176,0.061035,0.000000
185378958,0.00053406,0.00903320,-1.00706482,0.305176,0.061035,0.000000
187914125,0.00053406,0.00903320,-1.00706482,0.244141,-0.061035,-0.061035
195290125,0.00000000,0.00933838,-1.00605774,0.244141,-0.061035,-0.061035
197819083,0.00000000,0.00933838,-1.00605774,0.366211,0.122070,-0.122070
205393666,0.00007629,0.00946045,-1.00671387,0.366211,0.122070,-0.122070
207952625,0.00007629,0.00946045,-1.00671387,0.244141,0.122070,-0.061035
215126625,0.00141907,0.01051331,-1.00592041,0.244141,0.122070,-0.061035
217668833,0.00141907,0.01051331,-1.00592041,0.366211,0.061035,-0.122070
225230791,0.00076294,0.01005554,-1.00535583,0.366211,0.061035,-0.122070
227762291,0.00076294,0.01005554,-1.00535583,0.244141,0.000000,-0.122070
235306375,0.00109863,0.00822449,-1.00634766,0.244141,0.000000,-0.122070
237838333,0.00109863,0.00822449,-1.00634766,0.244141,0.122070,-0.061035
245267166,0.00245667,0.00839233,-1.00561523,0.244141,0.122070,-0.061035
247801791,0.00245667,0.00839233,-1.00561523,0.366211,0.061035,0.000000
255417458,0.00254822,0.00732422,-1.00679016,0.366211,0.061035,0.000000
257968708,0.00254822,0.00732422,-1.00679016,0.427246,0.061035,0.000000
265560791,0.00198364,0.00624084,-1.00540161,0.427246,0.061035,0.000000
268097375,0.00198364,0.00624084,-1.00540161,0.427246,0.122070,-0.122070
275654708,0.00320435,0.00553894,-1.00692749,0.427246,0.122070,-0.122070
278093791,0.00320435,0.00553894,-1.00692749,0.366211,0.122070,-0.122070
285672875,0.00297546,0.00616455,-1.00569153,0.366211,0.122070,-0.122070
288206625,0.00297546,0.00616455,-1.00569153,0.366211,0.061035,-0.122070
295577041,0.00140381,0.00686646,-1.00521851,0.366211,0.061035,-0.122070
298096625,0.00140381,0.00686646,-1.00521851,0.183105,0.000000,-0.061035
305656333,0.00119019,0.00726318,-1.00588989,0.183105,0.000000,-0.061035
308185750,0.00119019,0.00726318,-1.00588989,0.305176,0.000000,-0.122070
315744375,0.00151062,0.00773621,-1.00688171,0.305176,0.000000,-0.122070
318265208,0.00151062,0.00773621,-1.00688171,0.366211,0.061035,-0.122070
325437666,0.00164795,0.00848389,-1.00651550,0.366211,0.061035,-0.122070
327501083,0.00164795,0.00848389,-1.00651550,0.305176,0.061035,-0.061035
335057458,0.00070190,0.00825500,-1.00532532,0.305176,0.061035,-0.061035
337578625,0.00070190,0.00825500,-1.00532532,0.122070,-0.061035,-0.122070
345151958,0.00131226,0.00999451,-1.00730896,0.122070,-0.061035,-0.122070
347685916,0.00131226,0.00999451,-1.00730896,0.244141,-0.061035,0.000000
355246125,0.00143433,0.00968933,-1.00778198,0.244141,-0.061035,0.000000
357780708,0.00143433,0.00968933,-1.00778198,0.366211,0.000000,0.000000
365342708,0.00050354,0.00903320,-1.00659180,0.366211,0.000000,0.000000
367859250,0.00050354,0.00903320,-1.00659180,0.305176,0.122070,-0.061035
375415666,0.00051880,0.00846863,-1.00601196,0.305176,0.122070,-0.061035
377954458,0.00051880,0.00846863,-1.00601196,0.366211,0.122070,0.061035
385495208,0.00108337,0.00802612,-1.00521851,0.366211,0.122070,0.061035
388011500,0.00108337,0.00802612,-1.00521851,0.183105,0.061035,-0.061035
395595041,0.00218201,0.00596619,-1.00526428,0.183105,0.061035,-0.061035
398116708,0.00218201,0.00596619,-1.00526428,0.427246,0.122070,0.000000
405852250,0.00218201,0.00708008,-1.00633240,0.427246,0.122070,0.000000
408369791,0.00218201,0.00708008,-1.00633240,0.427246,-0.122070,-0.122070
415802291,0.00230408,0.00625610,-1.00575256,0.427246,-0.122070,-0.122070
418397958,0.00230408,0.00625610,-1.00575256,0.305176,0.122070,-0.061035
426060125,0.00292969,0.00695801,-1.00631714,0.305176,0.122070,-0.061035
428661000,0.00292969,0.00695801,-1.00631714,0.366211,0.122070,-0.122070
436495458,0.00245667,0.00619507,-1.00610352,0.366211,0.122070,-0.122070
439098166,0.00245667,0.00619507,-1.00610352,0.305176,0.183105,-0.244141
446545333,0.00273132,0.00651550,-1.00573730,0.305176,0.183105,-0.244141
449182583,0.00273132,0.00651550,-1.00573730,0.244141,0.061035,-0.061035
456262708,0.00251770,0.00718689,-1.00674438,0.244141,0.061035,-0.061035
458839541,0.00251770,0.00718689,-1.00674438,0.366211,0.061035,-0.122070
466446000,0.00073242,0.00827026,-1.00614929,0.366211,0.061035,-0.122070
469035375,0.00073242,0.00827026,-1.00614929,0.305176,-0.061035,-0.183105
476759375,-0.00082397,0.00852966,-1.00570679,0.305176,-0.061035,-0.183105
479424041,-0.00082397,0.00852966,-1.00570679,0.244141,0.000000,0.000000
486770500,-0.00035095,0.00906372,-1.00689697,0.244141,0.000000,0.000000
489439625,-0.00035095,0.00906372,-1.00689697,0.183105,0.183105,-0.061035
499289416,-0.00045776,0.00878906,-1.00651550,0.244141,0.061035,0.000000
507034833,-0.00032043,0.00868225,-1.00593567,0.366211,0.061035,-0.122070
517718833,0.00061035,0.00935364,-1.00581360,0.122070,0.061035,0.061035
535094333,0.00061035,0.00935364,-1.00581360,0.244141,0.061035,-0.061035
537681500,0.00096130,0.00881958,-1.00563049,0.183105,0.122070,0.000000
537687041,0.00105286,0.00852966,-1.00723267,0.183105,0.122070,0.000000
545246291,0.00347900,0.00769043,-1.00639343,0.183105,0.122070,0.000000
547741625,0.00347900,0.00769043,-1.00639343,0.061035,0.061035,-0.183105
555343166,0.00289917,0.00721741,-1.00553894,0.061035,0.061035,-0.183105
557893125,0.00289917,0.00721741,-1.00553894,0.305176,0.061035,-0.061035
565444916,0.00239563,0.00677490,-1.00598145,0.305176,0.061035,-0.061035
567971583,0.00239563,0.00677490,-1.00598145,0.183105,0.000000,-0.122070
575292541,0.00183105,0.00613403,-1.00657654,0.183105,0.000000,-0.122070
578039083,0.00183105,0.00613403,-1.00657654,0.305176,0.061035,-0.244141
585876125,0.00285339,0.00692749,-1.00585938,0.305176,0.061035,-0.244141
588459083,0.00285339,0.00692749,-1.00585938,0.305176,0.000000,-0.122070
596079791,0.00251770,0.00740051,-1.00616455,0.305176,0.000000,-0.122070
598652125,0.00251770,0.00740051,-1.00616455,0.305176,0.122070,-0.061035
606432833,0.00213623,0.00762939,-1.00680542,0.305176,0.122070,-0.061035
609014708,0.00213623,0.00762939,-1.00680542,0.427246,0.061035,-0.122070
616634833,0.00170898,0.00775146,-1.00637817,0.427246,0.061035,-0.122070
619223416,0.00170898,0.00775146,-1.00637817,0.061035,0.000000,-0.122070
626887625,0.00167847,0.00767517,-1.00563049,0.061035,0.000000,-0.122070
629474750,0.00167847,0.00767517,-1.00563049,0.183105,0.122070,-0.122070
637156458,0.00173950,0.00947571,-1.00521851,0.427246,0.183105,-0.061035
647188958,0.00134277,0.00942993,-1.00531006,0.244141,0.061035,-0.122070
657395750,0.00167847,0.00973511,-1.00558472,0.427246,0.061035,0.061035
664911875,0.00146484,0.00927734,-1.00651550,0.427246,0.061035,0.061035
667471708,0.00146484,0.00927734,-1.00651550,0.244141,0.061035,-0.122070
675107000,0.00157166,0.00836182,-1.00679016,0.244141,0.061035,-0.122070
677674458,0.00157166,0.00836182,-1.00679016,0.366211,0.122070,-0.122070
685274625,0.00115967,0.00865173,-1.00714111,0.366211,0.122070,-0.122070
687842958,0.00115967,0.00865173,-1.00714111,0.366211,0.000000,-0.122070
695456625,0.00221252,0.00746155,-1.00584412,0.366211,0.000000,-0.122070
698000666,0.00221252,0.00746155,-1.00584412,0.305176,0.061035,0.000000
705601916,0.00177002,0.00773621,-1.00517273,0.305176,0.061035,0.000000
708147416,0.00177002,0.00773621,-1.00517273,0.366211,0.000000,0.000000
715779125,0.00190735,0.00654602,-1.00553894,0.366211,0.000000,0.000000
718336291,0.00190735,0.00654602,-1.00553894,0.244141,-0.061035,-0.183105
725930333,0.00215149,0.00691223,-1.00668335,0.244141,-0.061035,-0.183105
728488708,0.00215149,0.00691223,-1.00668335,0.366211,0.061035,0.000000
736110208,0.00187683,0.00784302,-1.00614929,0.366211,0.061035,0.000000
738651416,0.00187683,0.00784302,-1.00614929,0.305176,0.061035,-0.122070
746244166,0.00158691,0.00900269,-1.00570679,0.305176,0.061035,-0.122070
748786833,0.00158691,0.00900269,-1.00570679,0.427246,0.183105,0.000000
756164208,0.00071716,0.00872803,-1.00582886,0.427246,0.183105,0.000000
758712875,0.00071716,0.00872803,-1.00582886,0.183105,0.000000,-0.061035
765914333,0.00170898,0.00836182,-1.00660706,0.183105,0.000000,-0.061035
768455250,0.00170898,0.00836182,-1.00660706,0.305176,0.122070,-0.183105
775759458,0.00143433,0.00915527,-1.00466919,0.305176,0.122070,-0.183105
778330833,0.00143433,0.00915527,-1.00466919,0.427246,0.061035,0.061035
785942166,0.00109863,0.00823975,-1.00607300,0.427246,0.061035,0.061035
788504750,0.00109863,0.00823975,-1.00607300,0.427246,0.183105,0.000000
795902625,0.00183105,0.00794983,-1.00680542,0.427246,0.183105,0.000000
798436750,0.00183105,0.00794983,-1.00680542,0.366211,-0.061035,-0.061035
806033583,0.00129700,0.00740051,-1.00608826,0.366211,-0.061035,-0.061035
808585541,0.00129700,0.00740051,-1.00608826,0.305176,-0.061035,0.061035
816196458,0.00263977,0.00741577,-1.00590515,0.305176,-0.061035,0.061035
818744541,0.00263977,0.00741577,-1.00590515,0.488281,0.061035,-0.122070
826336000,0.00254822,0.00788879,-1.00811768,0.488281,0.061035,-0.122070
828876333,0.00254822,0.00788879,-1.00811768,0.427246,0.183105,0.000000
836346166,0.00166321,0.00814819,-1.00686646,0.427246,0.183105,0.000000
838914625,0.00166321,0.00814819,-1.00686646,0.305176,0.122070,-0.061035
846514666,0.00173950,0.00747681,-1.00695801,0.305176,0.122070,-0.061035
849069583,0.00173950,0.00747681,-1.00695801,0.305176,0.061035,-0.061035
856668708,0.00195312,0.00820923,-1.00613403,0.305176,0.061035,-0.061035
859209541,0.00195312,0.00820923,-1.00613403,0.427246,0.061035,-0.183105
866800541,0.00219727,0.00900269,-1.00614929,0.427246,0.061035,-0.183105
869351791,0.00219727,0.00900269,-1.00614929,0.305176,0.000000,0.000000
876786625,0.00151062,0.00921631,-1.00607300,0.305176,0.000000,0.000000
879333166,0.00151062,0.00921631,-1.00607300,0.366211,0.183105,-0.122070
886455916,0.00010681,0.00804138,-1.00637817,0.366211,0.183105,-0.122070
889003250,0.00010681,0.00804138,-1.00637817,0.366211,0.061035,-0.244141
896603375,0.00097656,0.00875854,-1.00599670,0.366211,0.061035,-0.244141
899146875,0.00097656,0.00875854,-1.00599670,0.244141,0.061035,0.061035
906285666,0.00204468,0.00701904,-1.00663757,0.244141,0.061035,0.061035
908829791,0.00204468,0.00701904,-1.00663757,0.305176,0.061035,-0.122070
916435000,0.00254822,0.00724792,-1.00611877,0.305176,0.061035,-0.122070
918972416,0.00254822,0.00724792,-1.00611877,0.366211,0.122070,-0.183105
926091375,0.00231934,0.00752258,-1.00601196,0.366211,0.122070,-0.183105
928640625,0.00231934,0.00752258,-1.00601196,0.305176,0.122070,-0.061035
936254666,0.00155640,0.00711060,-1.00602722,0.305176,0.122070,-0.061035
938785041,0.00155640,0.00711060,-1.00602722,0.244141,-0.061035,-0.122070
946327166,0.00149536,0.00837708,-1.00648499,0.244141,-0.061035,-0.122070
948848833,0.00149536,0.00837708,-1.00648499,0.366211,0.061035,-0.061035
956077958,0.00073242,0.00834656,-1.00640869,0.366211,0.061035,-0.061035
958593875,0.00073242,0.00834656,-1.00640869,0.366211,0.000000,-0.244141
966121708,-0.00103760,0.00859070,-1.00558472,0.366211,0.000000,-0.244141
968633291,-0.00103760,0.00859070,-1.00558472,0.610352,0.000000,-0.183105
976163416,0.00056458,0.00878906,-1.00578308,0.610352,0.000000,-0.183105
978674458,0.00056458,0.00878906,-1.00578308,0.488281,0.000000,-0.061035
986220375,0.00022888,0.00837708,-1.00625610,0.488281,0.000000,-0.061035
988741041,0.00022888,0.00837708,-1.00625610,0.366211,0.122070,-0.122070
996299541,0.00012207,0.00820923,-1.00610352,0.366211,0.122070,-0.122070
998823291,0.00012207,0.00820923,-1.00610352,0.305176,0.122070,-0.061035
1006074833,0.00053406,0.00794983,-1.00747681,0.305176,0.122070,-0.061035
1008592583,0.00053406,0.00794983,-1.00747681,0.305176,0.122070,0.000000
1016128916,0.00080872,0.00833130,-1.00677490,0.305176,0.122070,0.000000
1018642416,0.00080872,0.00833130,-1.00677490,0.549316,0.061035,-0.122070
1026199625,0.00161743,0.00856018,-1.00578308,0.549316,0.061035,-0.122070
1028716958,0.00161743,0.00856018,-1.00578308,0.183105,0.000000,-0.061035
1036254708,0.00285339,0.00798035,-1.00550842,0.183105,0.000000,-0.061035
1038773875,0.00285339,0.00798035,-1.00550842,0.244141,0.000000,0.000000
1046318875,0.00343323,0.00709534,-1.00544739,0.244141,0.000000,0.000000
1048848375,0.00343323,0.00709534,-1.00544739,0.305176,0.122070,0.000000
1056398375,0.00227356,0.00732422,-1.00599670,0.305176,0.122070,0.000000
1058931583,0.00227356,0.00732422,-1.00599670,0.366211,0.061035,0.000000
1066512833,0.00184631,0.00793457,-1.00662231,0.366211,0.061035,0.000000
1069047500,0.00184631,0.00793457,-1.00662231,0.366211,0.183105,-0.061035
1076635500,0.00161743,0.00827026,-1.00607300,0.366211,0.183105,-0.061035
1079175791,0.00161743,0.00827026,-1.00607300,0.671387,0.122070,-0.122070
1086734333,0.00129700,0.00831604,-1.00541687,0.671387,0.122070,-0.122070
1089272291,0.00129700,0.00831604,-1.00541687,0.488281,0.061035,-0.061035
1096854583,0.00100708,0.00865173,-1.00468445,0.488281,0.061035,-0.061035
1099392000,0.00100708,0.00865173,-1.00468445,0.549316,0.061035,-0.122070
1106993125,0.00076294,0.00871277,-1.00505066,0.549316,0.061035,-0.122070
1109530291,0.00076294,0.00871277,-1.00505066,0.793457,0.122070,0.061035
1117102666,0.00016785,0.00939941,-1.00605774,0.671387,0.000000,-0.061035
1127194666,0.00077820,0.00942993,-1.00601196,0.854492,0.061035,-0.122070
1134871250,0.00167847,0.00904846,-1.00605774,0.854492,0.061035,-0.122070
1137413208,0.00167847,0.00904846,-1.00605774,0.427246,0.000000,-0.061035
1144844041,0.00196838,0.00932312,-1.00781250,0.427246,0.000000,-0.061035
1147375541,0.00196838,0.00932312,-1.00781250,0.549316,0.122070,-0.122070
1154963166,0.00193787,0.00872803,-1.00859070,0.549316,0.122070,-0.122070
1157173625,0.00193787,0.00872803,-1.00859070,0.549316,0.122070,0.000000
1166791708,0.00207520,0.00793457,-1.00514221,0.549316,0.122070,0.000000
1169329791,0.00207520,0.00793457,-1.00514221,0.549316,0.000000,0.000000
1176916500,0.00224304,0.00691223,-1.00611877,0.549316,0.000000,0.000000
1179300166,0.00224304,0.00691223,-1.00611877,0.427246,0.183105,-0.061035
1186739708,0.00296021,0.00593567,-1.00474548,0.427246,0.183105,-0.061035
1189290458,0.00296021,0.00593567,-1.00474548,0.549316,0.061035,0.000000
1196931250,0.00205994,0.00437927,-1.00573730,0.549316,0.061035,0.000000
1199482916,0.00205994,0.00437927,-1.00573730,0.549316,0.061035,-0.183105
1207104000,0.00216675,0.00476074,-1.00669861,0.366211,0.061035,-0.183105
1217246000,0.00242615,0.00398254,-1.00547791,0.549316,0.122070,-0.122070
1224857916,0.00328064,0.00393677,-1.00425720,0.549316,0.122070,-0.122070
1227414583,0.00328064,0.00393677,-1.00425720,0.488281,0.061035,-0.122070
1235025541,0.00317383,0.00538635,-1.00816345,0.488281,0.061035,-0.122070
1237569916,0.00317383,0.00538635,-1.00816345,0.305176,0.061035,-0.122070
1245171041,0.00392151,0.00732422,-1.00857544,0.305176,0.061035,-0.122070
1247719208,0.00392151,0.00732422,-1.00857544,0.488281,0.061035,-0.183105
1255308333,0.00213623,0.00811768,-1.00555420,0.488281,0.061035,-0.183105
1257841791,0.00213623,0.00811768,-1.00555420,0.366211,0.000000,-0.061035
1265417500,0.00137329,0.00929260,-1.00509644,0.366211,0.000000,-0.061035
1267951666,0.00137329,0.00929260,-1.00509644,0.427246,0.061035,-0.061035
1275278041,0.00018311,0.00939941,-1.00616455,0.427246,0.061035,-0.061035
1277815208,0.00018311,0.00939941,-1.00616455,0.305176,0.061035,-0.122070
1284919541,-0.00018311,0.00938416,-1.00619507,0.305176,0.061035,-0.122070
1287459000,-0.00018311,0.00938416,-1.00619507,0.366211,0.183105,-0.061035
1297277791,-0.00013733,0.00971985,-1.00613403,0.366211,0.000000,-0.061035
1304886083,-0.00079346,0.00906372,-1.00801086,0.366211,0.000000,-0.061035
1307442250,-0.00079346,0.00906372,-1.00801086,0.427246,0.061035,0.000000
1314975083,0.00126648,0.00770569,-1.00672913,0.427246,0.061035,0.000000
1317517791,0.00126648,0.00770569,-1.00672913,0.305176,0.000000,-0.061035
1325138416,0.00196838,0.00717163,-1.00624084,0.305176,0.000000,-0.061035
1327196958,0.00196838,0.00717163,-1.00624084,0.244141,0.000000,-0.061035
1337353458,0.00234985,0.00688171,-1.00442505,0.427246,0.061035,-0.061035
1344987041,0.00303650,0.00631714,-1.00448608,0.427246,0.061035,-0.061035
1347538666,0.00303650,0.00631714,-1.00448608,0.305176,-0.061035,0.000000
1355200625,0.00413513,0.00540161,-1.00662231,0.305176,-0.061035,0.000000
1357769916,0.00413513,0.00540161,-1.00662231,0.305176,0.061035,-0.061035
1365377708,0.00379944,0.00450134,-1.00717163,0.305176,0.061035,-0.061035
1367747625,0.00379944,0.00450134,-1.00717163,0.366211,-0.061035,0.061035
1375345708,0.00331116,0.00485229,-1.00558472,0.366211,-0.061035,0.061035
1377887708,0.00331116,0.00485229,-1.00558472,0.366211,0.122070,-0.061035
1385503375,0.00325012,0.00537109,-1.00529480,0.366211,0.122070,-0.061035
1388053833,0.00325012,0.00537109,-1.00529480,0.366211,0.122070,-0.122070
1395641750,0.00234985,0.00592041,-1.00578308,0.366211,0.122070,-0.122070
1398194750,0.00234985,0.00592041,-1.00578308,0.366211,0.122070,-0.061035
1405800833,0.00109863,0.00782776,-1.00605774,0.366211,0.122070,-0.061035
1408348583,0.00109863,0.00782776,-1.00605774,0.305176,0.000000,-0.061035
1415981166,0.00035095,0.00842285,-1.00735474,0.305176,0.000000,-0.061035
1418539500,0.00035095,0.00842285,-1.00735474,0.366211,0.000000,-0.061035
1426141708,-0.00022888,0.00825500,-1.00675964,0.366211,0.000000,-0.061035
1428686416,-0.00022888,0.00825500,-1.00675964,0.366211,0.061035,0.000000
1436299791,-0.00018311,0.00830078,-1.00650024,0.366211,0.061035,0.000000
1438847250,-0.00018311,0.00830078,-1.00650024,0.366211,0.183105,0.000000
1446455875,-0.00003052,0.00840759,-1.00727844,0.366211,0.183105,0.000000
1449002916,-0.00003052,0.00840759,-1.00727844,0.305176,0.000000,-0.183105
1456133541,0.00126648,0.00762939,-1.00645447,0.305176,0.000000,-0.183105
1458666250,0.00126648,0.00762939,-1.00645447,0.244141,-0.122070,-0.122070
1466230750,0.00224304,0.00767517,-1.00659180,0.244141,-0.122070,-0.122070
1468774500,0.00224304,0.00767517,-1.00659180,0.427246,0.122070,-0.122070
1476336833,0.00164795,0.00715637,-1.00627136,0.427246,0.122070,-0.122070
1478868208,0.00164795,0.00715637,-1.00627136,0.366211,0.061035,-0.122070
1486234708,0.00146484,0.00714111,-1.00451660,0.366211,0.061035,-0.122070
1488793708,0.00146484,0.00714111,-1.00451660,0.183105,0.244141,0.000000
1496414250,0.00225830,0.00662231,-1.00721741,0.183105,0.244141,0.000000
1498967208,0.00225830,0.00662231,-1.00721741,0.488281,0.061035,-0.183105
1506111583,0.00189209,0.00784302,-1.00692749,0.488281,0.061035,-0.183105
1508650916,0.00189209,0.00784302,-1.00692749,0.183105,-0.122070,-0.061035
1516250375,0.00155640,0.00697327,-1.00598145,0.183105,-0.122070,-0.061035
1518815875,0.00155640,0.00697327,-1.00598145,0.427246,0.183105,-0.122070
1526433083,0.00152588,0.00663757,-1.00646973,0.427246,0.183105,-0.122070
1528979541,0.00152588,0.00663757,-1.00646973,0.427246,0.122070,-0.122070
1536452458,0.00134277,0.00723267,-1.00547791,0.427246,0.122070,-0.122070
1539000750,0.00134277,0.00723267,-1.00547791,0.183105,0.000000,-0.122070
1546593916,0.00151062,0.00741577,-1.00624084,0.183105,0.000000,-0.122070
1549138791,0.00151062,0.00741577,-1.00624084,0.427246,0.000000,-0.122070
1556343875,0.00149536,0.00782776,-1.00674438,0.427246,0.000000,-0.122070
1558902833,0.00149536,0.00782776,-1.00674438,0.366211,0.000000,0.000000
1566483083,0.00144958,0.00720215,-1.00715637,0.366211,0.000000,0.000000
1569044708,0.00144958,0.00720215,-1.00715637,0.305176,0.000000,-0.122070
1576183416,0.00172424,0.00756836,-1.00593567,0.305176,0.000000,-0.122070
1578737375,0.00172424,0.00756836,-1.00593567,0.244141,0.061035,-0.061035
1586335625,0.00204468,0.00721741,-1.00595093,0.244141,0.061035,-0.061035
1588880125,0.00204468,0.00721741,-1.00595093,0.366211,0.000000,-0.122070
1596480333,0.00234985,0.00709534,-1.00590515,0.366211,0.000000,-0.122070
1599014458,0.00234985,0.00709534,-1.00590515,0.305176,0.061035,-0.122070
1606475375,0.00259399,0.00747681,-1.00643921,0.305176,0.061035,-0.122070
1608770250,0.00259399,0.00747681,-1.00643921,0.427246,0.122070,0.000000
1616370250,0.00289917,0.00677490,-1.00640869,0.427246,0.122070,0.000000
1618913583,0.00289917,0.00677490,-1.00640869,0.305176,-0.061035,-0.061035
1626505666,0.00279236,0.00645447,-1.00697327,0.305176,-0.061035,-0.061035
1629066250,0.00279236,0.00645447,-1.00697327,0.305176,0.061035,-0.061035
1636467958,0.00204468,0.00634766,-1.00720215,0.305176,0.061035,-0.061035
1639028500,0.00204468,0.00634766,-1.00720215,0.366211,0.000000,-0.122070
1646636250,0.00212097,0.00617981,-1.00624084,0.366211,0.000000,-0.122070
1649210083,0.00212097,0.00617981,-1.00624084,0.305176,-0.061035,0.000000
1656791333,0.00157166,0.00682068,-1.00686646,0.305176,-0.061035,0.000000
1659334833,0.00157166,0.00682068,-1.00686646,0.366211,0.061035,-0.183105
1666979916,0.00164795,0.00625610,-1.00753784,0.366211,0.061035,-0.183105
1669697583,0.00164795,0.00625610,-1.00753784,0.427246,0.000000,0.000000
1674823416,0.00180054,0.00712585,-1.00630188,0.427246,0.000000,0.000000
1677393916,0.00180054,0.00712585,-1.00630188,0.366211,0.122070,-0.122070
1686922083,0.00149536,0.00688171,-1.00790405,0.366211,0.122070,-0.122070
1693120291,0.00149536,0.00688171,-1.00790405,0.305176,-0.061035,-0.183105
1695301583,0.00132751,0.00859070,-1.00555420,0.305176,-0.061035,-0.183105
1697779875,0.00132751,0.00859070,-1.00555420,0.366211,0.061035,-0.061035
1705046000,0.00064087,0.00750732,-1.00640869,0.366211,0.061035,-0.061035
1707616208,0.00064087,0.00750732,-1.00640869,0.366211,0.000000,0.000000
1721859375,0.00172424,0.00685120,-1.00537109,0.366211,0.061035,0.061035
1727090666,0.00112915,0.00802612,-1.00718689,0.366211,0.061035,0.061035
1729714625,0.00112915,0.00802612,-1.00718689,0.305176,0.000000,-0.122070
1736994916,0.00183105,0.00779724,-1.00578308,0.305176,0.000000,-0.122070
1739205916,0.00183105,0.00779724,-1.00578308,0.183105,-0.061035,-0.122070
1746817083,0.00199890,0.00651550,-1.00573730,0.183105,-0.061035,-0.122070
1749263500,0.00199890,0.00651550,-1.00573730,0.427246,0.061035,-0.122070
1756844666,0.00086975,0.00762939,-1.00567627,0.427246,0.061035,-0.122070
1759403541,0.00086975,0.00762939,-1.00567627,0.427246,0.061035,-0.183105
1766528125,0.00180054,0.00666809,-1.00555420,0.427246,0.061035,-0.183105
1768786916,0.00180054,0.00666809,-1.00555420,0.366211,0.000000,-0.061035
1776366583,0.00169373,0.00677490,-1.00738525,0.366211,0.000000,-0.061035
1778905250,0.00169373,0.00677490,-1.00738525,0.244141,-0.061035,-0.061035
1786458375,0.00076294,0.00843811,-1.00674438,0.244141,-0.061035,-0.061035
1788984958,0.00076294,0.00843811,-1.00674438,0.244141,0.061035,-0.061035
1796566791,0.00190735,0.00878906,-1.00628662,0.244141,0.061035,-0.061035
1799106625,0.00190735,0.00878906,-1.00628662,0.244141,0.000000,-0.061035
1806472500,0.00257874,0.00807190,-1.00616455,0.244141,0.000000,-0.061035
1809028916,0.00257874,0.00807190,-1.00616455,0.427246,0.122070,-0.122070
1816412791,0.00196838,0.00769043,-1.00581360,0.427246,0.122070,-0.122070
1818977458,0.00196838,0.00769043,-1.00581360,0.366211,0.000000,-0.122070
1825979333,0.00151062,0.00697327,-1.00517273,0.366211,0.000000,-0.122070
1828642333,0.00151062,0.00697327,-1.00517273,0.183105,-0.061035,-0.122070
1836544875,0.00369263,0.00640869,-1.00585938,0.183105,-0.061035,-0.122070
1838684375,0.00369263,0.00640869,-1.00585938,0.305176,0.122070,-0.061035
1846305625,0.00329590,0.00549316,-1.00619507,0.305176,0.122070,-0.061035
1848865958,0.00329590,0.00549316,-1.00619507,0.366211,0.061035,-0.061035
1856510333,0.00224304,0.00596619,-1.00677490,0.366211,0.061035,-0.061035
1859052250,0.00224304,0.00596619,-1.00677490,0.366211,0.000000,0.000000
1866680833,0.00276184,0.00642395,-1.00559998,0.366211,0.000000,0.000000
1869245708,0.00276184,0.00642395,-1.00559998,0.305176,0.183105,-0.122070
1876855333,0.00157166,0.00668335,-1.00627136,0.305176,0.183105,-0.122070
1879440000,0.00157166,0.00668335,-1.00627136,0.305176,0.061035,-0.122070
1887042333,0.00175476,0.00737000,-1.00895691,0.305176,0.061035,-0.122070
1889575291,0.00175476,0.00737000,-1.00895691,0.244141,0.183105,0.000000
1897129833,0.00059509,0.00746155,-1.00791931,0.244141,0.183105,0.000000
1899654708,0.00059509,0.00746155,-1.00791931,0.305176,0.061035,-0.122070
1907286458,0.00157166,0.00827026,-1.00570679,0.427246,0.122070,-0.122070
1914917208,0.00115967,0.00836182,-1.00476074,0.427246,0.122070,-0.122070
1917483416,0.00115967,0.00836182,-1.00476074,0.427246,0.061035,-0.061035
1925087958,-0.00010681,0.00788879,-1.00683594,0.427246,0.061035,-0.061035
1927645666,-0.00010681,0.00788879,-1.00683594,0.244141,0.061035,-0.061035
1934982083,0.00054932,0.00886536,-1.00822449,0.244141,0.061035,-0.061035
1937524250,0.00054932,0.00886536,-1.00822449,0.305176,0.061035,0.000000
1944802541,0.00018311,0.00819397,-1.00688171,0.305176,0.061035,0.000000
1947359541,0.00018311,0.00819397,-1.00688171,0.366211,0.000000,-0.061035
1957352541,0.00054932,0.00683594,-1.00650024,0.366211,0.122070,-0.061035
1964954291,0.00196838,0.00772095,-1.00358582,0.366211,0.122070,-0.061035
1967496875,0.00196838,0.00772095,-1.00358582,0.244141,0.122070,0.000000
1975087708,0.00292969,0.00843811,-1.00891113,0.244141,0.122070,0.000000
1977629500,0.00292969,0.00843811,-1.00891113,0.427246,0.000000,-0.122070
1985259875,0.00309753,0.00810242,-1.00593567,0.427246,0.000000,-0.122070
1987815083,0.00309753,0.00810242,-1.00593567,0.305176,0.122070,-0.061035
1995389291,0.00228882,0.00642395,-1.00558472,0.305176,0.122070,-0.061035
1997933625,0.00228882,0.00642395,-1.00558472,0.244141,0.122070,-0.122070
2005525750,0.00227356,0.00711060,-1.00520325,0.244141,0.122070,-0.122070
2008077708,0.00227356,0.00711060,-1.00520325,0.305176,-0.061035,-0.122070
2015695500,0.00260925,0.00715637,-1.00796509,0.305176,-0.061035,-0.122070
2018302916,0.00260925,0.00715637,-1.00796509,0.427246,0.122070,-0.183105
2025966041,0.00141907,0.00630188,-1.00642395,0.427246,0.122070,-0.183105
2028610625,0.00141907,0.00630188,-1.00642395,0.244141,0.061035,-0.183105
2036490208,0.00173950,0.00630188,-1.00460815,0.244141,0.061035,-0.183105
2039127291,0.00173950,0.00630188,-1.00460815,0.366211,0.061035,-0.061035
2046623375,0.00068665,0.00680542,-1.00660706,0.366211,0.061035,-0.061035
2049244458,0.00068665,0.00680542,-1.00660706,0.305176,0.061035,0.061035
2056877041,0.00123596,0.00611877,-1.00630188,0.305176,0.061035,0.061035
2059431458,0.00123596,0.00611877,-1.00630188,0.244141,0.000000,-0.183105
2066969000,0.00236511,0.00715637,-1.00549316,0.244141,0.000000,-0.183105
2069591416,0.00236511,0.00715637,-1.00549316,0.244141,0.061035,-0.183105
2074869791,0.00209045,0.00753784,-1.00595093,0.244141,0.061035,-0.183105
2077460166,0.00209045,0.00753784,-1.00595093,0.488281,0.000000,0.061035
2084944208,0.00192261,0.00682068,-1.00553894,0.488281,0.000000,0.061035
2087499625,0.00192261,0.00682068,-1.00553894,0.305176,0.122070,-0.061035
2095154958,0.00170898,0.00729370,-1.00708008,0.305176,0.122070,-0.061035
2097706208,0.00170898,0.00729370,-1.00708008,0.366211,0.061035,-0.183105
2105327916,0.00215149,0.00831604,-1.00752258,0.366211,0.061035,-0.183105
2107895791,0.00215149,0.00831604,-1.00752258,0.366211,-0.061035,-0.122070
2115557875,0.00123596,0.00721741,-1.00640869,0.366211,-0.061035,-0.122070
2118132083,0.00123596,0.00721741,-1.00640869,0.244141,0.000000,-0.061035
2125323250,0.00189209,0.00688171,-1.00553894,0.244141,0.000000,-0.061035
2127883291,0.00189209,0.00688171,-1.00553894,0.183105,0.061035,0.000000
2135594416,0.00088501,0.00721741,-1.00820923,0.183105,0.061035,0.000000
2138190958,0.00088501,0.00721741,-1.00820923,0.244141,0.000000,-0.061035
2145814333,0.00135803,0.00698853,-1.00535583,0.244141,0.000000,-0.061035
2148383541,0.00135803,0.00698853,-1.00535583,0.244141,-0.122070,-0.122070
2156014625,0.00067139,0.00685120,-1.00633240,0.244141,-0.122070,-0.122070
2158377916,0.00067139,0.00685120,-1.00633240,0.305176,0.183105,0.000000
2165641416,0.00077820,0.00770569,-1.00657654,0.305176,0.183105,0.000000
2168192916,0.00077820,0.00770569,-1.00657654,0.305176,-0.183105,-0.122070
2175335666,0.00057983,0.00842285,-1.00666809,0.305176,-0.183105,-0.122070
2177892541,0.00057983,0.00842285,-1.00666809,0.183105,-0.122070,-0.061035
2185558083,0.00097656,0.00863647,-1.00532532,0.183105,-0.122070,-0.061035
2188136958,0.00097656,0.00863647,-1.00532532,0.366211,0.122070,0.000000
2195761666,0.00047302,0.00769043,-1.00273132,0.366211,0.122070,0.000000
2198314250,0.00047302,0.00769043,-1.00273132,0.305176,-0.061035,-0.061035
2205811791,0.00207520,0.00733948,-1.00689697,0.305176,-0.061035,-0.061035
2208356583,0.00207520,0.00733948,-1.00689697,0.366211,0.061035,-0.122070
2215966125,0.00334167,0.00740051,-1.00593567,0.366211,0.061035,-0.122070
2218532375,0.00334167,0.00740051,-1.00593567,0.244141,0.122070,-0.122070
2226148541,0.00296021,0.00817871,-1.00495911,0.244141,0.122070,-0.122070
2228720083,0.00296021,0.00817871,-1.00495911,0.366211,0.000000,0.000000
2236148666,0.00282288,0.00592041,-1.00698853,0.366211,0.000000,0.000000
2238755833,0.00282288,0.00592041,-1.00698853,0.305176,0.122070,-0.122070
2246404791,0.00282288,0.00527954,-1.00646973,0.305176,0.122070,-0.122070
2248949708,0.00282288,0.00527954,-1.00646973,0.305176,0.061035,-0.183105
2256135125,0.00192261,0.00572205,-1.00671387,0.305176,0.061035,-0.183105
2258692291,0.00192261,0.00572205,-1.00671387,0.305176,0.000000,-0.183105
2266297458,0.00160217,0.00588989,-1.00671387,0.305176,0.000000,-0.183105
2268849250,0.00160217,0.00588989,-1.00671387,0.122070,0.122070,-0.183105
2276441291,0.00163269,0.00616455,-1.00563049,0.122070,0.122070,-0.183105
2278985791,0.00163269,0.00616455,-1.00563049,0.366211,0.061035,0.000000
2286599083,0.00222778,0.00669861,-1.00558472,0.366211,0.061035,0.000000
2289172958,0.00222778,0.00669861,-1.00558472,0.427246,0.000000,-0.122070
2296782791,0.00245667,0.00741577,-1.00628662,0.427246,0.000000,-0.122070
2299360333,0.00245667,0.00741577,-1.00628662,0.305176,0.000000,-0.183105
2306973041,0.00210571,0.00762939,-1.00656128,0.305176,0.000000,-0.183105
2309533916,0.00210571,0.00762939,-1.00656128,0.183105,0.061035,-0.183105
2317201833,0.00256348,0.00762939,-1.00700378,0.183105,0.061035,-0.183105
2319782833,0.00256348,0.00762939,-1.00700378,0.427246,-0.122070,-0.061035
2324866916,0.00279236,0.00720215,-1.00639343,0.427246,-0.122070,-0.061035
2327415333,0.00279236,0.00720215,-1.00639343,0.366211,0.061035,-0.061035
2335032208,0.00231934,0.00639343,-1.00588989,0.366211,0.061035,-0.061035
2337632458,0.00231934,0.00639343,-1.00588989,0.488281,0.122070,0.061035
2345289041,0.00090027,0.00619507,-1.00459290,0.488281,0.122070,0.061035
2347843708,0.00090027,0.00619507,-1.00459290,0.244141,0.061035,-0.061035
2355463583,0.00122070,0.00665283,-1.00679016,0.244141,0.061035,-0.061035
2358017833,0.00122070,0.00665283,-1.00679016,0.366211,0.122070,0.000000
2365321625,0.00144958,0.00631714,-1.00740051,0.366211,0.122070,0.000000
2367868333,0.00144958,0.00631714,-1.00740051,0.183105,0.061035,0.000000
2375280333,0.00108337,0.00624084,-1.00625610,0.183105,0.061035,0.000000
2377811750,0.00108337,0.00624084,-1.00625610,0.427246,-0.061035,-0.061035
2385405125,0.00212097,0.00735474,-1.00598145,0.427246,-0.061035,-0.061035
2387944416,0.00212097,0.00735474,-1.00598145,0.366211,0.000000,-0.183105
2395542250,0.00270081,0.00756836,-1.00630188,0.366211,0.000000,-0.183105
2398093250,0.00270081,0.00756836,-1.00630188,0.305176,-0.122070,-0.061035
2405702208,0.00169373,0.00793457,-1.00605774,0.305176,-0.122070,-0.061035
2408246166,0.00169373,0.00793457,-1.00605774,0.366211,0.061035,-0.122070
2415847250,0.00132751,0.00735474,-1.00621033,0.366211,0.061035,-0.122070
2418422833,0.00132751,0.00735474,-1.00621033,0.305176,0.000000,-0.122070
2426019250,0.00096130,0.00758362,-1.00654602,0.305176,0.000000,-0.122070
2428557166,0.00096130,0.00758362,-1.00654602,0.305176,-0.061035,-0.061035
2436156916,0.00109863,0.00666809,-1.00709534,0.305176,-0.061035,-0.061035
2438715250,0.00109863,0.00666809,-1.00709534,0.305176,-0.061035,0.000000
2446335000,0.00202942,0.00694275,-1.00456238,0.305176,-0.061035,0.000000
2448877375,0.00202942,0.00694275,-1.00456238,0.183105,0.122070,-0.122070
2456107166,0.00175476,0.00692749,-1.00869751,0.183105,0.122070,-0.122070
2458652541,0.00175476,0.00692749,-1.00869751,0.183105,-0.061035,-0.122070
2466257583,0.00280762,0.00769043,-1.00801086,0.183105,-0.061035,-0.122070
2468827916,0.00280762,0.00769043,-1.00801086,0.305176,0.061035,-0.122070
2476456333,0.00274658,0.00721741,-1.00398254,0.305176,0.061035,-0.122070
2479004750,0.00274658,0.00721741,-1.00398254,0.305176,0.061035,-0.061035
2486154583,0.00210571,0.00590515,-1.00526428,0.305176,0.061035,-0.061035
2488384750,0.00210571,0.00590515,-1.00526428,0.305176,0.000000,0.000000
2496015416,0.00190735,0.00596619,-1.00636292,0.305176,0.000000,0.000000
2498622708,0.00190735,0.00596619,-1.00636292,0.488281,0.122070,-0.122070
2506273125,0.00222778,0.00680542,-1.00668335,0.488281,0.122070,-0.122070
2508846875,0.00222778,0.00680542,-1.00668335,0.183105,0.122070,-0.122070
2516433041,0.00308228,0.00662231,-1.00497437,0.183105,0.122070,-0.122070
2519053625,0.00308228,0.00662231,-1.00497437,0.305176,-0.061035,-0.183105
2526753166,0.00212097,0.00703430,-1.00636292,0.305176,-0.061035,-0.183105
2529377250,0.00212097,0.00703430,-1.00636292,0.366211,0.061035,0.000000
2537005750,0.00238037,0.00740051,-1.00556946,0.366211,0.061035,0.000000
2539596125,0.00238037,0.00740051,-1.00556946,0.305176,0.061035,-0.122070
2547227375,0.00205994,0.00746155,-1.00479126,0.305176,0.061035,-0.122070
2549828083,0.00205994,0.00746155,-1.00479126,0.366211,0.061035,-0.061035
2554931125,0.00134277,0.00729370,-1.00631714,0.366211,0.061035,-0.061035
2560014583,0.00134277,0.00729370,-1.00631714,0.305176,-0.061035,-0.061035
2565102041,0.00167847,0.00781250,-1.00645447,0.305176,-0.061035,-0.061035
2570191875,0.00167847,0.00781250,-1.00645447,0.366211,0.122070,-0.305176
2575310416,0.00173950,0.00730896,-1.00617981,0.366211,0.122070,-0.305176
2580151041,0.00173950,0.00730896,-1.00617981,0.244141,-0.061035,-0.183105
2585250875,0.00178528,0.00711060,-1.00546265,0.244141,-0.061035,-0.183105
2587849083,0.00178528,0.00711060,-1.00546265,0.244141,0.000000,-0.061035
2595472333,0.00143433,0.00726318,-1.00395203,0.244141,0.000000,-0.061035
2598045958,0.00143433,0.00726318,-1.00395203,0.366211,-0.122070,-0.122070
2605409000,0.00221252,0.00669861,-1.00624084,0.366211,-0.122070,-0.122070
2607982791,0.00221252,0.00669861,-1.00624084,0.183105,0.244141,-0.061035
2615596541,0.00192261,0.00674438,-1.00524902,0.183105,0.244141,-0.061035
2618159333,0.00192261,0.00674438,-1.00524902,0.366211,0.183105,-0.061035
2625753666,0.00129700,0.00668335,-1.01089478,0.366211,0.183105,-0.061035
2628303083,0.00129700,0.00668335,-1.01089478,0.244141,0.122070,-0.061035
2635918458,0.00183105,0.00735474,-1.00633240,0.244141,0.122070,-0.061035
2638476750,0.00183105,0.00735474,-1.00633240,0.244141,0.000000,-0.122070
2646112625,0.00212097,0.00769043,-1.00671387,0.244141,0.000000,-0.122070
2648669625,0.00212097,0.00769043,-1.00671387,0.244141,-0.122070,-0.061035
2656142583,0.00317383,0.00689697,-1.00419617,0.244141,-0.122070,-0.061035
2658701708,0.00317383,0.00689697,-1.00419617,0.427246,-0.183105,-0.122070
2666299958,0.00204468,0.00624084,-1.00700378,0.427246,-0.183105,-0.122070
2668845875,0.00204468,0.00624084,-1.00700378,0.305176,0.061035,0.000000
2676449166,0.00202942,0.00671387,-1.00840759,0.305176,0.061035,0.000000
2678996916,0.00202942,0.00671387,-1.00840759,0.305176,-0.061035,-0.122070
2686191750,0.00196838,0.00650024,-1.00650024,0.305176,-0.061035,-0.122070
2688777708,0.00196838,0.00650024,-1.00650024,0.427246,0.000000,-0.061035
2696415791,0.00170898,0.00730896,-1.00541687,0.427246,0.000000,-0.061035
2698971166,0.00170898,0.00730896,-1.00541687,0.366211,0.122070,-0.183105
2706155166,0.00309753,0.00782776,-1.00590515,0.366211,0.122070,-0.183105
2708732666,0.00309753,0.00782776,-1.00590515,0.488281,0.061035,-0.061035
2716359208,0.00186157,0.00651550,-1.00688171,0.488281,0.061035,-0.061035
2718937083,0.00186157,0.00651550,-1.00688171,0.305176,0.000000,-0.183105
2726587208,0.00123596,0.00730896,-1.00601196,0.305176,0.000000,-0.183105
2729171416,0.00123596,0.00730896,-1.00601196,0.366211,0.000000,0.061035
2736476708,0.00065613,0.00750732,-1.00643921,0.366211,0.000000,0.061035
2739029208,0.00065613,0.00750732,-1.00643921,0.366211,0.000000,-0.061035
2746648250,0.00070190,0.00764465,-1.00650024,0.366211,0.000000,-0.061035
2749196416,0.00070190,0.00764465,-1.00650024,0.244141,-0.122070,-0.061035
2756476250,0.00146484,0.00782776,-1.00682068,0.244141,-0.122070,-0.061035
2759025000,0.00146484,0.00782776,-1.00682068,0.305176,0.061035,-0.122070
2766640708,0.00148010,0.00720215,-1.00553894,0.305176,0.061035,-0.122070
2769196375,0.00148010,0.00720215,-1.00553894,0.305176,0.000000,0.061035
2776830708,0.00111389,0.00654602,-1.00570679,0.305176,0.000000,0.061035
2779412958,0.00111389,0.00654602,-1.00570679,0.061035,0.000000,-0.122070
2787023291,0.00215149,0.00741577,-1.00668335,0.061035,0.000000,-0.122070
2789570791,0.00215149,0.00741577,-1.00668335,0.305176,0.061035,-0.061035
2797201166,0.00212097,0.00729370,-1.00587463,0.305176,0.061035,-0.061035
2799759291,0.00212097,0.00729370,-1.00587463,0.305176,0.183105,0.000000
2807407208,0.00177002,0.00662231,-1.00630188,0.305176,0.183105,0.000000
2809953000,0.00177002,0.00662231,-1.00630188,0.305176,-0.061035,-0.061035
2817321333,0.00236511,0.00718689,-1.00680542,0.305176,-0.061035,-0.061035
2819881208,0.00236511,0.00718689,-1.00680542,0.305176,0.061035,0.000000
2824975541,0.00158691,0.00654602,-1.00473022,0.305176,0.061035,0.000000
2830055416,0.00158691,0.00654602,-1.00473022,0.488281,0.061035,0.000000
2835139583,0.00131226,0.00781250,-1.00706482,0.488281,0.061035,0.000000
2840224541,0.00131226,0.00781250,-1.00706482,0.305176,0.122070,-0.122070
2845318875,0.00096130,0.00729370,-1.00761414,0.305176,0.122070,-0.122070
2847869583,0.00096130,0.00729370,-1.00761414,0.244141,0.000000,-0.122070
2855447750,0.00038147,0.00660706,-1.00604248,0.244141,0.000000,-0.122070
2860361083,0.00038147,0.00660706,-1.00604248,0.427246,0.000000,-0.183105
2865416250,0.00180054,0.00796509,-1.00592041,0.427246,0.000000,-0.183105
2867945916,0.00180054,0.00796509,-1.00592041,0.427246,0.061035,-0.122070
2875547625,0.00099182,0.00807190,-1.00633240,0.427246,0.061035,-0.122070
2878090500,0.00099182,0.00807190,-1.00633240,0.305176,0.000000,-0.061035
2885705791,0.00112915,0.00746155,-1.00704956,0.305176,0.000000,-0.061035
2888266666,0.00112915,0.00746155,-1.00704956,0.305176,0.000000,-0.122070
2895434291,0.00167847,0.00761414,-1.00662231,0.305176,0.000000,-0.122070
2897979458,0.00167847,0.00761414,-1.00662231,0.244141,0.122070,-0.061035
2905573958,0.00251770,0.00730896,-1.00679016,0.244141,0.122070,-0.061035
2908114083,0.00251770,0.00730896,-1.00679016,0.488281,0.122070,0.000000
2915721750,0.00262451,0.00756836,-1.00616455,0.488281,0.122070,0.000000
2918303083,0.00262451,0.00756836,-1.00616455,0.366211,0.000000,-0.122070
2925906875,0.00201416,0.00657654,-1.00622559,0.366211,0.000000,-0.122070
2928444166,0.00201416,0.00657654,-1.00622559,0.305176,0.061035,-0.244141
2935618958,0.00329590,0.00630188,-1.00628662,0.305176,0.061035,-0.244141
2938163125,0.00329590,0.00630188,-1.00628662,0.305176,-0.122070,-0.122070
2945805166,0.00202942,0.00682068,-1.00650024,0.305176,-0.122070,-0.122070
2948347416,0.00202942,0.00682068,-1.00650024,0.244141,0.000000,-0.122070
2955967166,0.00199890,0.00691223,-1.00639343,0.244141,0.000000,-0.122070
2958517250,0.00199890,0.00691223,-1.00639343,0.366211,0.000000,-0.183105
2966117250,0.00256348,0.00674438,-1.00584412,0.366211,0.000000,-0.183105
2968656000,0.00256348,0.00674438,-1.00584412,0.427246,0.183105,-0.061035
2976290708,0.00221252,0.00730896,-1.00680542,0.427246,0.183105,-0.061035
2978545875,0.00221252,0.00730896,-1.00680542,0.427246,-0.122070,-0.061035
2986161916,0.00148010,0.00782776,-1.00576782,0.427246,-0.122070,-0.061035
2988728208,0.00148010,0.00782776,-1.00576782,0.244141,0.061035,-0.183105
2996332583,0.00172424,0.00750732,-1.00640869,0.244141,0.061035,-0.183105
2998468333,0.00172424,0.00750732,-1.00640869,0.305176,0.122070,-0.061035
3006108958,0.00004578,0.00764465,-1.00627136,0.305176,0.122070,-0.061035
3008647333,0.00004578,0.00764465,-1.00627136,0.366211,0.122070,-0.061035
3016233458,0.00083923,0.00808716,-1.00605774,0.366211,0.122070,-0.061035
3018790083,0.00083923,0.00808716,-1.00605774,0.366211,0.061035,-0.122070
3026384166,0.00228882,0.00831604,-1.00573730,0.366211,0.061035,-0.122070
3028916500,0.00228882,0.00831604,-1.00573730,0.305176,0.122070,0.000000
3036241125,0.00199890,0.00758362,-1.00711060,0.305176,0.122070,0.000000
3038798041,0.00199890,0.00758362,-1.00711060,0.305176,0.000000,-0.122070
3046426708,0.00181580,0.00675964,-1.00737000,0.305176,0.000000,-0.122070
3048979083,0.00181580,0.00675964,-1.00737000,0.427246,-0.061035,-0.183105
3056612000,0.00169373,0.00675964,-1.00581360,0.427246,-0.061035,-0.183105
3059139791,0.00169373,0.00675964,-1.00581360,0.305176,0.061035,-0.122070
3066720708,0.00276184,0.00688171,-1.00573730,0.305176,0.061035,-0.122070
3069261625,0.00276184,0.00688171,-1.00573730,0.366211,0.061035,-0.061035
3076859375,0.00343323,0.00708008,-1.00761414,0.366211,0.061035,-0.061035
3079408125,0.00343323,0.00708008,-1.00761414,0.427246,0.122070,-0.122070
3086917291,0.00347900,0.00660706,-1.00654602,0.427246,0.122070,-0.122070
3089470500,0.00347900,0.00660706,-1.00654602,0.305176,0.000000,-0.061035
3097072958,0.00209045,0.00646973,-1.00502014,0.305176,0.000000,-0.061035
3099631125,0.00209045,0.00646973,-1.00502014,0.244141,0.061035,-0.122070
3107099000,0.00280762,0.00581360,-1.00567627,0.244141,0.061035,-0.122070
3109643958,0.00280762,0.00581360,-1.00567627,0.366211,0.122070,-0.122070
3117152125,0.00224304,0.00604248,-1.00637817,0.366211,0.122070,-0.122070
3119698666,0.00224304,0.00604248,-1.00637817,0.244141,0.000000,-0.122070
3127310458,0.00224304,0.00650024,-1.00572205,0.244141,0.000000,-0.122070
3129887625,0.00224304,0.00650024,-1.00572205,0.244141,0.061035,-0.061035
3135020041,0.00228882,0.00732422,-1.00592041,0.244141,0.061035,-0.061035
3140130958,0.00228882,0.00732422,-1.00592041,0.305176,0.061035,-0.061035
3145306958,0.00216675,0.00717163,-1.00572205,0.305176,0.061035,-0.061035
3150544541,0.00216675,0.00717163,-1.00572205,0.305176,0.000000,-0.183105
3155705250,0.00218201,0.00729370,-1.00692749,0.305176,0.000000,-0.183105
3158369041,0.00218201,0.00729370,-1.00692749,0.366211,0.061035,-0.061035
3165820750,0.00248718,0.00782776,-1.00598145,0.366211,0.061035,-0.061035
3168372750,0.00248718,0.00782776,-1.00598145,0.366211,0.000000,-0.183105
3176072333,0.00331116,0.00715637,-1.00695801,0.366211,0.000000,-0.183105
3178675250,0.00331116,0.00715637,-1.00695801,0.305176,0.061035,-0.061035
3185832916,0.00323486,0.00726318,-1.00570679,0.305176,0.061035,-0.061035
3188399958,0.00323486,0.00726318,-1.00570679,0.427246,0.000000,0.061035
3196080625,0.00241089,0.00775146,-1.00540161,0.427246,0.000000,0.061035
3198638750,0.00241089,0.00775146,-1.00540161,0.305176,0.061035,0.000000
3206095833,0.00212097,0.00721741,-1.00601196,0.305176,0.061035,0.000000
3208635208,0.00212097,0.00721741,-1.00601196,0.427246,0.122070,-0.061035
3215878041,0.00169373,0.00689697,-1.00643921,0.427246,0.122070,-0.061035
3218439166,0.00169373,0.00689697,-1.00643921,0.122070,0.122070,-0.122070
3225616791,0.00207520,0.00593567,-1.00579834,0.122070,0.122070,-0.122070
3228160083,0.00207520,0.00593567,-1.00579834,0.427246,0.061035,-0.122070
3235480083,0.00259399,0.00672913,-1.00622559,0.427246,0.061035,-0.122070
3238026708,0.00259399,0.00672913,-1.00622559,0.122070,0.000000,-0.183105
3245624375,0.00244141,0.00807190,-1.00619507,0.122070,0.000000,-0.183105
3248168916,0.00244141,0.00807190,-1.00619507,0.244141,0.000000,0.000000
3255782416,0.00260925,0.00671387,-1.00672913,0.244141,0.000000,0.000000
3258327458,0.00260925,0.00671387,-1.00672913,0.305176,0.000000,-0.122070
3265938250,0.00186157,0.00654602,-1.00753784,0.305176,0.000000,-0.122070
3268498958,0.00186157,0.00654602,-1.00753784,0.366211,-0.061035,-0.122070
3276133041,0.00204468,0.00645447,-1.00735474,0.366211,-0.061035,-0.122070
3278708083,0.00204468,0.00645447,-1.00735474,0.305176,0.061035,-0.122070
3286175333,0.00233459,0.00683594,-1.00514221,0.305176,0.061035,-0.122070
3288747750,0.00233459,0.00683594,-1.00514221,0.305176,0.000000,-0.183105
3295876333,0.00164795,0.00732422,-1.00596619,0.305176,0.000000,-0.183105
3298423000,0.00164795,0.00732422,-1.00596619,0.305176,0.000000,-0.122070
3306024375,0.00209045,0.00712585,-1.00631714,0.305176,0.000000,-0.122070
3308573416,0.00209045,0.00712585,-1.00631714,0.244141,0.122070,-0.122070
3316180791,0.00276184,0.00703430,-1.00624084,0.244141,0.122070,-0.122070
3318782541,0.00276184,0.00703430,-1.00624084,0.427246,0.122070,0.000000
3326386875,0.00170898,0.00782776,-1.00625610,0.427246,0.122070,0.000000
3328932583,0.00170898,0.00782776,-1.00625610,0.366211,0.000000,-0.061035
3336145666,0.00247192,0.00779724,-1.00712585,0.366211,0.000000,-0.061035
3338690375,0.00247192,0.00779724,-1.00712585,0.244141,0.061035,0.000000
3346302541,0.00260925,0.00720215,-1.00608826,0.244141,0.061035,0.000000
3348863541,0.00260925,0.00720215,-1.00608826,0.366211,0.061035,-0.122070
3356464666,0.00248718,0.00674438,-1.00500488,0.366211,0.061035,-0.122070
3359011000,0.00248718,0.00674438,-1.00500488,0.488281,0.122070,-0.183105
3366606166,0.00180054,0.00749207,-1.00625610,0.488281,0.122070,-0.183105
3369145125,0.00180054,0.00749207,-1.00625610,0.305176,0.000000,-0.061035
3376774750,0.00180054,0.00762939,-1.00646973,0.305176,0.000000,-0.061035
3378950250,0.00180054,0.00762939,-1.00646973,0.366211,0.183105,0.000000
3386158125,0.00164795,0.00720215,-1.00634766,0.366211,0.183105,0.000000
3388725541,0.00164795,0.00720215,-1.00634766,0.305176,0.061035,-0.061035
3396333000,0.00279236,0.00724792,-1.00625610,0.305176,0.061035,-0.061035
3398424500,0.00279236,0.00724792,-1.00625610,0.305176,0.000000,-0.061035
3406021791,0.00238037,0.00712585,-1.00735474,0.305176,0.000000,-0.061035
3408561416,0.00238037,0.00712585,-1.00735474,0.427246,0.122070,0.061035
3416172166,0.00180054,0.00697327,-1.00659180,0.427246,0.122070,0.061035
3418732083,0.00180054,0.00697327,-1.00659180,0.305176,-0.061035,-0.061035
3425932541,0.00207520,0.00619507,-1.00585938,0.305176,-0.061035,-0.061035
3428498375,0.00207520,0.00619507,-1.00585938,0.366211,0.061035,-0.122070
3436118833,0.00120544,0.00738525,-1.00639343,0.366211,0.061035,-0.122070
3438663791,0.00120544,0.00738525,-1.00639343,0.366211,0.183105,0.000000
3446274541,0.00189209,0.00770569,-1.00538635,0.366211,0.183105,0.000000
3448824166,0.00189209,0.00770569,-1.00538635,0.427246,0.061035,-0.183105
3456113000,0.00210571,0.00747681,-1.00588989,0.427246,0.061035,-0.183105
3458656875,0.00210571,0.00747681,-1.00588989,0.427246,0.061035,-0.061035
3466260291,0.00102234,0.00791931,-1.00627136,0.427246,0.061035,-0.061035
3468817833,0.00102234,0.00791931,-1.00627136,0.366211,0.244141,-0.061035
3476426375,0.00187683,0.00724792,-1.00578308,0.366211,0.244141,-0.061035
3478976708,0.00187683,0.00724792,-1.00578308,0.366211,0.061035,-0.061035
3486129416,0.00140381,0.00659180,-1.00608826,0.366211,0.061035,-0.061035
3488673583,0.00140381,0.00659180,-1.00608826,0.427246,0.122070,-0.122070
3496336541,0.00105286,0.00775146,-1.00611877,0.427246,0.122070,-0.122070
3498881250,0.00105286,0.00775146,-1.00611877,0.183105,0.000000,-0.122070
3506120750,0.00276184,0.00779724,-1.00526428,0.183105,0.000000,-0.122070
3508666791,0.00276184,0.00779724,-1.00526428,0.366211,0.244141,0.061035
3516299083,0.00323486,0.00740051,-1.00572205,0.366211,0.244141,0.061035
3518861958,0.00323486,0.00740051,-1.00572205,0.244141,0.000000,-0.061035
3526478916,0.00209045,0.00689697,-1.00677490,0.244141,0.000000,-0.061035
3529028583,0.00209045,0.00689697,-1.00677490,0.244141,-0.061035,-0.061035
3536500250,0.00254822,0.00679016,-1.00601196,0.244141,-0.061035,-0.061035
3539055625,0.00254822,0.00679016,-1.00601196,0.305176,0.000000,0.000000
3546659000,0.00216675,0.00637817,-1.00564575,0.305176,0.000000,0.000000
3549207208,0.00216675,0.00637817,-1.00564575,0.366211,0.000000,-0.122070
3556800250,0.00213623,0.00733948,-1.00585938,0.366211,0.000000,-0.122070
3559344000,0.00213623,0.00733948,-1.00585938,0.366211,-0.061035,-0.122070
3566967000,0.00221252,0.00784302,-1.00674438,0.366211,-0.061035,-0.122070
3569522166,0.00221252,0.00784302,-1.00674438,0.427246,0.061035,-0.183105
3577110083,0.00204468,0.00759888,-1.00555420,0.427246,0.061035,-0.183105
3579431000,0.00204468,0.00759888,-1.00555420,0.366211,0.000000,-0.061035
3586845500,0.00053406,0.00759888,-1.00619507,0.366211,0.000000,-0.061035
3589446333,0.00053406,0.00759888,-1.00619507,0.305176,0.183105,0.061035
3597138125,0.00196838,0.00726318,-1.00543213,0.305176,0.183105,0.061035
3599741041,0.00196838,0.00726318,-1.00543213,0.183105,0.122070,-0.061035
3607480541,0.00303650,0.00715637,-1.00630188,0.183105,0.122070,-0.061035
3610092750,0.00303650,0.00715637,-1.00630188,0.366211,0.061035,-0.061035
3617537125,0.00242615,0.00706482,-1.00634766,0.366211,0.061035,-0.061035
3620122708,0.00242615,0.00706482,-1.00634766,0.305176,0.244141,-0.183105
3625205500,0.00102234,0.00694275,-1.00601196,0.305176,0.244141,-0.183105
3630304791,0.00102234,0.00694275,-1.00601196,0.366211,-0.061035,-0.061035
3635411541,0.00201416,0.00733948,-1.00607300,0.366211,-0.061035,-0.061035
3637964708,0.00201416,0.00733948,-1.00607300,0.244141,0.000000,0.000000
3645591041,0.00097656,0.00729370,-1.00569153,0.244141,0.000000,0.000000
3648163166,0.00097656,0.00729370,-1.00569153,0.366211,0.000000,-0.061035
3655665791,0.00125122,0.00675964,-1.00633240,0.366211,0.000000,-0.061035
3658211625,0.00125122,0.00675964,-1.00633240,0.244141,-0.061035,-0.122070
3665814458,0.00286865,0.00659180,-1.00535583,0.244141,-0.061035,-0.122070
3668365416,0.00286865,0.00659180,-1.00535583,0.244141,-0.061035,-0.061035
3675738041,0.00221252,0.00697327,-1.00465393,0.244141,-0.061035,-0.061035
3678293958,0.00221252,0.00697327,-1.00465393,0.244141,0.000000,0.000000
3685887750,0.00170898,0.00695801,-1.00645447,0.244141,0.000000,0.000000
3688449625,0.00170898,0.00695801,-1.00645447,0.244141,-0.061035,-0.122070
3695665375,0.00166321,0.00665283,-1.00584412,0.244141,-0.061035,-0.122070
3698209000,0.00166321,0.00665283,-1.00584412,0.244141,0.061035,-0.122070
3705816166,0.00247192,0.00732422,-1.00656128,0.244141,0.061035,-0.122070
3708060500,0.00247192,0.00732422,-1.00656128,0.427246,0.000000,-0.183105
3715680375,0.00202942,0.00801086,-1.00605774,0.427246,0.000000,-0.183105
3718229666,0.00202942,0.00801086,-1.00605774,0.244141,0.183105,-0.244141
3725339708,0.00216675,0.00714111,-1.00665283,0.244141,0.183105,-0.244141
3727881833,0.00216675,0.00714111,-1.00665283,0.305176,0.122070,-0.061035
3736820041,0.00210571,0.00784302,-1.00691223,0.305176,0.122070,-0.061035
3738878583,0.00210571,0.00784302,-1.00691223,0.183105,0.061035,-0.122070
3746476583,0.00190735,0.00733948,-1.00762939,0.183105,0.061035,-0.122070
3749027416,0.00190735,0.00733948,-1.00762939,0.427246,0.061035,-0.122070
3756648208,0.00227356,0.00714111,-1.00566101,0.427246,0.061035,-0.122070
3759192750,0.00227356,0.00714111,-1.00566101,0.183105,0.061035,-0.244141
3766851083,0.00219727,0.00691223,-1.00682068,0.183105,0.061035,-0.244141
3769403208,0.00219727,0.00691223,-1.00682068,0.366211,0.000000,-0.122070
3776413333,0.00245667,0.00712585,-1.00639343,0.366211,0.000000,-0.122070
3778976000,0.00245667,0.00712585,-1.00639343,0.305176,0.061035,-0.183105
3786163625,0.00215149,0.00697327,-1.00607300,0.305176,0.061035,-0.183105
3788733500,0.00215149,0.00697327,-1.00607300,0.305176,0.000000,-0.061035
3796339708,0.00204468,0.00756836,-1.00689697,0.305176,0.000000,-0.061035
3798903375,0.00204468,0.00756836,-1.00689697,0.183105,0.000000,-0.061035
3806530583,0.00277710,0.00657654,-1.00640869,0.183105,0.000000,-0.061035
3809089833,0.00277710,0.00657654,-1.00640869,0.305176,-0.183105,-0.122070
3816206875,0.00227356,0.00740051,-1.00634766,0.305176,-0.183105,-0.122070
3818785250,0.00227356,0.00740051,-1.00634766,0.427246,0.061035,-0.122070
3826041833,0.00238037,0.00717163,-1.00523376,0.427246,0.061035,-0.122070
3828632708,0.00238037,0.00717163,-1.00523376,0.427246,0.000000,0.061035
3836375916,0.00192261,0.00677490,-1.00613403,0.427246,0.000000,0.061035
3838968333,0.00192261,0.00677490,-1.00613403,0.183105,0.061035,-0.061035
3846781166,0.00079346,0.00726318,-1.00708008,0.183105,0.061035,-0.061035
3849142166,0.00079346,0.00726318,-1.00708008,0.366211,0.000000,-0.122070
3856830541,0.00154114,0.00701904,-1.00660706,0.366211,0.000000,-0.122070
3859419333,0.00154114,0.00701904,-1.00660706,0.305176,0.183105,-0.061035
3867056375,0.00199890,0.00669861,-1.00566101,0.305176,0.183105,-0.061035
3869615416,0.00199890,0.00669861,-1.00566101,0.244141,-0.061035,-0.183105
3877216000,0.00154114,0.00738525,-1.00605774,0.244141,-0.061035,-0.183105
3879781666,0.00154114,0.00738525,-1.00605774,0.244141,0.061035,-0.244141
3887307625,0.00173950,0.00756836,-1.00541687,0.244141,0.061035,-0.244141
3889737416,0.00173950,0.00756836,-1.00541687,0.244141,0.000000,-0.122070
3897422583,0.00157166,0.00727844,-1.00587463,0.244141,0.000000,-0.122070
3900076666,0.00157166,0.00727844,-1.00587463,0.427246,0.122070,-0.061035
3905243708,0.00196838,0.00724792,-1.00695801,0.427246,0.122070,-0.061035
3907829791,0.00196838,0.00724792,-1.00695801,0.366211,0.183105,0.000000
3915480208,0.00183105,0.00732422,-1.00556946,0.366211,0.183105,0.000000
3918086208,0.00183105,0.00732422,-1.00556946,0.305176,0.061035,0.000000
3925490416,0.00178528,0.00756836,-1.00540161,0.305176,0.061035,0.000000
3928052583,0.00178528,0.00756836,-1.00540161,0.366211,-0.061035,-0.122070
3935749541,0.00143433,0.00776672,-1.00610352,0.366211,-0.061035,-0.122070
3938361958,0.00143433,0.00776672,-1.00610352,0.305176,0.000000,-0.061035
3945913375,0.00155640,0.00683594,-1.00590515,0.305176,0.000000,-0.061035
3948509000,0.00155640,0.00683594,-1.00590515,0.244141,0.000000,-0.061035
3956164000,0.00250244,0.00695801,-1.00659180,0.244141,0.000000,-0.061035
3958719500,0.00250244,0.00695801,-1.00659180,0.366211,0.061035,-0.122070
3966430208,0.00230408,0.00743103,-1.00534058,0.366211,0.061035,-0.122070
3969017583,0.00230408,0.00743103,-1.00534058,0.427246,0.000000,0.000000
3976676500,0.00303650,0.00781250,-1.00552368,0.427246,0.000000,0.000000
3979256583,0.00303650,0.00781250,-1.00552368,0.366211,0.122070,-0.122070
3986915750,0.00256348,0.00724792,-1.00546265,0.366211,0.122070,-0.122070
3989597833,0.00256348,0.00724792,-1.00546265,0.244141,-0.061035,-0.122070
3997291166,0.00129700,0.00672913,-1.00660706,0.244141,-0.061035,-0.122070
3999901208,0.00129700,0.00672913,-1.00660706,0.183105,0.122070,-0.183105
4007572041,0.00129700,0.00721741,-1.00598145,0.183105,0.122070,-0.183105
4010129916,0.00129700,0.00721741,-1.00598145,0.305176,0.061035,-0.061035
4015275000,0.00213623,0.00732422,-1.00654602,0.305176,0.061035,-0.061035
4017859250,0.00213623,0.00732422,-1.00654602,0.183105,-0.061035,0.000000
4025384125,0.00210571,0.00706482,-1.00668335,0.183105,-0.061035,0.000000
4027950958,0.00210571,0.00706482,-1.00668335,0.183105,-0.061035,-0.122070
4035593333,0.00080872,0.00762939,-1.00672913,0.183105,-0.061035,-0.122070
4038190041,0.00080872,0.00762939,-1.00672913,0.366211,0.000000,-0.183105
4045831458,0.00076294,0.00749207,-1.00526428,0.366211,0.000000,-0.183105
4048417916,0.00076294,0.00749207,-1.00526428,0.183105,-0.061035,-0.122070
4056038791,0.00193787,0.00675964,-1.00585938,0.183105,-0.061035,-0.122070
4058591000,0.00193787,0.00675964,-1.00585938,0.305176,0.061035,-0.122070
4066216375,0.00225830,0.00714111,-1.00546265,0.305176,0.061035,-0.122070
4068847166,0.00225830,0.00714111,-1.00546265,0.305176,0.061035,-0.244141
4076549416,0.00262451,0.00659180,-1.00634766,0.305176,0.061035,-0.244141
4079112333,0.00262451,0.00659180,-1.00634766,0.427246,0.000000,-0.061035
4086493541,0.00199890,0.00718689,-1.00592041,0.427246,0.000000,-0.061035
4089095000,0.00199890,0.00718689,-1.00592041,0.366211,0.000000,-0.122070
4096742916,0.00177002,0.00753784,-1.00656128,0.366211,0.000000,-0.122070
4099354583,0.00177002,0.00753784,-1.00656128,0.244141,-0.061035,-0.061035
4107020833,0.00230408,0.00737000,-1.00485229,0.244141,-0.061035,-0.061035
4109587500,0.00230408,0.00737000,-1.00485229,0.366211,0.000000,-0.061035
4116986791,0.00245667,0.00596619,-1.00573730,0.366211,0.000000,-0.061035
4119663541,0.00245667,0.00596619,-1.00573730,0.305176,0.122070,-0.183105
4127310333,0.00227356,0.00698853,-1.00650024,0.305176,0.122070,-0.183105
4129870875,0.00227356,0.00698853,-1.00650024,0.427246,0.061035,-0.061035
4137366250,0.00198364,0.00692749,-1.00706482,0.427246,0.061035,-0.061035
4139920416,0.00198364,0.00692749,-1.00706482,0.366211,0.000000,-0.122070
4147534125,0.00241089,0.00611877,-1.00521851,0.366211,0.000000,-0.122070
4150109541,0.00241089,0.00611877,-1.00521851,0.244141,-0.061035,-0.183105
4155210541,0.00195312,0.00685120,-1.00573730,0.244141,-0.061035,-0.183105
4157814208,0.00195312,0.00685120,-1.00573730,0.305176,0.061035,-0.183105
4165443916,0.00302124,0.00755310,-1.00625610,0.305176,0.061035,-0.183105
4168029000,0.00302124,0.00755310,-1.00625610,0.305176,0.061035,0.061035
4175321500,0.00325012,0.00660706,-1.00634766,0.305176,0.061035,0.061035
4177871125,0.00325012,0.00660706,-1.00634766,0.366211,0.122070,0.000000
4185516958,0.00251770,0.00758362,-1.00559998,0.366211,0.122070,0.000000
4188146291,0.00251770,0.00758362,-1.00559998,0.244141,0.061035,0.000000
4195743208,0.00137329,0.00764465,-1.00648499,0.244141,0.061035,0.000000
4198316958,0.00137329,0.00764465,-1.00648499,0.305176,0.122070,0.061035
4206043708,0.00195312,0.00762939,-1.00642395,0.305176,0.122070,0.061035
4208615541,0.00195312,0.00762939,-1.00642395,0.305176,0.000000,-0.061035
4215860375,0.00138855,0.00704956,-1.00650024,0.305176,0.000000,-0.061035
4218496875,0.00138855,0.00704956,-1.00650024,0.488281,0.183105,-0.122070
4226190708,0.00157166,0.00755310,-1.00688171,0.488281,0.183105,-0.122070
4228795958,0.00157166,0.00755310,-1.00688171,0.183105,0.061035,-0.183105
4236413666,0.00192261,0.00669861,-1.00617981,0.183105,0.061035,-0.183105
4239005750,0.00192261,0.00669861,-1.00617981,0.427246,0.061035,-0.061035
4246621958,0.00288391,0.00741577,-1.00585938,0.427246,0.061035,-0.061035
4249183416,0.00288391,0.00741577,-1.00585938,0.427246,0.061035,-0.061035
4256776250,0.00227356,0.00675964,-1.00617981,0.427246,0.061035,-0.061035
4259321666,0.00227356,0.00675964,-1.00617981,0.244141,0.000000,-0.061035
4266940291,0.00274658,0.00688171,-1.00546265,0.244141,0.000000,-0.061035
4269493333,0.00274658,0.00688171,-1.00546265,0.244141,0.061035,-0.061035
4277132166,0.00289917,0.00767517,-1.00633240,0.244141,0.061035,-0.061035
4279703916,0.00289917,0.00767517,-1.00633240,0.305176,0.183105,-0.061035
4287397541,0.00296021,0.00695801,-1.00526428,0.305176,0.183105,-0.061035
4289981291,0.00296021,0.00695801,-1.00526428,0.427246,-0.061035,-0.122070
4297607208,0.00340271,0.00706482,-1.00578308,0.427246,-0.061035,-0.122070
4300185916,0.00340271,0.00706482,-1.00578308,0.366211,0.122070,-0.122070
4305296416,0.00157166,0.00697327,-1.00668335,0.366211,0.122070,-0.122070
4307888166,0.00157166,0.00697327,-1.00668335,0.488281,0.061035,-0.122070
4315551708,0.00251770,0.00709534,-1.00592041,0.488281,0.061035,-0.122070
4318127333,0.00251770,0.00709534,-1.00592041,0.305176,0.000000,-0.122070
4325773583,0.00210571,0.00733948,-1.00570679,0.305176,0.000000,-0.122070
4328353875,0.00210571,0.00733948,-1.00570679,0.366211,0.000000,-0.183105
4336054708,0.00202942,0.00668335,-1.00622559,0.366211,0.000000,-0.183105
4338700458,0.00202942,0.00668335,-1.00622559,0.366211,0.061035,0.000000
4346365416,0.00259399,0.00711060,-1.00646973,0.366211,0.061035,0.000000
4348951833,0.00259399,0.00711060,-1.00646973,0.305176,0.061035,-0.183105
4356597666,0.00260925,0.00775146,-1.00578308,0.305176,0.061035,-0.183105
4359148666,0.00260925,0.00775146,-1.00578308,0.244141,-0.061035,0.000000
4366833916,0.00225830,0.00726318,-1.00575256,0.244141,-0.061035,0.000000
4369420208,0.00225830,0.00726318,-1.00575256,0.366211,0.122070,-0.061035
4377057916,0.00202942,0.00711060,-1.00616455,0.366211,0.122070,-0.061035
4379652416,0.00202942,0.00711060,-1.00616455,0.366211,0.061035,-0.061035
4386919708,0.00192261,0.00677490,-1.00613403,0.366211,0.061035,-0.061035
4389531958,0.00192261,0.00677490,-1.00613403,0.122070,0.000000,-0.061035
4397226750,0.00236511,0.00669861,-1.00605774,0.122070,0.000000,-0.061035
4399804541,0.00236511,0.00669861,-1.00605774,0.366211,0.000000,-0.183105
4407450791,0.00270081,0.00685120,-1.00596619,0.366211,0.000000,-0.183105
4410029875,0.00270081,0.00685120,-1.00596619,0.244141,-0.061035,-0.061035
4417883625,0.00267029,0.00662231,-1.00614929,0.305176,-0.061035,-0.061035
4425586958,0.00273132,0.00642395,-1.00682068,0.305176,-0.061035,-0.061035
4428158083,0.00273132,0.00642395,-1.00682068,0.366211,0.061035,-0.122070
4435795666,0.00244141,0.00680542,-1.00631714,0.366211,0.061035,-0.122070
4438373125,0.00244141,0.00680542,-1.00631714,0.305176,0.122070,-0.061035
4446009250,0.00236511,0.00749207,-1.00634766,0.305176,0.122070,-0.061035
4448578833,0.00236511,0.00749207,-1.00634766,0.305176,0.000000,-0.061035
4456105791,0.00143433,0.00767517,-1.00628662,0.305176,0.000000,-0.061035
4458561958,0.00143433,0.00767517,-1.00628662,0.183105,-0.061035,0.061035
4466181833,0.00164795,0.00839233,-1.00642395,0.183105,-0.061035,0.061035
4468477500,0.00164795,0.00839233,-1.00642395,0.305176,0.061035,-0.061035
4476127958,0.00253296,0.00810242,-1.00610352,0.305176,0.061035,-0.061035
4478716416,0.00253296,0.00810242,-1.00610352,0.305176,0.061035,-0.061035
4486448166,0.00224304,0.00773621,-1.00666809,0.305176,0.061035,-0.061035
4489046875,0.00224304,0.00773621,-1.00666809,0.366211,0.061035,0.000000
4496659625,0.00177002,0.00740051,-1.00611877,0.366211,0.061035,0.000000
4499231291,0.00177002,0.00740051,-1.00611877,0.305176,-0.061035,-0.183105
4506877625,0.00184631,0.00689697,-1.00694275,0.305176,-0.061035,-0.183105
4509440583,0.00184631,0.00689697,-1.00694275,0.427246,0.061035,-0.061035
4517111541,0.00262451,0.00711060,-1.00653076,0.427246,0.061035,-0.061035
4519710125,0.00262451,0.00711060,-1.00653076,0.366211,0.122070,-0.061035
4527173166,0.00294495,0.00679016,-1.00691223,0.366211,0.122070,-0.061035
4529734416,0.00294495,0.00679016,-1.00691223,0.305176,0.000000,-0.061035
4537402208,0.00343323,0.00651550,-1.00604248,0.305176,0.000000,-0.061035
4539957750,0.00343323,0.00651550,-1.00604248,0.305176,-0.061035,-0.183105
4547411708,0.00221252,0.00646973,-1.00633240,0.305176,-0.061035,-0.183105
4549997333,0.00221252,0.00646973,-1.00633240,0.366211,0.122070,0.000000
4557598125,0.00233459,0.00657654,-1.00599670,0.366211,0.122070,0.000000
4560139875,0.00233459,0.00657654,-1.00599670,0.366211,-0.061035,-0.183105
4565274375,0.00233459,0.00602722,-1.00581360,0.366211,-0.061035,-0.183105
4567845833,0.00233459,0.00602722,-1.00581360,0.244141,0.122070,-0.061035
4575464875,0.00209045,0.00657654,-1.00552368,0.244141,0.122070,-0.061035
4578034791,0.00209045,0.00657654,-1.00552368,0.366211,0.000000,0.000000
4585678958,0.00265503,0.00694275,-1.00512695,0.366211,0.000000,0.000000
4588257166,0.00265503,0.00694275,-1.00512695,0.427246,0.061035,0.000000
4595871041,0.00117493,0.00596619,-1.00520325,0.427246,0.061035,0.000000
4598451375,0.00117493,0.00596619,-1.00520325,0.244141,0.000000,-0.061035
4605833333,0.00125122,0.00729370,-1.00637817,0.244141,0.000000,-0.061035
4608419250,0.00125122,0.00729370,-1.00637817,0.305176,0.000000,0.000000
4616078875,0.00135803,0.00717163,-1.00593567,0.305176,0.000000,0.000000
4618658166,0.00135803,0.00717163,-1.00593567,0.244141,-0.122070,-0.122070
4626357958,0.00161743,0.00654602,-1.00656128,0.244141,-0.122070,-0.122070
4628975000,0.00161743,0.00654602,-1.00656128,0.305176,0.061035,0.000000
4636725500,0.00289917,0.00718689,-1.00601196,0.305176,0.061035,0.000000
4639341041,0.00289917,0.00718689,-1.00601196,0.244141,0.061035,0.000000
4646964125,0.00228882,0.00698853,-1.00741577,0.244141,0.061035,0.000000
4649540750,0.00228882,0.00698853,-1.00741577,0.244141,0.122070,0.061035
4657151583,0.00280762,0.00794983,-1.00498962,0.244141,0.122070,0.061035
4659697458,0.00280762,0.00794983,-1.00498962,0.366211,0.061035,-0.061035
4667331333,0.00241089,0.00733948,-1.00601196,0.366211,0.061035,-0.061035
4669956666,0.00241089,0.00733948,-1.00601196,0.427246,0.000000,-0.122070
4677625458,0.00242615,0.00741577,-1.00657654,0.427246,0.000000,-0.122070
4680225750,0.00242615,0.00741577,-1.00657654,0.366211,0.000000,-0.122070
4685362125,0.00241089,0.00704956,-1.00651550,0.366211,0.000000,-0.122070
4687948833,0.00241089,0.00704956,-1.00651550,0.305176,0.061035,-0.061035
4695587166,0.00196838,0.00607300,-1.00668335,0.305176,0.061035,-0.061035
4698148541,0.00196838,0.00607300,-1.00668335,0.427246,-0.122070,-0.183105
4705847916,0.00163269,0.00650024,-1.00614929,0.427246,-0.122070,-0.183105
4708417208,0.00163269,0.00650024,-1.00614929,0.305176,0.122070,-0.183105
4716050625,0.00228882,0.00752258,-1.00642395,0.305176,0.122070,-0.183105
4718627416,0.00228882,0.00752258,-1.00642395,0.427246,0.122070,0.000000
4726287333,0.00296021,0.00746155,-1.00587463,0.427246,0.122070,0.000000
4728938000,0.00296021,0.00746155,-1.00587463,0.366211,0.061035,0.000000
4736726458,0.00253296,0.00674438,-1.00512695,0.366211,0.061035,0.000000
4739348875,0.00253296,0.00674438,-1.00512695,0.244141,0.000000,-0.122070
4746991541,0.00248718,0.00730896,-1.00628662,0.244141,0.000000,-0.122070
4749568000,0.00248718,0.00730896,-1.00628662,0.305176,0.000000,-0.183105
4757191416,0.00260925,0.00909424,-1.00588989,0.305176,0.000000,-0.183105
4759738833,0.00260925,0.00909424,-1.00588989,0.244141,0.122070,-0.122070
4766939416,0.00238037,0.00842285,-1.00648499,0.244141,0.122070,-0.122070
4769412958,0.00238037,0.00842285,-1.00648499,0.305176,0.000000,-0.061035
4777078416,0.00172424,0.00685120,-1.00601196,0.305176,0.000000,-0.061035
4779646208,0.00172424,0.00685120,-1.00601196,0.366211,0.061035,-0.061035
4787077125,0.00239563,0.00704956,-1.00602722,0.366211,0.061035,-0.061035
4789619041,0.00239563,0.00704956,-1.00602722,0.244141,0.061035,0.000000
4796948916,0.00187683,0.00804138,-1.00604248,0.244141,0.061035,0.000000
4799510125,0.00187683,0.00804138,-1.00604248,0.427246,-0.061035,0.000000
4807163208,0.00183105,0.00695801,-1.00662231,0.427246,-0.061035,0.000000
4809732583,0.00183105,0.00695801,-1.00662231,0.366211,0.061035,0.061035
4816746708,0.00192261,0.00714111,-1.00695801,0.366211,0.061035,0.061035
4819357541,0.00192261,0.00714111,-1.00695801,0.305176,0.000000,-0.183105
4827009083,0.00270081,0.00769043,-1.00593567,0.305176,0.000000,-0.183105
4829618125,0.00270081,0.00769043,-1.00593567,0.305176,0.061035,0.000000
4836937833,0.00210571,0.00756836,-1.00621033,0.305176,0.061035,0.000000
4839564833,0.00210571,0.00756836,-1.00621033,0.366211,0.122070,0.000000
4847244541,0.00239563,0.00711060,-1.00646973,0.366211,0.122070,0.000000
4849823750,0.00239563,0.00711060,-1.00646973,0.183105,-0.061035,-0.183105
4857469458,0.00163269,0.00679016,-1.00712585,0.183105,-0.061035,-0.183105
4860047083,0.00163269,0.00679016,-1.00712585,0.244141,-0.061035,-0.061035
4867748250,0.00265503,0.00675964,-1.00743103,0.244141,-0.061035,-0.061035
4870402500,0.00265503,0.00675964,-1.00743103,0.427246,0.061035,-0.122070
4875307666,0.00158691,0.00654602,-1.00704956,0.427246,0.061035,-0.122070
4880446958,0.00158691,0.00654602,-1.00704956,0.305176,0.122070,-0.061035
4885584083,0.00222778,0.00807190,-1.00588989,0.305176,0.122070,-0.061035
4888152041,0.00222778,0.00807190,-1.00588989,0.366211,0.122070,-0.061035
4895786166,0.00291443,0.00810242,-1.00637817,0.366211,0.122070,-0.061035
4898382916,0.00291443,0.00810242,-1.00637817,0.122070,0.000000,-0.183105
4906143666,0.00158691,0.00679016,-1.00611877,0.122070,0.000000,-0.183105
4908749666,0.00158691,0.00679016,-1.00611877,0.305176,0.000000,0.000000
4916474791,0.00172424,0.00767517,-1.00531006,0.305176,0.000000,0.000000
4919087583,0.00172424,0.00767517,-1.00531006,0.366211,0.000000,-0.183105
4926765875,0.00320435,0.00709534,-1.00547791,0.366211,0.000000,-0.183105
4929344041,0.00320435,0.00709534,-1.00547791,0.244141,0.061035,-0.061035
4936668250,0.00222778,0.00718689,-1.00532532,0.244141,0.061035,-0.061035
4939247750,0.00222778,0.00718689,-1.00532532,0.427246,0.061035,-0.122070
4946903166,0.00199890,0.00769043,-1.00625610,0.427246,0.061035,-0.122070
4949480583,0.00199890,0.00769043,-1.00625610,0.366211,0.061035,0.000000
4957142375,0.00192261,0.00744629,-1.00619507,0.366211,0.061035,0.000000
4959722500,0.00192261,0.00744629,-1.00619507,0.305176,0.061035,-0.122070
4967419500,0.00180054,0.00746155,-1.00630188,0.305176,0.061035,-0.122070
4970012208,0.00180054,0.00746155,-1.00630188,0.244141,0.061035,-0.122070
4977748958,0.00215149,0.00617981,-1.00677490,0.244141,0.061035,-0.122070
4980348875,0.00215149,0.00617981,-1.00677490,0.366211,0.061035,-0.061035
4985497416,0.00283813,0.00740051,-1.00633240,0.366211,0.061035,-0.061035
4988145916,0.00283813,0.00740051,-1.00633240,0.244141,0.000000,-0.244141
4995531625,0.00294495,0.00650024,-1.00765991,0.244141,0.000000,-0.244141
4998074458,0.00294495,0.00650024,-1.00765991,0.427246,0.061035,-0.061035
5008159041,0.00234985,0.00785828,-1.00546265,0.183105,0.000000,-0.122070
5018258291,0.00102234,0.00805664,-1.00653076,0.305176,0.122070,-0.061035
5025812458,0.00177002,0.00823975,-1.00604248,0.305176,0.122070,-0.061035
5028328791,0.00177002,0.00823975,-1.00604248,0.244141,0.061035,-0.061035
5035881458,0.00138855,0.00730896,-1.00643921,0.244141,0.061035,-0.061035
5038408083,0.00138855,0.00730896,-1.00643921,0.183105,0.000000,-0.183105
5045959958,0.00151062,0.00761414,-1.00617981,0.183105,0.000000,-0.183105
5048496250,0.00151062,0.00761414,-1.00617981,0.366211,0.244141,-0.183105
5056068583,0.00192261,0.00650024,-1.00648499,0.366211,0.244141,-0.183105
5058599500,0.00192261,0.00650024,-1.00648499,0.244141,-0.061035,-0.122070
5066149250,0.00167847,0.00679016,-1.00605774,0.244141,-0.061035,-0.122070
5068668333,0.00167847,0.00679016,-1.00605774,0.488281,0.122070,0.000000
5076221666,0.00181580,0.00701904,-1.00593567,0.488281,0.122070,0.000000
5078738666,0.00181580,0.00701904,-1.00593567,0.244141,0.000000,0.000000
5085917666,0.00247192,0.00686646,-1.00599670,0.244141,0.000000,0.000000
5088441500,0.00247192,0.00686646,-1.00599670,0.244141,0.122070,0.061035
5098244166,0.00160217,0.00709534,-1.00648499,0.366211,0.000000,-0.122070
5108360333,0.00233459,0.00747681,-1.00657654,0.366211,-0.061035,-0.122070
5115899041,0.00195312,0.00738525,-1.00639343,0.366211,-0.061035,-0.122070
5118320750,0.00195312,0.00738525,-1.00639343,0.488281,0.122070,0.000000
5128040250,0.00152588,0.00672913,-1.00549316,0.305176,0.000000,-0.122070
5138104708,0.00167847,0.00619507,-1.00683594,0.488281,0.122070,-0.061035
5148223708,0.00212097,0.00715637,-1.00682068,0.244141,0.183105,-0.061035
5158338666,0.00137329,0.00709534,-1.00679016,0.244141,0.000000,0.061035
5165884833,0.00175476,0.00718689,-1.00613403,0.244141,0.000000,0.061035
5168423375,0.00175476,0.00718689,-1.00613403,0.244141,0.000000,-0.122070
5175991083,0.00234985,0.00669861,-1.00611877,0.244141,0.000000,-0.122070
5178526750,0.00234985,0.00669861,-1.00611877,0.244141,0.000000,-0.122070
5186096916,0.00205994,0.00643921,-1.00534058,0.244141,0.000000,-0.122070
5188691583,0.00205994,0.00643921,-1.00534058,0.244141,0.061035,-0.061035
5196303291,0.00254822,0.00750732,-1.00567627,0.244141,0.061035,-0.061035
5198779791,0.00254822,0.00750732,-1.00567627,0.366211,0.122070,-0.061035
5206376791,0.00244141,0.00802612,-1.00573730,0.366211,0.122070,-0.061035
5208600166,0.00244141,0.00802612,-1.00573730,0.366211,0.244141,-0.061035
5216179875,0.00138855,0.00708008,-1.00614929,0.366211,0.244141,-0.061035
5218681208,0.00138855,0.00708008,-1.00614929,0.244141,0.000000,-0.061035
5226068708,0.00276184,0.00669861,-1.00592041,0.244141,0.000000,-0.061035
5228561625,0.00276184,0.00669861,-1.00592041,0.366211,0.061035,-0.061035
5236267208,0.00129700,0.00753784,-1.00604248,0.366211,0.061035,-0.061035
5238857166,0.00129700,0.00753784,-1.00604248,0.305176,0.000000,-0.061035
5246496250,0.00163269,0.00688171,-1.00689697,0.305176,0.000000,-0.061035
5249056958,0.00163269,0.00688171,-1.00689697,0.427246,0.122070,0.000000
5256653000,0.00282288,0.00772095,-1.00659180,0.427246,0.122070,0.000000
5259183750,0.00282288,0.00772095,-1.00659180,0.244141,-0.061035,-0.061035
5266795625,0.00248718,0.00799561,-1.00672913,0.244141,-0.061035,-0.061035
5269364333,0.00248718,0.00799561,-1.00672913,0.366211,0.061035,-0.061035
5276981833,0.00297546,0.00689697,-1.00541687,0.366211,0.061035,-0.061035
5279532416,0.00297546,0.00689697,-1.00541687,0.305176,-0.061035,-0.122070
5287154541,0.00195312,0.00668335,-1.00588989,0.305176,-0.061035,-0.122070
5289699333,0.00195312,0.00668335,-1.00588989,0.244141,0.061035,0.000000
5297303791,0.00224304,0.00711060,-1.00668335,0.244141,0.061035,0.000000
5299861291,0.00224304,0.00711060,-1.00668335,0.366211,0.061035,-0.122070
5307494375,0.00292969,0.00704956,-1.00576782,0.366211,0.061035,-0.122070
5310034416,0.00292969,0.00704956,-1.00576782,0.366211,0.122070,0.061035
5316943500,0.00263977,0.00744629,-1.00611877,0.366211,0.122070,0.061035
5319497083,0.00263977,0.00744629,-1.00611877,0.366211,-0.061035,-0.122070
5327084416,0.00209045,0.00686646,-1.00595093,0.366211,-0.061035,-0.122070
5329381750,0.00209045,0.00686646,-1.00595093,0.244141,0.122070,-0.122070
5336980916,0.00216675,0.00732422,-1.00617981,0.244141,0.122070,-0.122070
5339530583,0.00216675,0.00732422,-1.00617981,0.488281,0.000000,0.000000
5347138708,0.00212097,0.00755310,-1.00645447,0.488281,0.000000,0.000000
5349691583,0.00212097,0.00755310,-1.00645447,0.305176,0.183105,-0.122070
5357286583,0.00274658,0.00633240,-1.00668335,0.305176,0.183105,-0.122070
5359837958,0.00274658,0.00633240,-1.00668335,0.305176,0.000000,-0.122070
5367468291,0.00328064,0.00672913,-1.00625610,0.305176,0.000000,-0.122070
5369582041,0.00328064,0.00672913,-1.00625610,0.427246,0.061035,-0.122070
5376900791,0.00105286,0.00781250,-1.00686646,0.427246,0.061035,-0.122070
5379453000,0.00105286,0.00781250,-1.00686646,0.305176,0.061035,0.000000
5387046750,0.00122070,0.00732422,-1.00708008,0.305176,0.061035,0.000000
5389571833,0.00122070,0.00732422,-1.00708008,0.305176,0.000000,-0.122070
5397171041,0.00242615,0.00691223,-1.00610352,0.305176,0.000000,-0.122070
5399697958,0.00242615,0.00691223,-1.00610352,0.122070,0.061035,0.000000
5407291625,0.00184631,0.00688171,-1.00643921,0.122070,0.061035,0.000000
5409823791,0.00184631,0.00688171,-1.00643921,0.183105,0.122070,-0.122070
5417413916,0.00233459,0.00701904,-1.00578308,0.183105,0.122070,-0.122070
5419965833,0.00233459,0.00701904,-1.00578308,0.366211,0.061035,-0.061035
5427584583,0.00263977,0.00637817,-1.00592041,0.366211,0.061035,-0.061035
5429966291,0.00263977,0.00637817,-1.00592041,0.366211,0.000000,-0.061035
5437655333,0.00267029,0.00706482,-1.00552368,0.366211,0.000000,-0.061035
5440211500,0.00267029,0.00706482,-1.00552368,0.366211,0.000000,-0.122070
5447786041,0.00248718,0.00701904,-1.00639343,0.366211,0.000000,-0.122070
5450407541,0.00248718,0.00701904,-1.00639343,0.305176,0.000000,-0.061035
5458046166,0.00282288,0.00738525,-1.00593567,0.183105,-0.061035,-0.122070
5468199625,0.00224304,0.00775146,-1.00631714,0.366211,0.183105,-0.061035
5475820000,0.00262451,0.00737000,-1.00608826,0.366211,0.183105,-0.061035
5478390166,0.00262451,0.00737000,-1.00608826,0.305176,-0.061035,0.000000
5488267875,0.00155640,0.00706482,-1.00605774,0.244141,-0.061035,-0.183105
5495893416,0.00166321,0.00808716,-1.00631714,0.244141,-0.061035,-0.183105
5498450041,0.00166321,0.00808716,-1.00631714,0.305176,0.061035,-0.061035
5506061958,0.00189209,0.00700378,-1.00663757,0.305176,0.061035,-0.061035
5508623500,0.00189209,0.00700378,-1.00663757,0.244141,0.061035,-0.122070
5515962708,0.00254822,0.00711060,-1.00590515,0.244141,0.061035,-0.122070
5518532666,0.00254822,0.00711060,-1.00590515,0.244141,0.000000,-0.061035
5526175833,0.00270081,0.00744629,-1.00663757,0.244141,0.000000,-0.061035
5528734000,0.00270081,0.00744629,-1.00663757,0.244141,-0.061035,-0.061035
5536080208,0.00205994,0.00662231,-1.00555420,0.244141,-0.061035,-0.061035
5538633958,0.00205994,0.00662231,-1.00555420,0.366211,-0.122070,-0.061035
5546247416,0.00279236,0.00663757,-1.00552368,0.366211,-0.122070,-0.061035
5548793500,0.00279236,0.00663757,-1.00552368,0.183105,0.122070,-0.061035
5556090250,0.00253296,0.00737000,-1.00502014,0.183105,0.122070,-0.061035
5558637166,0.00253296,0.00737000,-1.00502014,0.305176,0.000000,0.061035
5566248041,0.00227356,0.00601196,-1.00587463,0.305176,0.000000,0.061035
5568803875,0.00227356,0.00601196,-1.00587463,0.305176,0.000000,-0.061035
5576406291,0.00274658,0.00740051,-1.00634766,0.305176,0.000000,-0.061035
5578966583,0.00274658,0.00740051,-1.00634766,0.061035,0.122070,-0.183105
5586555291,0.00256348,0.00704956,-1.00657654,0.061035,0.122070,-0.183105
5589113000,0.00256348,0.00704956,-1.00657654,0.244141,0.000000,-0.061035
5596772166,0.00262451,0.00765991,-1.00573730,0.244141,0.000000,-0.061035
5599319416,0.00262451,0.00765991,-1.00573730,0.244141,0.061035,0.000000
5606910041,0.00120544,0.00747681,-1.00550842,0.244141,0.061035,0.000000
5609467208,0.00120544,0.00747681,-1.00550842,0.305176,0.000000,-0.061035
5616961458,0.00228882,0.00773621,-1.00663757,0.305176,0.000000,-0.061035
5619543583,0.00228882,0.00773621,-1.00663757,0.183105,0.000000,-0.183105
5627151333,0.00277710,0.00781250,-1.00672913,0.183105,0.000000,-0.183105
5629263458,0.00277710,0.00781250,-1.00672913,0.305176,-0.061035,-0.122070
5636855958,0.00212097,0.00694275,-1.00659180,0.305176,-0.061035,-0.122070
5639419791,0.00212097,0.00694275,-1.00659180,0.305176,-0.061035,-0.122070
5647034666,0.00205994,0.00758362,-1.00537109,0.305176,-0.061035,-0.122070
5649584000,0.00205994,0.00758362,-1.00537109,0.244141,0.000000,-0.122070
5657176833,0.00178528,0.00759888,-1.00523376,0.244141,0.000000,-0.122070
5659732208,0.00178528,0.00759888,-1.00523376,0.305176,-0.061035,-0.061035
5667334875,0.00221252,0.00653076,-1.00639343,0.305176,-0.061035,-0.061035
5669700750,0.00221252,0.00653076,-1.00639343,0.427246,0.000000,-0.122070
5677313333,0.00248718,0.00683594,-1.00595093,0.427246,0.000000,-0.122070
5679862750,0.00248718,0.00683594,-1.00595093,0.244141,-0.061035,0.000000
5687538625,0.00225830,0.00714111,-1.00628662,0.244141,-0.061035,0.000000
5690093500,0.00225830,0.00714111,-1.00628662,0.366211,0.000000,-0.061035
5697682458,0.00205994,0.00819397,-1.00740051,0.366211,0.000000,-0.061035
5700225375,0.00205994,0.00819397,-1.00740051,0.488281,0.122070,-0.183105
5707823791,0.00274658,0.00708008,-1.00714111,0.488281,0.122070,-0.183105
5710386625,0.00274658,0.00708008,-1.00714111,0.488281,-0.061035,-0.061035
5718049833,0.00241089,0.00625610,-1.00646973,0.427246,0.000000,0.000000
5728198750,0.00248718,0.00671387,-1.00659180,0.366211,0.000000,-0.061035
5735843875,0.00270081,0.00708008,-1.00650024,0.366211,0.000000,-0.061035
5738328000,0.00270081,0.00708008,-1.00650024,0.366211,0.061035,-0.122070
5745950000,0.00285339,0.00772095,-1.00566101,0.366211,0.061035,-0.122070
5748515625,0.00285339,0.00772095,-1.00566101,0.305176,0.061035,-0.122070
5756086416,0.00250244,0.00657654,-1.00485229,0.305176,0.061035,-0.122070
5758627916,0.00250244,0.00657654,-1.00485229,0.305176,0.122070,-0.061035
5766211416,0.00253296,0.00721741,-1.00508118,0.305176,0.122070,-0.061035
5768750375,0.00253296,0.00721741,-1.00508118,0.427246,-0.061035,-0.061035
5776341833,0.00196838,0.00680542,-1.00701904,0.427246,-0.061035,-0.061035
5778878125,0.00196838,0.00680542,-1.00701904,0.366211,0.183105,0.061035
5786485625,0.00233459,0.00640869,-1.00695801,0.366211,0.183105,0.061035
5789031791,0.00233459,0.00640869,-1.00695801,0.305176,0.000000,-0.061035
5796656083,0.00282288,0.00708008,-1.00650024,0.305176,0.000000,-0.061035
5799241833,0.00282288,0.00708008,-1.00650024,0.305176,0.122070,0.000000
5806834833,0.00186157,0.00737000,-1.00643921,0.305176,0.122070,0.000000
5809372958,0.00186157,0.00737000,-1.00643921,0.183105,0.122070,0.000000
5816987125,0.00245667,0.00717163,-1.00582886,0.183105,0.122070,0.000000
5819539416,0.00245667,0.00717163,-1.00582886,0.305176,0.000000,-0.061035
5827143083,0.00244141,0.00706482,-1.00569153,0.305176,0.000000,-0.061035
5829680791,0.00244141,0.00706482,-1.00569153,0.366211,0.183105,0.061035
5837268250,0.00160217,0.00744629,-1.00604248,0.366211,0.183105,0.061035
5839813416,0.00160217,0.00744629,-1.00604248,0.244141,-0.061035,-0.122070
5847405708,0.00173950,0.00688171,-1.00708008,0.244141,-0.061035,-0.122070
5849938916,0.00173950,0.00688171,-1.00708008,0.244141,0.122070,-0.122070
5857474291,0.00241089,0.00721741,-1.00613403,0.244141,0.122070,-0.122070
5860010083,0.00241089,0.00721741,-1.00613403,0.366211,-0.061035,-0.183105
5867584833,0.00193787,0.00715637,-1.00672913,0.366211,-0.061035,-0.183105
5870135875,0.00193787,0.00715637,-1.00672913,0.305176,0.122070,-0.122070
5877298000,0.00083923,0.00730896,-1.00627136,0.305176,0.122070,-0.122070
5879837708,0.00083923,0.00730896,-1.00627136,0.427246,0.000000,-0.183105
5887434833,0.00189209,0.00675964,-1.00605774,0.427246,0.000000,-0.183105
5889982916,0.00189209,0.00675964,-1.00605774,0.366211,0.000000,-0.061035
5897245500,0.00228882,0.00648499,-1.00541687,0.366211,0.000000,-0.061035
5899791750,0.00228882,0.00648499,-1.00541687,0.183105,0.000000,-0.122070
5907385250,0.00196838,0.00682068,-1.00605774,0.183105,0.000000,-0.122070
5909935958,0.00196838,0.00682068,-1.00605774,0.427246,0.061035,-0.122070
5917637875,0.00198364,0.00845337,-1.00692749,0.427246,0.061035,-0.122070
5920231250,0.00198364,0.00845337,-1.00692749,0.488281,0.061035,-0.183105
5927912458,0.00184631,0.00791931,-1.00563049,0.488281,0.061035,-0.183105
5930382291,0.00184631,0.00791931,-1.00563049,0.183105,-0.061035,-0.061035
5938041208,0.00190735,0.00776672,-1.00502014,0.244141,0.061035,-0.183105
5947753375,0.00202942,0.00747681,-1.00524902,0.244141,0.061035,-0.183105
5949982958,0.00202942,0.00747681,-1.00524902,0.366211,-0.061035,0.000000
5957654791,0.00178528,0.00709534,-1.00665283,0.366211,-0.061035,0.000000
5960205041,0.00178528,0.00709534,-1.00665283,0.366211,0.061035,-0.122070
5967824250,0.00183105,0.00749207,-1.00585938,0.366211,0.061035,-0.122070
5970377041,0.00183105,0.00749207,-1.00585938,0.366211,0.061035,-0.061035
5977541791,0.00172424,0.00726318,-1.00640869,0.366211,0.061035,-0.061035
5980089166,0.00172424,0.00726318,-1.00640869,0.427246,0.061035,-0.061035
5987696125,0.00144958,0.00672913,-1.00700378,0.427246,0.061035,-0.061035
5990265750,0.00144958,0.00672913,-1.00700378,0.427246,0.183105,-0.061035
5997474458,0.00173950,0.00668335,-1.00648499,0.427246,0.183105,-0.061035
6000028750,0.00173950,0.00668335,-1.00648499,0.244141,0.061035,-0.061035
6007622958,0.00225830,0.00729370,-1.00541687,0.244141,0.061035,-0.061035
6010166250,0.00225830,0.00729370,-1.00541687,0.366211,0.061035,-0.061035
6017784625,0.00184631,0.00619507,-1.00498962,0.366211,0.061035,-0.061035
6020373916,0.00184631,0.00619507,-1.00498962,0.366211,0.000000,-0.061035
6028000875,0.00196838,0.00695801,-1.00534058,0.366211,0.000000,-0.061035
6030571458,0.00196838,0.00695801,-1.00534058,0.305176,0.061035,-0.061035
6038189708,0.00199890,0.00717163,-1.00715637,0.427246,0.122070,-0.183105
6045796708,0.00148010,0.00743103,-1.00636292,0.427246,0.122070,-0.183105
6048341541,0.00148010,0.00743103,-1.00636292,0.305176,0.000000,-0.061035
6055938291,0.00192261,0.00743103,-1.00627136,0.305176,0.000000,-0.061035
6058484750,0.00192261,0.00743103,-1.00627136,0.244141,0.122070,-0.061035
6066092208,0.00138855,0.00683594,-1.00566101,0.244141,0.122070,-0.061035
6068714166,0.00138855,0.00683594,-1.00566101,0.366211,0.122070,-0.061035
6076335375,0.00228882,0.00718689,-1.00677490,0.366211,0.122070,-0.061035
6078518750,0.00228882,0.00718689,-1.00677490,0.305176,-0.061035,-0.061035
6086135750,0.00167847,0.00735474,-1.00567627,0.305176,-0.061035,-0.061035
6088709958,0.00167847,0.00735474,-1.00567627,0.305176,0.122070,-0.122070
6096353333,0.00202942,0.00709534,-1.00524902,0.305176,0.122070,-0.122070
6098930291,0.00202942,0.00709534,-1.00524902,0.366211,0.061035,-0.061035
6106087083,0.00158691,0.00677490,-1.00642395,0.366211,0.061035,-0.061035
6108650416,0.00158691,0.00677490,-1.00642395,0.366211,-0.061035,-0.183105
6116305916,0.00209045,0.00625610,-1.00637817,0.366211,-0.061035,-0.183105
6118471458,0.00209045,0.00625610,-1.00637817,0.427246,0.000000,-0.061035
6126085166,0.00187683,0.00650024,-1.00596619,0.427246,0.000000,-0.061035
6128634541,0.00187683,0.00650024,-1.00596619,0.244141,0.061035,-0.244141
6136285416,0.00135803,0.00740051,-1.00482178,0.244141,0.061035,-0.244141
6138873041,0.00135803,0.00740051,-1.00482178,0.305176,0.000000,-0.061035
6146489291,0.00187683,0.00772095,-1.00588989,0.305176,0.000000,-0.061035
6149038625,0.00187683,0.00772095,-1.00588989,0.244141,0.061035,-0.122070
6156650458,0.00204468,0.00740051,-1.00541687,0.244141,0.061035,-0.122070
6159222916,0.00204468,0.00740051,-1.00541687,0.305176,0.061035,-0.183105
6166833791,0.00173950,0.00675964,-1.00622559,0.305176,0.061035,-0.183105
6169376708,0.00173950,0.00675964,-1.00622559,0.305176,0.000000,-0.244141
6176973208,0.00314331,0.00697327,-1.00596619,0.305176,0.000000,-0.244141
6179526083,0.00314331,0.00697327,-1.00596619,0.427246,0.061035,-0.061035
6187142041,0.00210571,0.00770569,-1.00599670,0.427246,0.061035,-0.061035
6189701500,0.00210571,0.00770569,-1.00599670,0.244141,0.000000,-0.061035
6196859958,0.00195312,0.00709534,-1.00648499,0.244141,0.000000,-0.061035
6199409833,0.00195312,0.00709534,-1.00648499,0.427246,0.000000,-0.061035
6207029541,0.00103760,0.00706482,-1.00537109,0.427246,0.000000,-0.061035
6209586958,0.00103760,0.00706482,-1.00537109,0.366211,0.000000,-0.061035
6216980875,0.00192261,0.00764465,-1.00537109,0.366211,0.000000,-0.061035
6219526166,0.00192261,0.00764465,-1.00537109,0.366211,0.000000,-0.122070
6227133750,0.00189209,0.00735474,-1.00656128,0.366211,0.000000,-0.122070
6229635958,0.00189209,0.00735474,-1.00656128,0.305176,0.061035,0.000000
6237242500,0.00241089,0.00778198,-1.00669861,0.305176,0.061035,0.000000
6239783000,0.00241089,0.00778198,-1.00669861,0.427246,0.061035,-0.183105
6247255041,0.00209045,0.00697327,-1.00619507,0.427246,0.061035,-0.183105
6249809291,0.00209045,0.00697327,-1.00619507,0.305176,0.000000,-0.061035
6257433875,0.00157166,0.00686646,-1.00646973,0.305176,0.000000,-0.061035
6259615458,0.00157166,0.00686646,-1.00646973,0.061035,0.061035,-0.061035
6267206166,0.00100708,0.00784302,-1.00668335,0.061035,0.061035,-0.061035
6269746166,0.00100708,0.00784302,-1.00668335,0.305176,0.061035,-0.122070
6277341791,0.00213623,0.00737000,-1.00683594,0.305176,0.061035,-0.122070
6279885291,0.00213623,0.00737000,-1.00683594,0.427246,0.061035,-0.183105
6287499958,0.00202942,0.00790405,-1.00572205,0.427246,0.061035,-0.183105
6290068833,0.00202942,0.00790405,-1.00572205,0.305176,0.061035,0.000000
6297708541,0.00181580,0.00682068,-1.00546265,0.305176,0.061035,0.000000
6300269041,0.00181580,0.00682068,-1.00546265,0.427246,0.061035,-0.061035
6307887166,0.00296021,0.00686646,-1.00640869,0.427246,0.061035,-0.061035
6310445500,0.00296021,0.00686646,-1.00640869,0.183105,0.061035,0.061035
6318100041,0.00302124,0.00688171,-1.00642395,0.305176,0.000000,0.000000
6328235833,0.00285339,0.00668335,-1.00631714,0.366211,0.061035,-0.061035
6338248333,0.00210571,0.00669861,-1.00610352,0.305176,0.122070,-0.183105
6345860041,0.00177002,0.00706482,-1.00552368,0.305176,0.122070,-0.183105
6348412166,0.00177002,0.00706482,-1.00552368,0.305176,0.000000,-0.061035
6356026000,0.00282288,0.00750732,-1.00547791,0.305176,0.000000,-0.061035
6358575583,0.00282288,0.00750732,-1.00547791,0.427246,0.061035,-0.061035
6366176791,0.00239563,0.00695801,-1.00625610,0.427246,0.061035,-0.061035
6368722750,0.00239563,0.00695801,-1.00625610,0.244141,0.061035,0.000000
6376335750,0.00254822,0.00724792,-1.00613403,0.244141,0.061035,0.000000
6378869291,0.00254822,0.00724792,-1.00613403,0.366211,0.061035,-0.061035
6388266750,0.00251770,0.00798035,-1.00599670,0.427246,-0.061035,-0.122070
6397721958,0.00215149,0.00811768,-1.00550842,0.427246,-0.061035,-0.122070
6400262666,0.00215149,0.00811768,-1.00550842,0.244141,-0.061035,-0.122070
6407882291,0.00180054,0.00820923,-1.00547791,0.244141,-0.061035,-0.122070
6410431458,0.00180054,0.00820923,-1.00547791,0.244141,0.061035,0.000000
6418042500,0.00221252,0.00701904,-1.00622559,0.244141,0.061035,0.000000
6420600875,0.00221252,0.00701904,-1.00622559,0.366211,0.122070,-0.061035
6428059666,0.00213623,0.00744629,-1.00578308,0.366211,0.122070,-0.061035
6430617125,0.00213623,0.00744629,-1.00578308,0.549316,0.000000,0.000000
6438210458,0.00305176,0.00743103,-1.00527954,0.366211,0.183105,-0.061035
6445819416,0.00186157,0.00782776,-1.00598145,0.366211,0.183105,-0.061035
6448366333,0.00186157,0.00782776,-1.00598145,0.427246,0.122070,0.000000
6455984291,0.00213623,0.00677490,-1.00538635,0.427246,0.122070,0.000000
6458528708,0.00213623,0.00677490,-1.00538635,0.427246,0.122070,-0.122070
6466125458,0.00263977,0.00675964,-1.00604248,0.427246,0.122070,-0.122070
6468668375,0.00263977,0.00675964,-1.00604248,0.366211,0.000000,-0.122070
6476260833,0.00241089,0.00718689,-1.00627136,0.366211,0.000000,-0.122070
6478810750,0.00241089,0.00718689,-1.00627136,0.305176,0.000000,-0.061035
6485859125,0.00227356,0.00715637,-1.00569153,0.305176,0.000000,-0.061035
6488413583,0.00227356,0.00715637,-1.00569153,0.366211,-0.061035,0.061035
6496019250,0.00260925,0.00787354,-1.00552368,0.366211,-0.061035,0.061035
6498559416,0.00260925,0.00787354,-1.00552368,0.305176,0.061035,-0.183105
6506079333,0.00189209,0.00668335,-1.00595093,0.305176,0.061035,-0.183105
6508621333,0.00189209,0.00668335,-1.00595093,0.305176,-0.061035,-0.183105
6516213500,0.00285339,0.00704956,-1.00659180,0.305176,-0.061035,-0.183105
6518756083,0.00285339,0.00704956,-1.00659180,0.366211,0.000000,-0.061035
6526353750,0.00228882,0.00689697,-1.00610352,0.366211,0.000000,-0.061035
6528899083,0.00228882,0.00689697,-1.00610352,0.427246,0.061035,0.000000
6536495500,0.00148010,0.00828552,-1.00588989,0.427246,0.061035,0.000000
6539037708,0.00148010,0.00828552,-1.00588989,0.244141,0.061035,-0.183105
6546628125,0.00149536,0.00791931,-1.00633240,0.244141,0.061035,-0.183105
6549169333,0.00149536,0.00791931,-1.00633240,0.305176,-0.061035,0.000000
6556782541,0.00228882,0.00718689,-1.00610352,0.305176,-0.061035,0.000000
6559332583,0.00228882,0.00718689,-1.00610352,0.183105,-0.122070,-0.305176
6566942666,0.00175476,0.00723267,-1.00646973,0.183105,-0.122070,-0.305176
6569487083,0.00175476,0.00723267,-1.00646973,0.305176,0.000000,-0.122070
6577076041,0.00219727,0.00746155,-1.00639343,0.305176,0.000000,-0.122070
6579646666,0.00219727,0.00746155,-1.00639343,0.366211,0.061035,-0.061035
6586898208,0.00245667,0.00636292,-1.00648499,0.366211,0.061035,-0.061035
6589446625,0.00245667,0.00636292,-1.00648499,0.366211,0.122070,-0.061035
6597046875,0.00241089,0.00738525,-1.00537109,0.366211,0.122070,-0.061035
6599596958,0.00241089,0.00738525,-1.00537109,0.183105,0.000000,-0.061035
6607197500,0.00267029,0.00624084,-1.00537109,0.183105,0.000000,-0.061035
6609746416,0.00267029,0.00624084,-1.00537109,0.305176,0.061035,-0.183105
6616919333,0.00227356,0.00640869,-1.00630188,0.305176,0.061035,-0.183105
6619471500,0.00227356,0.00640869,-1.00630188,0.366211,0.061035,0.000000
6627065333,0.00303650,0.00723267,-1.00662231,0.366211,0.061035,0.000000
6629618541,0.00303650,0.00723267,-1.00662231,0.305176,0.000000,0.000000
6636742083,0.00119019,0.00753784,-1.00624084,0.305176,0.000000,0.000000
6639284041,0.00119019,0.00753784,-1.00624084,0.244141,0.122070,0.061035
6646505416,0.00148010,0.00651550,-1.00685120,0.244141,0.122070,0.061035
6649068833,0.00148010,0.00651550,-1.00685120,0.305176,0.000000,-0.061035
6656739541,0.00242615,0.00750732,-1.00592041,0.305176,0.000000,-0.061035
6659351000,0.00242615,0.00750732,-1.00592041,0.244141,0.000000,0.000000
6666963416,0.00302124,0.00718689,-1.00477600,0.244141,0.000000,0.000000
6669515875,0.00302124,0.00718689,-1.00477600,0.427246,0.061035,-0.061035
6677108708,0.00256348,0.00741577,-1.00598145,0.427246,0.061035,-0.061035
6679641291,0.00256348,0.00741577,-1.00598145,0.305176,0.122070,-0.061035
6686866083,0.00238037,0.00665283,-1.00677490,0.305176,0.122070,-0.061035
6689418250,0.00238037,0.00665283,-1.00677490,0.244141,0.183105,-0.061035
6697046750,0.00253296,0.00672913,-1.00633240,0.244141,0.183105,-0.061035
6699586000,0.00253296,0.00672913,-1.00633240,0.183105,0.183105,-0.122070
6707191875,0.00227356,0.00749207,-1.00575256,0.183105,0.183105,-0.122070
6709785666,0.00227356,0.00749207,-1.00575256,0.427246,-0.061035,-0.061035
6717466625,0.00213623,0.00759888,-1.00491333,0.427246,-0.061035,-0.061035
6719948833,0.00213623,0.00759888,-1.00491333,0.366211,0.000000,-0.183105
6727567416,0.00288391,0.00668335,-1.00617981,0.366211,0.000000,-0.183105
6730153833,0.00288391,0.00668335,-1.00617981,0.244141,0.061035,0.000000
6737770208,0.00196838,0.00746155,-1.00682068,0.244141,0.061035,0.000000
6740320541,0.00196838,0.00746155,-1.00682068,0.305176,0.061035,-0.122070
6747936000,0.00205994,0.00741577,-1.00604248,0.305176,0.061035,-0.122070
6750514458,0.00205994,0.00741577,-1.00604248,0.366211,-0.061035,-0.061035
6758136750,0.00224304,0.00794983,-1.00643921,0.366211,-0.061035,-0.061035
6760691041,0.00224304,0.00794983,-1.00643921,0.305176,0.061035,0.061035
6765791958,0.00277710,0.00706482,-1.00688171,0.305176,0.061035,0.061035
6768336250,0.00277710,0.00706482,-1.00688171,0.366211,0.061035,-0.122070
6775956208,0.00202942,0.00723267,-1.00740051,0.366211,0.061035,-0.122070
6778365916,0.00202942,0.00723267,-1.00740051,0.427246,0.061035,-0.122070
6785989208,0.00190735,0.00706482,-1.00570679,0.427246,0.061035,-0.122070
6788584250,0.00190735,0.00706482,-1.00570679,0.244141,0.122070,-0.122070
6796241625,0.00155640,0.00787354,-1.00614929,0.244141,0.122070,-0.122070
6798789541,0.00155640,0.00787354,-1.00614929,0.305176,0.061035,-0.061035
6806166791,0.00184631,0.00712585,-1.00698853,0.305176,0.061035,-0.061035
6808718125,0.00184631,0.00712585,-1.00698853,0.305176,0.122070,-0.061035
6816329583,0.00314331,0.00785828,-1.00660706,0.305176,0.122070,-0.061035
6818888750,0.00314331,0.00785828,-1.00660706,0.183105,0.061035,-0.061035
6826485083,0.00234985,0.00718689,-1.00697327,0.183105,0.061035,-0.061035
6829073458,0.00234985,0.00718689,-1.00697327,0.244141,0.000000,-0.122070
6836375708,0.00122070,0.00650024,-1.00660706,0.244141,0.000000,-0.122070
6838969916,0.00122070,0.00650024,-1.00660706,0.244141,0.000000,-0.122070
6846615375,0.00213623,0.00698853,-1.00634766,0.244141,0.000000,-0.122070
6849192625,0.00213623,0.00698853,-1.00634766,0.244141,0.000000,0.000000
6856841000,0.00239563,0.00773621,-1.00654602,0.244141,0.000000,0.000000
6859395500,0.00239563,0.00773621,-1.00654602,0.427246,0.061035,-0.122070
6866997291,0.00297546,0.00663757,-1.00521851,0.427246,0.061035,-0.122070
6869546416,0.00297546,0.00663757,-1.00521851,0.183105,0.061035,-0.244141
6876864125,0.00341797,0.00709534,-1.00567627,0.183105,0.061035,-0.244141
6879426791,0.00341797,0.00709534,-1.00567627,0.366211,0.061035,-0.122070
6887042916,0.00195312,0.00756836,-1.00602722,0.366211,0.061035,-0.122070
6889576708,0.00195312,0.00756836,-1.00602722,0.305176,0.061035,0.000000
6897163041,0.00256348,0.00698853,-1.00668335,0.305176,0.061035,0.000000
6899707708,0.00256348,0.00698853,-1.00668335,0.427246,0.183105,-0.061035
6907304083,0.00289917,0.00717163,-1.00741577,0.427246,0.183105,-0.061035
6909869583,0.00289917,0.00717163,-1.00741577,0.549316,0.122070,-0.061035
6917504166,0.00163269,0.00740051,-1.00640869,0.549316,0.122070,-0.061035
6920041166,0.00163269,0.00740051,-1.00640869,0.305176,0.061035,-0.122070
6927646125,0.00196838,0.00746155,-1.00595093,0.305176,0.061035,-0.122070
6930189333,0.00196838,0.00746155,-1.00595093,0.244141,0.061035,-0.061035
6937366791,0.00199890,0.00651550,-1.00683594,0.244141,0.061035,-0.061035
6939896125,0.00199890,0.00651550,-1.00683594,0.183105,0.000000,-0.061035
6947499625,0.00143433,0.00730896,-1.00682068,0.183105,0.000000,-0.061035
6950063750,0.00143433,0.00730896,-1.00682068,0.427246,0.000000,0.000000
6957690250,0.00202942,0.00759888,-1.00587463,0.427246,0.000000,0.000000
6960233875,0.00202942,0.00759888,-1.00587463,0.366211,0.000000,0.061035
6967824958,0.00282288,0.00683594,-1.00573730,0.366211,0.000000,0.061035
6970378541,0.00282288,0.00683594,-1.00573730,0.305176,0.000000,-0.061035
6978029958,0.00347900,0.00659180,-1.00718689,0.305176,0.000000,-0.061035
6980578708,0.00347900,0.00659180,-1.00718689,0.305176,0.122070,-0.061035
6988300416,0.00154114,0.00631714,-1.00590515,0.427246,0.122070,0.000000
6995930791,0.00181580,0.00697327,-1.00669861,0.427246,0.122070,0.000000
6998497125,0.00181580,0.00697327,-1.00669861,0.305176,-0.061035,-0.183105
7006129375,0.00234985,0.00772095,-1.00611877,0.305176,-0.061035,-0.183105
7008690375,0.00234985,0.00772095,-1.00611877,0.305176,0.000000,-0.061035
7016295500,0.00233459,0.00695801,-1.00650024,0.305176,0.000000,-0.061035
7018852375,0.00233459,0.00695801,-1.00650024,0.366211,0.000000,0.061035
7026461916,0.00292969,0.00683594,-1.00588989,0.366211,0.000000,0.061035
7029019958,0.00292969,0.00683594,-1.00588989,0.183105,0.183105,-0.061035
7036574833,0.00173950,0.00730896,-1.00694275,0.183105,0.183105,-0.061035
7039137750,0.00173950,0.00730896,-1.00694275,0.549316,0.061035,-0.061035
7046513000,0.00157166,0.00720215,-1.00593567,0.549316,0.061035,-0.061035
7049076458,0.00157166,0.00720215,-1.00593567,0.183105,0.000000,-0.122070
7056641750,0.00241089,0.00610352,-1.00549316,0.183105,0.000000,-0.122070
7059202333,0.00241089,0.00610352,-1.00549316,0.305176,0.061035,0.000000
7066796500,0.00157166,0.00637817,-1.00547791,0.305176,0.061035,0.000000
7069356291,0.00157166,0.00637817,-1.00547791,0.244141,0.061035,-0.061035
7076983250,0.00166321,0.00646973,-1.00619507,0.244141,0.061035,-0.061035
7079533750,0.00166321,0.00646973,-1.00619507,0.305176,0.000000,-0.122070
7087148083,0.00263977,0.00706482,-1.00656128,0.305176,0.000000,-0.122070
7089703750,0.00263977,0.00706482,-1.00656128,0.366211,0.061035,-0.122070
7097309000,0.00218201,0.00683594,-1.00572205,0.366211,0.061035,-0.122070
7099859250,0.00218201,0.00683594,-1.00572205,0.366211,0.183105,-0.183105
7107503916,0.00247192,0.00701904,-1.00703430,0.366211,0.183105,-0.183105
7110043500,0.00247192,0.00701904,-1.00703430,0.305176,0.000000,-0.122070
7117662500,0.00230408,0.00674438,-1.00613403,0.305176,0.000000,-0.122070
7120220750,0.00230408,0.00674438,-1.00613403,0.183105,0.000000,-0.122070
7127843166,0.00210571,0.00758362,-1.00686646,0.183105,0.000000,-0.122070
7130407666,0.00210571,0.00758362,-1.00686646,0.427246,0.122070,0.061035
7138021333,0.00117493,0.00691223,-1.00645447,0.427246,0.122070,0.061035
7140576250,0.00117493,0.00691223,-1.00645447,0.244141,-0.061035,-0.061035
7148018250,0.00239563,0.00753784,-1.00515747,0.244141,-0.061035,-0.061035
7150580625,0.00239563,0.00753784,-1.00515747,0.427246,0.122070,0.000000
7158211041,0.00254822,0.00773621,-1.00605774,0.427246,0.122070,0.000000
7160772416,0.00254822,0.00773621,-1.00605774,0.244141,0.000000,-0.061035
7165856583,0.00231934,0.00636292,-1.00616455,0.244141,0.000000,-0.061035
7168417250,0.00231934,0.00636292,-1.00616455,0.366211,0.061035,0.000000
7176066291,0.00257874,0.00715637,-1.00660706,0.366211,0.061035,0.000000
7178621125,0.00257874,0.00715637,-1.00660706,0.366211,0.122070,-0.061035
7186133916,0.00241089,0.00726318,-1.00645447,0.366211,0.122070,-0.061035
7188712833,0.00241089,0.00726318,-1.00645447,0.366211,0.061035,-0.061035
7196343666,0.00207520,0.00665283,-1.00643921,0.366211,0.061035,-0.061035
7198892583,0.00207520,0.00665283,-1.00643921,0.366211,-0.061035,-0.061035
7206036333,0.00236511,0.00747681,-1.00605774,0.366211,-0.061035,-0.061035
7208606125,0.00236511,0.00747681,-1.00605774,0.427246,0.183105,-0.061035
7216223375,0.00323486,0.00558472,-1.00686646,0.427246,0.183105,-0.061035
7218778958,0.00323486,0.00558472,-1.00686646,0.366211,-0.061035,-0.183105
7226441250,0.00222778,0.00680542,-1.00688171,0.366211,-0.061035,-0.183105
7229001000,0.00222778,0.00680542,-1.00688171,0.366211,0.122070,0.122070
7236351958,0.00169373,0.00691223,-1.00585938,0.366211,0.122070,0.122070
7238911875,0.00169373,0.00691223,-1.00585938,0.244141,0.122070,0.000000
7246513750,0.00244141,0.00711060,-1.00622559,0.244141,0.122070,0.000000
7249070333,0.00244141,0.00711060,-1.00622559,0.183105,0.183105,-0.122070
7256674875,0.00236511,0.00675964,-1.00611877,0.183105,0.183105,-0.122070
7259226250,0.00236511,0.00675964,-1.00611877,0.305176,0.061035,0.000000
7266769500,0.00085449,0.00694275,-1.00651550,0.305176,0.061035,0.000000
7269312291,0.00085449,0.00694275,-1.00651550,0.427246,0.061035,-0.122070
7276936041,0.00019836,0.00769043,-1.00572205,0.427246,0.061035,-0.122070
7279485416,0.00019836,0.00769043,-1.00572205,0.427246,0.122070,-0.061035
7287079166,0.00099182,0.00738525,-1.00491333,0.427246,0.122070,-0.061035
7289621458,0.00099182,0.00738525,-1.00491333,0.427246,0.061035,-0.122070
7297223708,0.00161743,0.00773621,-1.00575256,0.427246,0.061035,-0.122070
7299760750,0.00161743,0.00773621,-1.00575256,0.244141,0.122070,0.061035
7307359083,0.00163269,0.00767517,-1.00622559,0.244141,0.122070,0.061035
7309906083,0.00163269,0.00767517,-1.00622559,0.366211,0.061035,-0.061035
7317518375,0.00204468,0.00708008,-1.00668335,0.366211,0.061035,-0.061035
7320074666,0.00204468,0.00708008,-1.00668335,0.427246,0.061035,-0.122070
7327679333,0.00239563,0.00631714,-1.00564575,0.427246,0.061035,-0.122070
7330232250,0.00239563,0.00631714,-1.00564575,0.366211,0.122070,0.061035
7337830500,0.00209045,0.00682068,-1.00555420,0.366211,0.122070,0.061035
7340372791,0.00209045,0.00682068,-1.00555420,0.244141,-0.061035,-0.122070
7347715083,0.00210571,0.00756836,-1.00682068,0.244141,-0.061035,-0.122070
7350058791,0.00210571,0.00756836,-1.00682068,0.183105,0.000000,-0.122070
7357480041,0.00230408,0.00645447,-1.00633240,0.183105,0.000000,-0.122070
7359975166,0.00230408,0.00645447,-1.00633240,0.305176,0.061035,0.000000
7367480208,0.00212097,0.00653076,-1.00720215,0.305176,0.061035,0.000000
7369534791,0.00212097,0.00653076,-1.00720215,0.244141,0.000000,-0.061035
7377088333,0.00233459,0.00711060,-1.00628662,0.244141,0.000000,-0.061035
7379630875,0.00233459,0.00711060,-1.00628662,0.305176,-0.061035,0.000000
7387237541,0.00207520,0.00700378,-1.00611877,0.305176,-0.061035,0.000000
7389789166,0.00207520,0.00700378,-1.00611877,0.305176,-0.061035,-0.061035
7397429583,0.00178528,0.00732422,-1.00666809,0.305176,-0.061035,-0.061035
7399980208,0.00178528,0.00732422,-1.00666809,0.244141,0.000000,-0.061035
7407572458,0.00254822,0.00711060,-1.00619507,0.244141,0.000000,-0.061035
7410114125,0.00254822,0.00711060,-1.00619507,0.305176,0.000000,-0.122070
7417627208,0.00114441,0.00686646,-1.00602722,0.305176,0.000000,-0.122070
7420178375,0.00114441,0.00686646,-1.00602722,0.549316,0.000000,-0.061035
7427766000,0.00216675,0.00788879,-1.00645447,0.549316,0.000000,-0.061035
7430318458,0.00216675,0.00788879,-1.00645447,0.305176,0.122070,-0.061035
7437926916,0.00283813,0.00724792,-1.00541687,0.305176,0.122070,-0.061035
7440473625,0.00283813,0.00724792,-1.00541687,0.244141,0.000000,-0.061035
7448093583,0.00166321,0.00726318,-1.00692749,0.244141,0.000000,-0.061035
7450653458,0.00166321,0.00726318,-1.00692749,0.366211,0.000000,-0.061035
7458335000,0.00169373,0.00785828,-1.00575256,0.244141,0.122070,-0.061035
7465934208,0.00054932,0.00740051,-1.00573730,0.244141,0.122070,-0.061035
7468472708,0.00054932,0.00740051,-1.00573730,0.305176,0.122070,0.000000
7476107125,0.00219727,0.00701904,-1.00576782,0.305176,0.122070,0.000000
7478656291,0.00219727,0.00701904,-1.00576782,0.183105,0.061035,0.000000
7486109500,0.00289917,0.00643921,-1.00585938,0.183105,0.061035,0.000000
7488643416,0.00289917,0.00643921,-1.00585938,0.305176,0.183105,-0.122070
7496236041,0.00180054,0.00709534,-1.00592041,0.305176,0.183105,-0.122070
7498776291,0.00180054,0.00709534,-1.00592041,0.427246,0.061035,-0.061035
7506064833,0.00135803,0.00646973,-1.00590515,0.427246,0.061035,-0.061035
7508622291,0.00135803,0.00646973,-1.00590515,0.366211,0.122070,-0.122070
7516220708,0.00186157,0.00718689,-1.00656128,0.366211,0.122070,-0.122070
7518773541,0.00186157,0.00718689,-1.00656128,0.244141,-0.061035,-0.061035
7526369583,0.00238037,0.00648499,-1.00640869,0.244141,-0.061035,-0.061035
7528908958,0.00238037,0.00648499,-1.00640869,0.549316,0.122070,-0.061035
7536168125,0.00187683,0.00727844,-1.00567627,0.549316,0.122070,-0.061035
7538709291,0.00187683,0.00727844,-1.00567627,0.305176,-0.061035,-0.061035
7546310500,0.00180054,0.00775146,-1.00695801,0.305176,-0.061035,-0.061035
7548849208,0.00180054,0.00775146,-1.00695801,0.305176,0.000000,0.000000
7556479291,0.00265503,0.00735474,-1.00674438,0.305176,0.000000,0.000000
7559022791,0.00265503,0.00735474,-1.00674438,0.183105,-0.061035,-0.061035
7566620125,0.00144958,0.00750732,-1.00660706,0.183105,-0.061035,-0.061035
7569161041,0.00144958,0.00750732,-1.00660706,0.488281,0.122070,0.000000
7576383583,0.00140381,0.00781250,-1.00599670,0.488281,0.122070,0.000000
7578926000,0.00140381,0.00781250,-1.00599670,0.244141,0.122070,-0.061035
7586527458,0.00181580,0.00747681,-1.00662231,0.244141,0.122070,-0.061035
7589078166,0.00181580,0.00747681,-1.00662231,0.366211,-0.061035,0.000000
7596677500,0.00114441,0.00730896,-1.00637817,0.366211,-0.061035,0.000000
7599203125,0.00114441,0.00730896,-1.00637817,0.305176,0.122070,-0.122070
7606808875,0.00239563,0.00662231,-1.00581360,0.305176,0.122070,-0.122070
7609348041,0.00239563,0.00662231,-1.00581360,0.366211,0.061035,-0.061035
7616949958,0.00268555,0.00747681,-1.00637817,0.366211,0.061035,-0.061035
7619445625,0.00268555,0.00747681,-1.00637817,0.244141,0.061035,-0.122070
7627052041,0.00227356,0.00700378,-1.00617981,0.244141,0.061035,-0.122070
7629602416,0.00227356,0.00700378,-1.00617981,0.305176,0.061035,-0.183105
7636877791,0.00267029,0.00614929,-1.00569153,0.305176,0.061035,-0.183105
7639428416,0.00267029,0.00614929,-1.00569153,0.305176,-0.061035,-0.122070
7647030666,0.00236511,0.00639343,-1.00608826,0.305176,-0.061035,-0.122070
7649583541,0.00236511,0.00639343,-1.00608826,0.366211,0.061035,-0.061035
7656939625,0.00173950,0.00648499,-1.00543213,0.366211,0.061035,-0.061035
7659480625,0.00173950,0.00648499,-1.00543213,0.488281,0.061035,0.000000
7667096708,0.00166321,0.00694275,-1.00585938,0.488281,0.061035,0.000000
7669644583,0.00166321,0.00694275,-1.00585938,0.305176,0.000000,-0.061035
7677233083,0.00273132,0.00672913,-1.00587463,0.305176,0.000000,-0.061035
7679772291,0.00273132,0.00672913,-1.00587463,0.366211,0.061035,0.000000
7687392250,0.00300598,0.00708008,-1.00587463,0.366211,0.061035,0.000000
7689943375,0.00300598,0.00708008,-1.00587463,0.366211,0.061035,-0.122070
7697260166,0.00222778,0.00759888,-1.00651550,0.366211,0.061035,-0.122070
7699809458,0.00222778,0.00759888,-1.00651550,0.305176,0.000000,-0.183105
7707408583,0.00205994,0.00697327,-1.00494385,0.305176,0.000000,-0.183105
7709946416,0.00205994,0.00697327,-1.00494385,0.427246,0.000000,0.000000
7717551375,0.00111389,0.00610352,-1.00463867,0.427246,0.000000,0.000000
7720105458,0.00111389,0.00610352,-1.00463867,0.366211,0.122070,-0.122070
7727713166,0.00196838,0.00663757,-1.00566101,0.366211,0.122070,-0.122070
7730168958,0.00196838,0.00663757,-1.00566101,0.183105,0.000000,0.000000
7737789125,0.00196838,0.00738525,-1.00672913,0.183105,0.000000,0.000000
7740336541,0.00196838,0.00738525,-1.00672913,0.183105,0.061035,-0.183105
7747930625,0.00231934,0.00666809,-1.00601196,0.183105,0.061035,-0.183105
7750479500,0.00231934,0.00666809,-1.00601196,0.305176,0.183105,0.061035
7758081333,0.00213623,0.00732422,-1.00581360,0.305176,0.183105,0.061035
7760622375,0.00213623,0.00732422,-1.00581360,0.244141,-0.122070,-0.061035
7768081041,0.00204468,0.00743103,-1.00561523,0.244141,-0.122070,-0.061035
7770214708,0.00204468,0.00743103,-1.00561523,0.366211,0.061035,-0.122070
7777806875,0.00241089,0.00726318,-1.00694275,0.366211,0.061035,-0.122070
7780348541,0.00241089,0.00726318,-1.00694275,0.366211,0.061035,0.000000
7787973458,0.00160217,0.00701904,-1.00723267,0.366211,0.061035,0.000000
7790523291,0.00160217,0.00701904,-1.00723267,0.305176,0.061035,0.000000
7797708500,0.00202942,0.00738525,-1.00778198,0.305176,0.061035,0.000000
7800245333,0.00202942,0.00738525,-1.00778198,0.244141,0.000000,-0.122070
7807687333,0.00277710,0.00659180,-1.00692749,0.244141,0.000000,-0.122070
7810225250,0.00277710,0.00659180,-1.00692749,0.305176,0.061035,-0.122070
7817831833,0.00184631,0.00648499,-1.00588989,0.305176,0.061035,-0.122070
7820381416,0.00184631,0.00648499,-1.00588989,0.244141,0.000000,-0.061035
7827975416,0.00183105,0.00689697,-1.00621033,0.244141,0.000000,-0.061035
7830517625,0.00183105,0.00689697,-1.00621033,0.366211,-0.122070,-0.183105
7838107583,0.00247192,0.00680542,-1.00650024,0.366211,-0.122070,-0.183105
7840646875,0.00247192,0.00680542,-1.00650024,0.244141,0.061035,-0.061035
7848232416,0.00286865,0.00708008,-1.00619507,0.244141,0.061035,-0.061035
7850802208,0.00286865,0.00708008,-1.00619507,0.305176,0.000000,0.000000
7855889750,0.00213623,0.00709534,-1.00669861,0.305176,0.000000,0.000000
7860964458,0.00213623,0.00709534,-1.00669861,0.305176,0.061035,-0.061035
7866035125,0.00207520,0.00672913,-1.00592041,0.305176,0.061035,-0.061035
7871101833,0.00207520,0.00672913,-1.00592041,0.366211,0.000000,0.000000
7876161500,0.00251770,0.00744629,-1.00592041,0.366211,0.000000,0.000000
7881042000,0.00251770,0.00744629,-1.00592041,0.366211,0.122070,-0.122070
7885895416,0.00205994,0.00747681,-1.00585938,0.366211,0.122070,-0.122070
7890981291,0.00205994,0.00747681,-1.00585938,0.305176,0.183105,0.000000
7896048791,0.00277710,0.00729370,-1.00653076,0.305176,0.183105,0.000000
7900942166,0.00277710,0.00729370,-1.00653076,0.427246,0.183105,0.000000
7906019541,0.00233459,0.00724792,-1.00657654,0.427246,0.183105,0.000000
7911084500,0.00233459,0.00724792,-1.00657654,0.366211,0.061035,-0.061035
7916167916,0.00135803,0.00709534,-1.00595093,0.366211,0.061035,-0.061035
7921244125,0.00135803,0.00709534,-1.00595093,0.366211,0.061035,-0.061035
7926338500,0.00227356,0.00727844,-1.00576782,0.366211,0.061035,-0.061035
7928880916,0.00227356,0.00727844,-1.00576782,0.244141,0.000000,0.000000
7936489458,0.00276184,0.00663757,-1.00666809,0.244141,0.000000,0.000000
7939030041,0.00276184,0.00663757,-1.00666809,0.305176,0.061035,-0.122070
7946627000,0.00262451,0.00737000,-1.00541687,0.305176,0.061035,-0.122070
7949186625,0.00262451,0.00737000,-1.00541687,0.183105,0.061035,0.000000
7956791166,0.00231934,0.00657654,-1.00634766,0.183105,0.061035,0.000000
7959333458,0.00231934,0.00657654,-1.00634766,0.305176,0.000000,0.061035
7966949000,0.00192261,0.00604248,-1.00543213,0.305176,0.000000,0.061035
7969512208,0.00192261,0.00604248,-1.00543213,0.366211,0.000000,-0.122070
7977108208,0.00071716,0.00688171,-1.00610352,0.366211,0.000000,-0.122070
7979657916,0.00071716,0.00688171,-1.00610352,0.244141,0.061035,-0.122070
7986910125,0.00213623,0.00685120,-1.00573730,0.244141,0.061035,-0.122070
7989462958,0.00213623,0.00685120,-1.00573730,0.488281,-0.061035,-0.061035
7997078250,0.00248718,0.00721741,-1.00622559,0.488281,-0.061035,-0.061035
7999618250,0.00248718,0.00721741,-1.00622559,0.366211,0.000000,-0.061035
8007239458,0.00231934,0.00744629,-1.00572205,0.366211,0.000000,-0.061035
8009813708,0.00231934,0.00744629,-1.00572205,0.305176,0.061035,-0.122070
8017187875,0.00216675,0.00729370,-1.00634766,0.305176,0.061035,-0.122070
8019770291,0.00216675,0.00729370,-1.00634766,0.366211,0.000000,-0.183105
8027382458,0.00177002,0.00796509,-1.00692749,0.366211,0.000000,-0.183105
8029937708,0.00177002,0.00796509,-1.00692749,0.122070,0.000000,-0.122070
8037545791,0.00129700,0.00723267,-1.00563049,0.122070,0.000000,-0.122070
8040096750,0.00129700,0.00723267,-1.00563049,0.305176,0.000000,0.000000
8047439291,0.00209045,0.00660706,-1.00665283,0.305176,0.000000,0.000000
8049984708,0.00209045,0.00660706,-1.00665283,0.244141,0.061035,-0.122070
8057586333,0.00277710,0.00695801,-1.00653076,0.244141,0.061035,-0.122070
8060127791,0.00277710,0.00695801,-1.00653076,0.427246,0.061035,-0.061035
8067741791,0.00119019,0.00723267,-1.00617981,0.427246,0.061035,-0.061035
8070219708,0.00119019,0.00723267,-1.00617981,0.427246,0.122070,-0.122070
8077398708,0.00189209,0.00646973,-1.00721741,0.427246,0.122070,-0.122070
8079954125,0.00189209,0.00646973,-1.00721741,0.305176,0.000000,-0.122070
8087574666,0.00193787,0.00677490,-1.00654602,0.305176,0.000000,-0.122070
8090119041,0.00193787,0.00677490,-1.00654602,0.427246,0.061035,-0.061035
8097415916,0.00247192,0.00631714,-1.00550842,0.427246,0.061035,-0.061035
8099970750,0.00247192,0.00631714,-1.00550842,0.244141,-0.061035,-0.122070
8107574458,0.00210571,0.00778198,-1.00582886,0.244141,-0.061035,-0.122070
8110116666,0.00210571,0.00778198,-1.00582886,0.427246,0.183105,-0.061035
8117244750,0.00151062,0.00720215,-1.00610352,0.427246,0.183105,-0.061035
8119803125,0.00151062,0.00720215,-1.00610352,0.305176,0.000000,-0.183105
8127415791,0.00097656,0.00665283,-1.00628662,0.305176,0.000000,-0.183105
8129962916,0.00097656,0.00665283,-1.00628662,0.427246,0.061035,-0.122070
8137555000,0.00160217,0.00657654,-1.00599670,0.427246,0.061035,-0.122070
8140093625,0.00160217,0.00657654,-1.00599670,0.427246,0.061035,-0.061035
8147899000,0.00192261,0.00770569,-1.00637817,0.427246,0.061035,-0.061035
8150448916,0.00192261,0.00770569,-1.00637817,0.183105,0.000000,-0.122070
8158054000,0.00198364,0.00695801,-1.00646973,0.183105,0.000000,-0.122070
8160601875,0.00198364,0.00695801,-1.00646973,0.244141,0.061035,-0.061035
8168224500,0.00288391,0.00794983,-1.00660706,0.244141,0.061035,-0.061035
8170777208,0.00288391,0.00794983,-1.00660706,0.305176,0.000000,-0.183105
8178402916,0.00209045,0.00772095,-1.00599670,0.305176,0.000000,-0.183105
8180956583,0.00209045,0.00772095,-1.00599670,0.305176,0.061035,0.000000
8186038583,0.00225830,0.00694275,-1.00642395,0.305176,0.061035,0.000000
8191107458,0.00225830,0.00694275,-1.00642395,0.427246,0.000000,-0.122070
8196187041,0.00166321,0.00762939,-1.00650024,0.427246,0.000000,-0.122070
8201254250,0.00166321,0.00762939,-1.00650024,0.305176,-0.061035,-0.061035
8206330958,0.00190735,0.00711060,-1.00622559,0.305176,-0.061035,-0.061035
8208878458,0.00190735,0.00711060,-1.00622559,0.305176,0.061035,-0.122070
8216485708,0.00199890,0.00703430,-1.00556946,0.305176,0.061035,-0.122070
8219032708,0.00199890,0.00703430,-1.00556946,0.427246,0.000000,-0.122070
8226622000,0.00289917,0.00697327,-1.00607300,0.427246,0.000000,-0.122070
8229161208,0.00289917,0.00697327,-1.00607300,0.366211,0.000000,-0.061035
8236767791,0.00317383,0.00689697,-1.00570679,0.366211,0.000000,-0.061035
8239325708,0.00317383,0.00689697,-1.00570679,0.366211,-0.061035,0.000000
8259186958,0.00213623,0.00706482,-1.00588989,0.366211,-0.061035,0.000000
8261804208,0.00189209,0.00703430,-1.00613403,0.366211,-0.061035,-0.061035
8261819625,0.00189209,0.00703430,-1.00613403,0.305176,0.000000,0.122070
8266976958,0.00236511,0.00729370,-1.00576782,0.305176,0.000000,0.122070
8269794958,0.00236511,0.00729370,-1.00576782,0.183105,0.000000,0.000000
8277486958,0.00190735,0.00724792,-1.00585938,0.183105,0.000000,0.000000
8279903958,0.00190735,0.00724792,-1.00585938,0.366211,0.000000,-0.061035
8287453958,0.00192261,0.00718689,-1.00674438,0.366211,0.000000,-0.061035
8289975833,0.00192261,0.00718689,-1.00674438,0.305176,0.122070,0.000000
8297515083,0.00144958,0.00711060,-1.00527954,0.305176,0.122070,0.000000
8300033791,0.00144958,0.00711060,-1.00527954,0.305176,0.122070,0.122070
8307588541,0.00146484,0.00712585,-1.00613403,0.305176,0.122070,0.122070
8310112208,0.00146484,0.00712585,-1.00613403,0.244141,0.061035,-0.061035
8317658583,0.00173950,0.00765991,-1.00643921,0.244141,0.061035,-0.061035
8320174416,0.00173950,0.00765991,-1.00643921,0.244141,-0.061035,-0.122070
8327724625,0.00222778,0.00756836,-1.00662231,0.244141,-0.061035,-0.122070
8330246375,0.00222778,0.00756836,-1.00662231,0.366211,0.122070,-0.061035
8337813333,0.00260925,0.00692749,-1.00573730,0.366211,0.122070,-0.061035
8340334083,0.00260925,0.00692749,-1.00573730,0.305176,0.061035,-0.122070
8347921125,0.00219727,0.00685120,-1.00662231,0.305176,0.061035,-0.122070
8350470708,0.00219727,0.00685120,-1.00662231,0.366211,0.000000,-0.122070
8358075333,0.00218201,0.00688171,-1.00524902,0.366211,0.000000,-0.122070
8360620291,0.00218201,0.00688171,-1.00524902,0.366211,0.061035,-0.061035
8368215416,0.00189209,0.00689697,-1.00611877,0.366211,0.061035,-0.061035
8370744458,0.00189209,0.00689697,-1.00611877,0.305176,0.122070,-0.122070
8378327458,0.00170898,0.00732422,-1.00642395,0.305176,0.122070,-0.122070
8380855041,0.00170898,0.00732422,-1.00642395,0.366211,0.000000,0.000000
8388134833,0.00198364,0.00733948,-1.00558472,0.366211,0.000000,0.000000
8390714916,0.00198364,0.00733948,-1.00558472,0.427246,0.061035,0.061035
8398315041,0.00140381,0.00709534,-1.00579834,0.427246,0.061035,0.061035
8400860000,0.00140381,0.00709534,-1.00579834,0.305176,0.061035,-0.122070
8408062416,0.00181580,0.00665283,-1.00674438,0.305176,0.061035,-0.122070
8410610291,0.00181580,0.00665283,-1.00674438,0.244141,0.000000,-0.122070
8417904250,0.00286865,0.00735474,-1.00621033,0.244141,0.000000,-0.122070
8420457750,0.00286865,0.00735474,-1.00621033,0.183105,0.000000,-0.061035
