timestamp_ns,accel_x,accel_y,accel_z,gyro_x,gyro_y,gyro_z
86619125,0.00210571,0.00672913,-1.00537109,0.000000,0.000000,0.000000
99271541,0.00210571,0.00672913,-1.00537109,0.244141,-0.061035,-0.122070
105034791,0.00143433,0.00628662,-1.00773621,0.244141,0.061035,-0.122070
107559875,0.00126648,0.00605774,-1.00628662,0.244141,0.061035,-0.122070
111148250,0.00126648,0.00605774,-1.00628662,0.366211,0.061035,-0.244141
113915458,0.00242615,0.00627136,-1.00543213,0.366211,0.061035,-0.244141
119204375,0.00242615,0.00627136,-1.00543213,0.427246,0.061035,0.061035
124863500,0.00236511,0.00683594,-1.00552368,0.427246,0.061035,0.061035
131339083,0.00236511,0.00683594,-1.00552368,0.244141,0.061035,-0.244141
134041375,0.00132751,0.00695801,-1.00683594,0.244141,0.061035,-0.244141
139768500,0.00132751,0.00695801,-1.00683594,0.427246,0.000000,-0.122070
144817833,0.00120544,0.00662231,-1.00712585,0.427246,0.000000,-0.122070
149909541,0.00120544,0.00662231,-1.00712585,0.305176,-0.061035,-0.183105
152435208,0.00161743,0.00762939,-1.00549316,0.305176,-0.061035,-0.183105
159987875,0.00161743,0.00762939,-1.00549316,0.183105,0.061035,-0.122070
162506541,0.00047302,0.00790405,-1.00604248,0.183105,0.061035,-0.122070
170089416,0.00047302,0.00790405,-1.00604248,0.427246,0.122070,0.000000
172614916,0.00045776,0.00985718,-1.00590515,0.427246,0.122070,0.000000
180163916,0.00045776,0.00985718,-1.00590515,0.366211,0.000000,0.000000
182682625,0.00071716,0.00904846,-1.00776672,0.366211,0.000000,0.000000
189983500,0.00071716,0.00904846,-1.00776672,0.305176,0.000000,0.061035
192516583,0.00108337,0.00875854,-1.00680542,0.305176,0.000000,0.061035
200112625,0.00108337,0.00875854,-1.00680542,0.366211,0.122070,-0.061035
202630125,0.00305176,0.00866699,-1.00714111,0.366211,0.122070,-0.061035
210216875,0.00305176,0.00866699,-1.00714111,0.305176,0.061035,-0.183105
212748625,0.00297546,0.00891113,-1.00704956,0.305176,0.061035,-0.183105
220217208,0.00297546,0.00891113,-1.00704956,0.366211,0.000000,0.000000
224886583,0.00189209,0.00750732,-1.00550842,0.366211,0.000000,0.000000
229950541,0.00189209,0.00750732,-1.00550842,0.183105,0.122070,-0.183105
232467125,0.00175476,0.00611877,-1.00585938,0.183105,0.122070,-0.183105
240037083,0.00175476,0.00611877,-1.00585938,0.366211,0.061035,0.000000
242553666,0.00204468,0.00614929,-1.00538635,0.366211,0.061035,0.000000
250119375,0.00204468,0.00614929,-1.00538635,0.366211,0.061035,-0.122070
252636666,0.00184631,0.00570679,-1.00637817,0.366211,0.061035,-0.122070
260203583,0.00184631,0.00570679,-1.00637817,0.427246,0.061035,-0.061035
262745083,0.00152588,0.00509644,-1.00668335,0.427246,0.061035,-0.061035
270270666,0.00152588,0.00509644,-1.00668335,0.366211,0.122070,0.000000
272786833,0.00090027,0.00651550,-1.00758362,0.366211,0.122070,0.000000
280120750,0.00090027,0.00651550,-1.00758362,0.183105,0.000000,-0.183105
282644000,0.00112915,0.00756836,-1.00619507,0.183105,0.000000,-0.183105
290211416,0.00112915,0.00756836,-1.00619507,0.122070,0.000000,-0.122070
292739250,0.00251770,0.00807190,-1.00619507,0.122070,0.000000,-0.122070
300286500,0.00251770,0.00807190,-1.00619507,0.244141,0.122070,-0.122070
302801458,0.00201416,0.00907898,-1.00564575,0.244141,0.122070,-0.122070
310344625,0.00201416,0.00907898,-1.00564575,0.305176,0.122070,-0.183105
312864541,0.00173950,0.00909424,-1.00711060,0.305176,0.122070,-0.183105
320402416,0.00173950,0.00909424,-1.00711060,0.183105,0.061035,-0.061035
322921750,0.00062561,0.00738525,-1.00633240,0.183105,0.061035,-0.061035
330463000,0.00062561,0.00738525,-1.00633240,0.366211,0.000000,-0.122070
332981541,0.00079346,0.00839233,-1.00639343,0.366211,0.000000,-0.122070
340105208,0.00079346,0.00839233,-1.00639343,0.305176,0.061035,-0.122070
342632541,0.00154114,0.00836182,-1.00616455,0.305176,0.061035,-0.122070
350217583,0.00154114,0.00836182,-1.00616455,0.427246,0.000000,-0.183105
352733708,0.00086975,0.00840759,-1.00714111,0.427246,0.000000,-0.183105
360336875,0.00086975,0.00840759,-1.00714111,0.366211,0.122070,-0.122070
362864208,0.00173950,0.00805664,-1.00714111,0.366211,0.122070,-0.122070
370405541,0.00173950,0.00805664,-1.00714111,0.305176,0.000000,-0.122070
372484125,0.00259399,0.00695801,-1.00747681,0.305176,0.000000,-0.122070
380033250,0.00259399,0.00695801,-1.00747681,0.305176,0.061035,-0.061035
382579583,0.00215149,0.00703430,-1.00639343,0.305176,0.061035,-0.061035
389914333,0.00215149,0.00703430,-1.00639343,0.305176,0.061035,-0.061035
394949125,0.00209045,0.00749207,-1.00622559,0.305176,0.061035,-0.061035
400040958,0.00209045,0.00749207,-1.00622559,0.366211,0.122070,-0.122070
402563541,0.00189209,0.00775146,-1.00650024,0.366211,0.122070,-0.122070
410162666,0.00189209,0.00775146,-1.00650024,0.183105,-0.061035,-0.122070
412701750,0.00157166,0.00683594,-1.00584412,0.183105,-0.061035,-0.122070
420273458,0.00157166,0.00683594,-1.00584412,0.183105,0.061035,0.000000
422829166,0.00172424,0.00685120,-1.00639343,0.183105,0.061035,0.000000
430305791,0.00172424,0.00685120,-1.00639343,0.183105,0.000000,-0.122070
432868000,0.00126648,0.00692749,-1.00665283,0.183105,0.000000,-0.122070
440069333,0.00126648,0.00692749,-1.00665283,0.305176,0.000000,-0.122070
442611458,0.00041199,0.00680542,-1.00709534,0.305176,0.000000,-0.122070
449816250,0.00041199,0.00680542,-1.00709534,0.244141,0.061035,-0.183105
454927000,0.00090027,0.00735474,-1.00634766,0.244141,0.061035,-0.183105
459302041,0.00090027,0.00735474,-1.00634766,0.305176,0.000000,-0.122070
464365041,0.00167847,0.00807190,-1.00585938,0.305176,0.000000,-0.122070
469357875,0.00167847,0.00807190,-1.00585938,0.305176,-0.061035,-0.122070
474446916,0.00120544,0.00865173,-1.00683594,0.305176,-0.061035,-0.122070
479531208,0.00120544,0.00865173,-1.00683594,0.488281,0.183105,0.061035
484346416,0.00178528,0.00866699,-1.00695801,0.488281,0.183105,0.061035
489427125,0.00178528,0.00866699,-1.00695801,0.183105,0.061035,-0.122070
494356291,0.00273132,0.00851440,-1.00677490,0.183105,0.061035,-0.122070
499442750,0.00273132,0.00851440,-1.00677490,0.488281,0.061035,0.061035
504513541,0.00242615,0.00881958,-1.00607300,0.488281,0.061035,0.061035
509432333,0.00242615,0.00881958,-1.00607300,0.305176,-0.122070,-0.183105
514523458,0.00187683,0.00834656,-1.00593567,0.305176,-0.122070,-0.183105
519343875,0.00187683,0.00834656,-1.00593567,0.305176,0.122070,-0.061035
523975208,0.00167847,0.00727844,-1.00515747,0.305176,0.122070,-0.061035
529060375,0.00167847,0.00727844,-1.00515747,0.305176,0.000000,-0.122070
534125958,0.00061035,0.00692749,-1.00715637,0.305176,0.000000,-0.122070
539206416,0.00061035,0.00692749,-1.00715637,0.122070,0.122070,-0.122070
544269625,0.00132751,0.00718689,-1.00671387,0.122070,0.122070,-0.122070
549353125,0.00132751,0.00718689,-1.00671387,0.305176,0.000000,-0.061035
554428250,0.00088501,0.00643921,-1.00700378,0.305176,0.000000,-0.061035
559111625,0.00088501,0.00643921,-1.00700378,0.305176,-0.061035,-0.061035
564210416,0.00061035,0.00680542,-1.00717163,0.305176,-0.061035,-0.061035
569051250,0.00061035,0.00680542,-1.00717163,0.183105,0.061035,-0.183105
574199083,0.00135803,0.00767517,-1.00703430,0.183105,0.061035,-0.183105
579418083,0.00135803,0.00767517,-1.00703430,0.244141,0.122070,-0.061035
584391583,0.00222778,0.00732422,-1.00646973,0.244141,0.122070,-0.061035
589516708,0.00222778,0.00732422,-1.00646973,0.366211,0.244141,-0.122070
594786541,0.00209045,0.00700378,-1.00648499,0.366211,0.244141,-0.122070
599871250,0.00209045,0.00700378,-1.00648499,0.244141,0.122070,-0.183105
604981333,0.00265503,0.00785828,-1.00617981,0.244141,0.122070,-0.183105
610109916,0.00265503,0.00785828,-1.00617981,0.305176,0.061035,-0.061035
612675208,0.00286865,0.00798035,-1.00599670,0.305176,0.061035,-0.061035
620299833,0.00286865,0.00798035,-1.00599670,0.305176,0.000000,-0.061035
622857458,0.00210571,0.00726318,-1.00592041,0.305176,0.000000,-0.061035
630269875,0.00210571,0.00726318,-1.00592041,0.427246,-0.061035,-0.122070
632829666,0.00070190,0.00814819,-1.00717163,0.427246,-0.061035,-0.122070
640428000,0.00070190,0.00814819,-1.00717163,0.305176,0.061035,0.000000
642970750,0.00085449,0.00756836,-1.00598145,0.305176,0.061035,0.000000
650589833,0.00085449,0.00756836,-1.00598145,0.305176,0.061035,-0.061035
653131458,0.00169373,0.00740051,-1.00639343,0.305176,0.061035,-0.061035
660726791,0.00169373,0.00740051,-1.00639343,0.122070,0.000000,-0.122070
663274583,0.00068665,0.00759888,-1.00712585,0.122070,0.000000,-0.122070
670880208,0.00068665,0.00759888,-1.00712585,0.366211,0.122070,-0.061035
673182333,0.00152588,0.00730896,-1.00712585,0.366211,0.122070,-0.061035
680751041,0.00152588,0.00730896,-1.00712585,0.427246,0.183105,0.000000
683319541,0.00201416,0.00689697,-1.00697327,0.427246,0.183105,0.000000
690943708,0.00201416,0.00689697,-1.00697327,0.305176,0.061035,0.000000
693518583,0.00251770,0.00737000,-1.00634766,0.305176,0.061035,0.000000
701010166,0.00251770,0.00737000,-1.00634766,0.366211,0.061035,-0.183105
703572708,0.00260925,0.00604248,-1.00656128,0.366211,0.061035,-0.183105
711223208,0.00260925,0.00604248,-1.00656128,0.427246,-0.061035,-0.183105
713783041,0.00137329,0.00614929,-1.00642395,0.427246,-0.061035,-0.183105
720914958,0.00137329,0.00614929,-1.00642395,0.244141,-0.061035,-0.061035
723466333,0.00209045,0.00700378,-1.00677490,0.244141,-0.061035,-0.061035
731069958,0.00209045,0.00700378,-1.00677490,0.305176,-0.061035,-0.122070
733627333,0.00268555,0.00762939,-1.00723267,0.305176,-0.061035,-0.122070
740979666,0.00268555,0.00762939,-1.00723267,0.427246,0.061035,0.000000
743526083,0.00186157,0.00712585,-1.00706482,0.427246,0.061035,0.000000
751052958,0.00186157,0.00712585,-1.00706482,0.305176,0.061035,-0.122070
753591625,0.00125122,0.00680542,-1.00582886,0.305176,0.061035,-0.122070
761214041,0.00125122,0.00680542,-1.00582886,0.366211,0.122070,0.061035
763764500,0.00160217,0.00770569,-1.00691223,0.366211,0.122070,0.061035
771352833,0.00160217,0.00770569,-1.00691223,0.305176,0.183105,-0.061035
773921541,0.00280762,0.00929260,-1.00596619,0.305176,0.183105,-0.061035
781045833,0.00280762,0.00929260,-1.00596619,0.244141,-0.061035,-0.061035
783633583,0.00167847,0.00971985,-1.00726318,0.244141,-0.061035,-0.061035
790875875,0.00167847,0.00971985,-1.00726318,0.366211,0.061035,-0.061035
793430000,0.00154114,0.00857544,-1.00680542,0.366211,0.061035,-0.061035
800991291,0.00154114,0.00857544,-1.00680542,0.427246,0.061035,-0.122070
803554625,-0.00032043,0.00892639,-1.00671387,0.427246,0.061035,-0.122070
811195000,-0.00032043,0.00892639,-1.00671387,0.305176,0.061035,-0.061035
813779666,0.00035095,0.00822449,-1.00625610,0.305176,0.061035,-0.061035
821254041,0.00035095,0.00822449,-1.00625610,0.427246,0.000000,-0.061035
823623875,0.00086975,0.00588989,-1.00621033,0.427246,0.000000,-0.061035
831234916,0.00086975,0.00588989,-1.00621033,0.244141,0.000000,-0.122070
833790458,0.00093079,0.00625610,-1.00656128,0.244141,0.000000,-0.122070
841423500,0.00093079,0.00625610,-1.00656128,0.305176,0.122070,-0.061035
843974000,0.00094604,0.00669861,-1.00741577,0.305176,0.122070,-0.061035
851589333,0.00094604,0.00669861,-1.00741577,0.366211,0.122070,0.000000
854127750,0.00251770,0.00628662,-1.00613403,0.366211,0.122070,0.000000
861757833,0.00251770,0.00628662,-1.00613403,0.244141,0.000000,-0.061035
864322000,0.00245667,0.00730896,-1.00613403,0.244141,0.000000,-0.061035
871938625,0.00245667,0.00730896,-1.00613403,0.305176,0.061035,-0.061035
874527458,0.00241089,0.00724792,-1.00598145,0.305176,0.061035,-0.061035
879651750,0.00241089,0.00724792,-1.00598145,0.244141,0.000000,-0.122070
884665791,0.00198364,0.00648499,-1.00729370,0.244141,0.000000,-0.122070
889755166,0.00198364,0.00648499,-1.00729370,0.305176,0.122070,-0.061035
894834791,0.00225830,0.00662231,-1.00614929,0.305176,0.122070,-0.061035
899924208,0.00225830,0.00662231,-1.00614929,0.305176,0.183105,-0.244141
905023875,0.00158691,0.00648499,-1.00691223,0.305176,0.183105,-0.244141
910156833,0.00158691,0.00648499,-1.00691223,0.305176,-0.061035,-0.122070
912705666,0.00108337,0.00787354,-1.00750732,0.305176,-0.061035,-0.122070
920585333,0.00108337,0.00787354,-1.00750732,0.305176,0.000000,-0.122070
923160250,0.00082397,0.00782776,-1.00753784,0.305176,0.000000,-0.122070
930780583,0.00082397,0.00782776,-1.00753784,0.244141,0.000000,-0.183105
933332750,0.00086975,0.00802612,-1.00643921,0.244141,0.000000,-0.183105
940895458,0.00086975,0.00802612,-1.00643921,0.366211,0.000000,0.000000
943415625,0.00157166,0.00729370,-1.00651550,0.366211,0.000000,0.000000
950614458,0.00157166,0.00729370,-1.00651550,0.305176,0.000000,-0.061035
952891375,0.00148010,0.00802612,-1.00610352,0.305176,0.000000,-0.061035
959864958,0.00148010,0.00802612,-1.00610352,0.366211,0.061035,0.000000
964494791,0.00221252,0.00823975,-1.00740051,0.366211,0.061035,0.000000
971757291,0.00221252,0.00823975,-1.00740051,0.488281,0.122070,0.061035
974267250,0.00273132,0.00910950,-1.00619507,0.488281,0.122070,0.061035
979285750,0.00273132,0.00910950,-1.00619507,0.305176,0.000000,0.000000
984317166,0.00219727,0.00839233,-1.00663757,0.305176,0.000000,0.000000
989340125,0.00219727,0.00839233,-1.00663757,0.244141,0.122070,-0.122070
994373916,0.00158691,0.00820923,-1.00590515,0.244141,0.122070,-0.122070
999413000,0.00158691,0.00820923,-1.00590515,0.305176,0.000000,-0.061035
1004455541,0.00079346,0.00677490,-1.00588989,0.305176,0.000000,-0.061035
1009317375,0.00079346,0.00677490,-1.00588989,0.427246,0.061035,-0.122070
1014366916,0.00141907,0.00668335,-1.00596619,0.427246,0.061035,-0.122070
1019406000,0.00141907,0.00668335,-1.00596619,0.366211,0.061035,0.061035
1024445333,0.00144958,0.00686646,-1.00607300,0.366211,0.061035,0.061035
1029485625,0.00144958,0.00686646,-1.00607300,0.305176,0.000000,-0.122070
1034505958,0.00077820,0.00677490,-1.00596619,0.305176,0.000000,-0.122070
1039549708,0.00077820,0.00677490,-1.00596619,0.244141,-0.061035,-0.183105
1044591750,0.00131226,0.00692749,-1.00624084,0.244141,-0.061035,-0.183105
1049628916,0.00131226,0.00692749,-1.00624084,0.244141,0.000000,-0.061035
1054669416,0.00274658,0.00758362,-1.00610352,0.244141,0.000000,-0.061035
1059707250,0.00274658,0.00758362,-1.00610352,0.305176,0.000000,-0.122070
1064751500,0.00143433,0.00842285,-1.00688171,0.305176,0.000000,-0.122070
1069788958,0.00143433,0.00842285,-1.00688171,0.244141,-0.122070,-0.061035
1074860833,0.00158691,0.00889587,-1.00614929,0.244141,-0.122070,-0.061035
1079920208,0.00158691,0.00889587,-1.00614929,0.183105,0.000000,-0.122070
1084980291,0.00163269,0.00802612,-1.00720215,0.183105,0.000000,-0.122070
1090018458,0.00163269,0.00802612,-1.00720215,0.244141,0.000000,0.000000
1095076000,0.00184631,0.00804138,-1.00567627,0.244141,0.000000,0.000000
1100138916,0.00184631,0.00804138,-1.00567627,0.366211,0.061035,0.000000
1102658708,-0.00007629,0.00723267,-1.00691223,0.366211,0.061035,0.000000
1110240333,-0.00007629,0.00723267,-1.00691223,0.366211,0.244141,-0.061035
1112765791,0.00077820,0.00773621,-1.00723267,0.366211,0.244141,-0.061035
1120329875,0.00077820,0.00773621,-1.00723267,0.244141,0.000000,0.000000
1122856958,0.00151062,0.00782776,-1.00588989,0.244141,0.000000,0.000000
1130473500,0.00151062,0.00782776,-1.00588989,0.366211,0.061035,-0.122070
1133017833,0.00198364,0.00764465,-1.00613403,0.366211,0.061035,-0.122070
1140644541,0.00198364,0.00764465,-1.00613403,0.305176,0.000000,-0.061035
1143200208,0.00253296,0.00712585,-1.00590515,0.305176,0.000000,-0.061035
1150776583,0.00253296,0.00712585,-1.00590515,0.244141,0.122070,0.000000
1153301000,0.00175476,0.00634766,-1.00666809,0.244141,0.122070,0.000000
1159946916,0.00175476,0.00634766,-1.00666809,0.305176,-0.122070,-0.183105
1165046833,0.00230408,0.00714111,-1.00660706,0.305176,-0.122070,-0.183105
1170137750,0.00230408,0.00714111,-1.00660706,0.305176,0.000000,-0.122070
1172673166,0.00210571,0.00740051,-1.00718689,0.305176,0.000000,-0.122070
1180272291,0.00210571,0.00740051,-1.00718689,0.244141,-0.061035,-0.061035
1182825625,0.00228882,0.00775146,-1.00695801,0.244141,-0.061035,-0.061035
1190426875,0.00228882,0.00775146,-1.00695801,0.366211,0.122070,-0.183105
1192974375,0.00227356,0.00785828,-1.00709534,0.366211,0.122070,-0.183105
1200566333,0.00227356,0.00785828,-1.00709534,0.305176,0.122070,-0.061035
1203105166,0.00213623,0.00741577,-1.00659180,0.305176,0.122070,-0.061035
1210702583,0.00213623,0.00741577,-1.00659180,0.305176,-0.122070,-0.061035
1213263125,0.00158691,0.00831604,-1.00675964,0.305176,-0.122070,-0.061035
1220865125,0.00158691,0.00831604,-1.00675964,0.366211,0.183105,-0.061035
1223408625,0.00128174,0.00845337,-1.00610352,0.366211,0.183105,-0.061035
1231004000,0.00128174,0.00845337,-1.00610352,0.305176,0.061035,0.122070
1233545708,0.00039673,0.00811768,-1.00662231,0.305176,0.061035,0.122070
1241138000,0.00039673,0.00811768,-1.00662231,0.244141,0.061035,-0.183105
1243680041,0.00201416,0.00791931,-1.00624084,0.244141,0.061035,-0.183105
1251268208,0.00201416,0.00791931,-1.00624084,0.244141,0.061035,0.000000
1253820625,0.00265503,0.00788879,-1.00625610,0.244141,0.061035,0.000000
1261446916,0.00265503,0.00788879,-1.00625610,0.427246,0.061035,-0.061035
1263997791,0.00250244,0.00750732,-1.00666809,0.427246,0.061035,-0.061035
1271525750,0.00250244,0.00750732,-1.00666809,0.305176,-0.061035,-0.183105
1273667666,0.00221252,0.00735474,-1.00680542,0.305176,-0.061035,-0.183105
1280834750,0.00221252,0.00735474,-1.00680542,0.244141,0.061035,-0.061035
1283386416,0.00140381,0.00720215,-1.00646973,0.244141,0.061035,-0.061035
1290742333,0.00140381,0.00720215,-1.00646973,0.305176,0.000000,-0.122070
1293314791,0.00137329,0.00712585,-1.00588989,0.305176,0.000000,-0.122070
1300630500,0.00137329,0.00712585,-1.00588989,0.183105,0.061035,-0.122070
1303180708,0.00143433,0.00773621,-1.00576782,0.183105,0.061035,-0.122070
1310868541,0.00143433,0.00773621,-1.00576782,0.305176,-0.061035,-0.183105
1313441708,0.00199890,0.00689697,-1.00711060,0.305176,-0.061035,-0.183105
1321065541,0.00199890,0.00689697,-1.00711060,0.427246,0.061035,-0.061035
1323690541,0.00262451,0.00756836,-1.00578308,0.427246,0.061035,-0.061035
1331411166,0.00262451,0.00756836,-1.00578308,0.366211,0.061035,0.000000
1333981916,0.00213623,0.00715637,-1.00720215,0.366211,0.061035,0.000000
1341621750,0.00213623,0.00715637,-1.00720215,0.183105,0.061035,-0.122070
1344200208,0.00161743,0.00776672,-1.00592041,0.183105,0.061035,-0.122070
1349279750,0.00161743,0.00776672,-1.00592041,0.305176,0.061035,-0.305176
1354352666,0.00141907,0.00840759,-1.00556946,0.305176,0.061035,-0.305176
1359449333,0.00141907,0.00840759,-1.00556946,0.305176,0.000000,0.000000
1364533041,0.00195312,0.00851440,-1.00547791,0.305176,0.000000,0.000000
1369596416,0.00195312,0.00851440,-1.00547791,0.305176,0.000000,0.000000
1374684708,0.00164795,0.00750732,-1.00743103,0.305176,0.000000,0.000000
1379781958,0.00164795,0.00750732,-1.00743103,0.305176,0.000000,-0.122070
1384880375,0.00039673,0.00747681,-1.00749207,0.305176,0.000000,-0.122070
1389974083,0.00039673,0.00747681,-1.00749207,0.305176,-0.122070,-0.061035
1395126791,0.00122070,0.00724792,-1.00675964,0.305176,-0.122070,-0.061035
1400268166,0.00122070,0.00724792,-1.00675964,0.366211,0.061035,-0.061035
1402825416,0.00236511,0.00851440,-1.00737000,0.366211,0.061035,-0.061035
1410464375,0.00236511,0.00851440,-1.00737000,0.427246,0.061035,-0.122070
1413031916,0.00231934,0.00816345,-1.00747681,0.427246,0.061035,-0.122070
1420303125,0.00231934,0.00816345,-1.00747681,0.244141,0.061035,-0.183105
1422864666,0.00248718,0.00816345,-1.00663757,0.244141,0.061035,-0.183105
1430228875,0.00248718,0.00816345,-1.00663757,0.305176,0.000000,-0.061035
1432782166,0.00241089,0.00801086,-1.00663757,0.305176,0.000000,-0.061035
1440374458,0.00241089,0.00801086,-1.00663757,0.305176,0.000000,-0.061035
1445184333,0.00155640,0.00833130,-1.00666809,0.305176,0.000000,-0.061035
1450302791,0.00155640,0.00833130,-1.00666809,0.366211,0.122070,-0.061035
1452865041,0.00141907,0.00811768,-1.00645447,0.366211,0.122070,-0.061035
1460496416,0.00141907,0.00811768,-1.00645447,0.366211,0.183105,0.000000
1463048458,0.00184631,0.00834656,-1.00546265,0.366211,0.183105,0.000000
1470248916,0.00184631,0.00834656,-1.00546265,0.244141,0.000000,-0.061035
1472809000,0.00148010,0.00706482,-1.00656128,0.244141,0.000000,-0.061035
1480002166,0.00148010,0.00706482,-1.00656128,0.366211,0.061035,-0.122070
1485219500,0.00079346,0.00775146,-1.00721741,0.366211,0.061035,-0.122070
1490368250,0.00079346,0.00775146,-1.00721741,0.366211,0.061035,-0.122070
1495276333,0.00181580,0.00793457,-1.00741577,0.366211,0.061035,-0.122070
1500477916,0.00181580,0.00793457,-1.00741577,0.305176,0.000000,-0.061035
1503067291,0.00164795,0.00769043,-1.00708008,0.305176,0.000000,-0.061035
1510730083,0.00164795,0.00769043,-1.00708008,0.366211,0.061035,-0.122070
1513321750,0.00085449,0.00718689,-1.00698853,0.366211,0.061035,-0.122070
1520993625,0.00085449,0.00718689,-1.00698853,0.366211,0.122070,-0.061035
1523612666,0.00106812,0.00672913,-1.00703430,0.366211,0.122070,-0.061035
1531284708,0.00106812,0.00672913,-1.00703430,0.305176,0.061035,-0.122070
1533880291,0.00071716,0.00746155,-1.00581360,0.305176,0.061035,-0.122070
1541153375,0.00071716,0.00746155,-1.00581360,0.244141,0.122070,0.000000
1543707750,0.00126648,0.00822449,-1.00650024,0.244141,0.122070,0.000000
1551385666,0.00126648,0.00822449,-1.00650024,0.427246,0.183105,-0.122070
1553856958,0.00195312,0.00718689,-1.00602722,0.427246,0.183105,-0.122070
1561472708,0.00195312,0.00718689,-1.00602722,0.305176,0.000000,-0.183105
1564076458,0.00108337,0.00801086,-1.00709534,0.305176,0.000000,-0.183105
1569235166,0.00108337,0.00801086,-1.00709534,0.366211,0.122070,-0.183105
1574326791,0.00151062,0.00804138,-1.00720215,0.366211,0.122070,-0.183105
1579495750,0.00151062,0.00804138,-1.00720215,0.366211,0.122070,-0.061035
1584618000,0.00135803,0.00866699,-1.00694275,0.366211,0.122070,-0.061035
1589700416,0.00135803,0.00866699,-1.00694275,0.549316,0.061035,-0.061035
1594826750,0.00132751,0.00737000,-1.00724792,0.549316,0.061035,-0.061035
1599972125,0.00132751,0.00737000,-1.00724792,0.427246,0.122070,0.061035
1605051708,0.00135803,0.00668335,-1.00744629,0.427246,0.122070,0.061035
1610141875,0.00135803,0.00668335,-1.00744629,0.244141,0.122070,-0.061035
1612734208,0.00091553,0.00724792,-1.00732422,0.244141,0.122070,-0.061035
1620214125,0.00091553,0.00724792,-1.00732422,0.183105,0.000000,-0.305176
1622767958,0.00160217,0.00746155,-1.00642395,0.183105,0.000000,-0.305176
1629894833,0.00160217,0.00746155,-1.00642395,0.305176,0.061035,-0.122070
1634968375,0.00195312,0.00663757,-1.00672913,0.305176,0.061035,-0.122070
1640045166,0.00195312,0.00663757,-1.00672913,0.244141,0.061035,-0.183105
1645124958,0.00068665,0.00729370,-1.00769043,0.244141,0.061035,-0.183105
1650254916,0.00068665,0.00729370,-1.00769043,0.305176,0.000000,-0.061035
1652826333,0.00134277,0.00724792,-1.00761414,0.305176,0.000000,-0.061035
1660411166,0.00134277,0.00724792,-1.00761414,0.305176,0.000000,-0.122070
1662948916,0.00190735,0.00752258,-1.00651550,0.305176,0.000000,-0.122070
1670568958,0.00190735,0.00752258,-1.00651550,0.183105,-0.061035,-0.183105
1673123708,0.00160217,0.00730896,-1.00569153,0.183105,-0.061035,-0.183105
1680724958,0.00160217,0.00730896,-1.00569153,0.305176,0.061035,0.061035
1683308958,0.00138855,0.00807190,-1.00740051,0.305176,0.061035,0.061035
1690919041,0.00138855,0.00807190,-1.00740051,0.305176,0.061035,-0.061035
1693464166,-0.00001526,0.00787354,-1.00662231,0.305176,0.061035,-0.061035
1701053791,-0.00001526,0.00787354,-1.00662231,0.427246,0.061035,-0.122070
1703595208,0.00123596,0.00764465,-1.00660706,0.427246,0.061035,-0.122070
1711216958,0.00123596,0.00764465,-1.00660706,0.305176,0.061035,-0.122070
1713796791,0.00138855,0.00779724,-1.00675964,0.305176,0.061035,-0.122070
1721366458,0.00138855,0.00779724,-1.00675964,0.305176,0.000000,-0.061035
1723949833,0.00132751,0.00706482,-1.00669861,0.305176,0.000000,-0.061035
1731556375,0.00132751,0.00706482,-1.00669861,0.366211,0.061035,0.000000
1734102250,0.00199890,0.00769043,-1.00672913,0.366211,0.061035,0.000000
1741716666,0.00199890,0.00769043,-1.00672913,0.305176,0.000000,-0.244141
1743877958,0.00267029,0.00787354,-1.00718689,0.305176,0.000000,-0.244141
1751499541,0.00267029,0.00787354,-1.00718689,0.366211,0.122070,-0.122070
1754058625,0.00216675,0.00759888,-1.00718689,0.366211,0.122070,-0.122070
1761140916,0.00216675,0.00759888,-1.00718689,0.366211,0.122070,0.000000
1763252791,0.00177002,0.00729370,-1.00659180,0.366211,0.122070,0.000000
1770951875,0.00177002,0.00729370,-1.00659180,0.305176,0.122070,-0.061035
1773514333,0.00219727,0.00825500,-1.00733948,0.305176,0.122070,-0.061035
1780963875,0.00219727,0.00825500,-1.00733948,0.366211,0.122070,-0.061035
1783520708,0.00248718,0.00772095,-1.00674438,0.366211,0.122070,-0.061035
1791137375,0.00248718,0.00772095,-1.00674438,0.244141,0.061035,-0.061035
1793687458,0.00173950,0.00782776,-1.00788879,0.244141,0.061035,-0.061035
1801073250,0.00173950,0.00782776,-1.00788879,0.305176,0.000000,-0.122070
1803634583,0.00114441,0.00764465,-1.00712585,0.305176,0.000000,-0.122070
1811018416,0.00114441,0.00764465,-1.00712585,0.244141,0.183105,-0.122070
1813450291,0.00079346,0.00721741,-1.00517273,0.244141,0.183105,-0.122070
1821042333,0.00079346,0.00721741,-1.00517273,0.366211,0.061035,-0.122070
1823604916,0.00128174,0.00727844,-1.00546265,0.366211,0.061035,-0.122070
1831227791,0.00128174,0.00727844,-1.00546265,0.427246,-0.061035,-0.061035
1833785166,0.00170898,0.00726318,-1.00694275,0.427246,-0.061035,-0.061035
1841393041,0.00170898,0.00726318,-1.00694275,0.305176,0.000000,-0.183105
1843946625,0.00180054,0.00723267,-1.00784302,0.305176,0.000000,-0.183105
1851540208,0.00180054,0.00723267,-1.00784302,0.427246,0.061035,-0.061035
1854091291,0.00109863,0.00717163,-1.00601196,0.427246,0.061035,-0.061035
1861695250,0.00109863,0.00717163,-1.00601196,0.183105,0.061035,-0.122070
1864253250,0.00169373,0.00709534,-1.00660706,0.183105,0.061035,-0.122070
1869325583,0.00169373,0.00709534,-1.00660706,0.244141,0.122070,-0.183105
1874152291,0.00270081,0.00709534,-1.00683594,0.244141,0.122070,-0.183105
1881583208,0.00270081,0.00709534,-1.00683594,0.305176,0.061035,-0.061035
1884142041,0.00172424,0.00704956,-1.00660706,0.305176,0.061035,-0.061035
1889262583,0.00172424,0.00704956,-1.00660706,0.305176,0.061035,-0.061035
1894354208,0.00103760,0.00823975,-1.00648499,0.305176,0.061035,-0.061035
1899447500,0.00103760,0.00823975,-1.00648499,0.305176,0.122070,-0.183105
1904513666,0.00224304,0.00886536,-1.00648499,0.305176,0.122070,-0.183105
1909310500,0.00224304,0.00886536,-1.00648499,0.305176,0.122070,-0.061035
1914427958,0.00173950,0.00796509,-1.00595093,0.305176,0.122070,-0.061035
1919522708,0.00173950,0.00796509,-1.00595093,0.305176,0.122070,-0.122070
1924617458,0.00131226,0.00920105,-1.00721741,0.305176,0.122070,-0.122070
1929707250,0.00131226,0.00920105,-1.00721741,0.793457,-0.061035,0.061035
1934688000,0.00135803,0.00872803,-1.00579834,0.793457,-0.061035,0.061035
1939774083,0.00135803,0.00872803,-1.00579834,0.671387,-0.061035,-0.183105
1944854125,0.00161743,0.00770569,-1.00231934,0.671387,-0.061035,-0.183105
1949935500,0.00161743,0.00770569,-1.00231934,0.061035,0.000000,0.000000
1955018791,0.00292969,0.00582886,-1.00572205,0.061035,0.000000,0.000000
1959819458,0.00292969,0.00582886,-1.00572205,0.122070,0.122070,0.000000
1964904791,0.00256348,0.00645447,-1.01905823,0.122070,0.122070,0.000000
1969972083,0.00256348,0.00645447,-1.01905823,0.183105,0.061035,-0.061035
1975041666,0.00169373,0.00967407,-1.00538635,0.183105,0.061035,-0.061035
1980122083,0.00169373,0.00967407,-1.00538635,0.000000,0.122070,0.061035
1985083625,0.00154114,0.00935364,-1.00112915,0.000000,0.122070,0.061035
1990176541,0.00154114,0.00935364,-1.00112915,0.122070,0.000000,-0.122070
1995156791,0.00146484,0.00843811,-1.00657654,0.122070,0.000000,-0.122070
2000244416,0.00146484,0.00843811,-1.00657654,0.305176,0.061035,-0.061035
2002793833,0.00106812,0.00772095,-1.00805664,0.305176,0.061035,-0.061035
2010398083,0.00106812,0.00772095,-1.00805664,0.244141,0.061035,0.000000
2012944333,0.00169373,0.00691223,-1.00341797,0.244141,0.061035,0.000000
2020356541,0.00169373,0.00691223,-1.00341797,0.183105,-0.061035,-0.061035
2022903875,0.00108337,0.00558472,-1.00602722,0.183105,-0.061035,-0.061035
2030510666,0.00108337,0.00558472,-1.00602722,0.122070,0.000000,-0.061035
2033062041,0.00059509,0.00686646,-1.00767517,0.122070,0.000000,-0.061035
2040669541,0.00059509,0.00686646,-1.00767517,0.061035,0.000000,-0.061035
2043214416,0.00057983,0.00683594,-1.00599670,0.061035,0.000000,-0.061035
2050815166,0.00057983,0.00683594,-1.00599670,0.183105,0.061035,-0.183105
2053164000,0.00181580,0.00672913,-1.00698853,0.183105,0.061035,-0.183105
2060714583,0.00181580,0.00672913,-1.00698853,0.061035,0.061035,0.000000
2063251833,0.00225830,0.00662231,-1.00616455,0.061035,0.061035,0.000000
2070829750,0.00225830,0.00662231,-1.00616455,0.244141,-0.061035,-0.122070
2073386500,0.00282288,0.00825500,-1.00871277,0.244141,-0.061035,-0.122070
2080968750,0.00282288,0.00825500,-1.00871277,0.366211,0.061035,-0.061035
2083509875,0.00248718,0.00910950,-1.00604248,0.366211,0.061035,-0.061035
2090804125,0.00248718,0.00910950,-1.00604248,0.305176,0.000000,-0.183105
2093303875,0.00238037,0.00834656,-1.00642395,0.305176,0.000000,-0.183105
2100922458,0.00238037,0.00834656,-1.00642395,0.122070,0.061035,-0.061035
2103460666,0.00157166,0.00833130,-1.00573730,0.122070,0.061035,-0.061035
2111055666,0.00157166,0.00833130,-1.00573730,0.244141,0.061035,-0.122070
2113602708,0.00129700,0.00772095,-1.00769043,0.244141,0.061035,-0.122070
2121232916,0.00129700,0.00772095,-1.00769043,0.305176,0.000000,0.000000
2123781708,0.00035095,0.00701904,-1.00737000,0.305176,0.000000,0.000000
2131033875,0.00035095,0.00701904,-1.00737000,0.244141,0.061035,0.000000
2133596416,0.00068665,0.00627136,-1.00559998,0.244141,0.061035,0.000000
2141180833,0.00068665,0.00627136,-1.00559998,0.183105,0.061035,-0.061035
2143710708,0.00177002,0.00791931,-1.00587463,0.183105,0.061035,-0.061035
2150852958,0.00177002,0.00791931,-1.00587463,0.244141,0.061035,-0.122070
2153398083,0.00138855,0.00788879,-1.00697327,0.244141,0.061035,-0.122070
2160968000,0.00138855,0.00788879,-1.00697327,0.305176,-0.061035,-0.122070
2163511208,0.00091553,0.00782776,-1.00552368,0.305176,-0.061035,-0.122070
2171124500,0.00091553,0.00782776,-1.00552368,0.366211,0.122070,-0.183105
2173660750,0.00167847,0.01040649,-1.00489807,0.366211,0.122070,-0.183105
2181012500,0.00167847,0.01040649,-1.00489807,0.305176,0.122070,-0.061035
2183548333,0.00210571,0.01000977,-1.00663757,0.305176,0.122070,-0.061035
2191147208,0.00210571,0.01000977,-1.00663757,0.244141,0.000000,-0.122070
2193696666,0.00267029,0.00933838,-1.00698853,0.244141,0.000000,-0.122070
2201306541,0.00267029,0.00933838,-1.00698853,0.244141,0.061035,-0.061035
2203871833,0.00148010,0.00857544,-1.00627136,0.244141,0.061035,-0.061035
2211507750,0.00148010,0.00857544,-1.00627136,0.427246,0.244141,-0.061035
2214080708,0.00129700,0.00843811,-1.00709534,0.427246,0.244141,-0.061035
2221849458,0.00129700,0.00843811,-1.00709534,0.427246,0.061035,-0.061035
2224405333,0.00160217,0.00773621,-1.00654602,0.427246,0.061035,-0.061035
2229499208,0.00160217,0.00773621,-1.00654602,0.366211,-0.061035,-0.061035
2234275000,0.00138855,0.00793457,-1.00724792,0.366211,-0.061035,-0.061035
2241432958,0.00138855,0.00793457,-1.00724792,0.549316,0.000000,-0.061035
2243986583,0.00225830,0.00775146,-1.00465393,0.549316,0.000000,-0.061035
2251607166,0.00225830,0.00775146,-1.00465393,0.427246,0.122070,-0.061035
2253799833,0.00242615,0.00805664,-1.00643921,0.427246,0.122070,-0.061035
2261425458,0.00242615,0.00805664,-1.00643921,0.427246,0.061035,-0.122070
2263971833,0.00192261,0.00918579,-1.00601196,0.427246,0.061035,-0.122070
2271579041,0.00192261,0.00918579,-1.00601196,0.366211,0.061035,-0.183105
2274171541,0.00187683,0.00758362,-1.00802612,0.366211,0.061035,-0.183105
2281794041,0.00187683,0.00758362,-1.00802612,0.305176,0.000000,0.000000
2284349833,0.00244141,0.00718689,-1.00781250,0.305176,0.000000,0.000000
2291537375,0.00244141,0.00718689,-1.00781250,0.244141,0.122070,-0.244141
2294085041,0.00161743,0.00711060,-1.00846863,0.244141,0.122070,-0.244141
2301699958,0.00161743,0.00711060,-1.00846863,0.366211,0.061035,-0.061035
2304226291,0.00233459,0.00717163,-1.00604248,0.366211,0.061035,-0.061035
2309297666,0.00233459,0.00717163,-1.00604248,0.183105,0.000000,-0.244141
2314131125,0.00186157,0.00721741,-1.00581360,0.183105,0.000000,-0.244141
2321632666,0.00186157,0.00721741,-1.00581360,0.305176,0.000000,-0.061035
2324160291,0.00196838,0.00657654,-1.00714111,0.305176,0.000000,-0.061035
2331544500,0.00196838,0.00657654,-1.00714111,0.305176,0.000000,-0.061035
2334085500,0.00166321,0.00769043,-1.00674438,0.305176,0.000000,-0.061035
2341402208,0.00166321,0.00769043,-1.00674438,0.366211,0.183105,-0.183105
2343942250,0.00195312,0.00700378,-1.00738525,0.366211,0.183105,-0.183105
2351565500,0.00195312,0.00700378,-1.00738525,0.244141,0.122070,-0.061035
2354118000,0.00151062,0.00767517,-1.00660706,0.244141,0.122070,-0.061035
2361735250,0.00151062,0.00767517,-1.00660706,0.488281,0.000000,-0.061035
2364281625,0.00117493,0.00889587,-1.00595093,0.488281,0.000000,-0.061035
2369359166,0.00117493,0.00889587,-1.00595093,0.366211,0.061035,-0.183105
2374443916,0.00131226,0.00799561,-1.00662231,0.366211,0.061035,-0.183105
2379503083,0.00131226,0.00799561,-1.00662231,0.305176,0.122070,-0.061035
2384556166,0.00158691,0.00898743,-1.00595093,0.305176,0.122070,-0.061035
2389606083,0.00158691,0.00898743,-1.00595093,0.610352,0.183105,-0.183105
2394667541,0.00195312,0.00933838,-1.00706482,0.610352,0.183105,-0.183105
2399747375,0.00195312,0.00933838,-1.00706482,0.366211,0.061035,-0.122070
2404814333,0.00123596,0.00904846,-1.00579834,0.366211,0.061035,-0.122070
2409891791,0.00123596,0.00904846,-1.00579834,0.366211,-0.061035,-0.061035
2414791583,0.00117493,0.00878906,-1.00755310,0.366211,-0.061035,-0.061035
2419875166,0.00117493,0.00878906,-1.00755310,0.305176,0.000000,-0.122070
2424950250,0.00190735,0.00910950,-1.00596619,0.305176,0.000000,-0.122070
2429570500,0.00190735,0.00910950,-1.00596619,0.305176,0.000000,-0.061035
2434539875,0.00135803,0.00909424,-1.00634766,0.305176,0.000000,-0.061035
2439623875,0.00135803,0.00909424,-1.00634766,0.427246,0.061035,-0.122070
2444703958,0.00030518,0.00953674,-1.00492859,0.427246,0.061035,-0.122070
2449789916,0.00030518,0.00953674,-1.00492859,0.671387,0.244141,0.061035
2454513583,0.00032043,0.00915527,-1.00685120,0.671387,0.244141,0.061035
2459584458,0.00032043,0.00915527,-1.00685120,0.488281,0.122070,-0.061035
2464667708,0.00140381,0.00843811,-1.00489807,0.488281,0.122070,-0.061035
2469768166,0.00140381,0.00843811,-1.00489807,0.244141,0.122070,-0.061035
2474896041,0.00245667,0.00846863,-1.00642395,0.244141,0.122070,-0.061035
2479973083,0.00245667,0.00846863,-1.00642395,0.549316,0.061035,-0.061035
2485075750,0.00259399,0.00801086,-1.00975037,0.549316,0.061035,-0.061035
2490154500,0.00259399,0.00801086,-1.00975037,0.366211,0.061035,-0.061035
2495151083,0.00233459,0.00779724,-1.00737000,0.366211,0.061035,-0.061035
2500289875,0.00233459,0.00779724,-1.00737000,0.427246,0.061035,-0.061035
2505378625,0.00209045,0.00683594,-1.00619507,0.427246,0.061035,-0.061035
2510458291,0.00209045,0.00683594,-1.00619507,0.305176,0.061035,-0.122070
2515143416,0.00267029,0.00607300,-1.00679016,0.305176,0.061035,-0.122070
2520231375,0.00267029,0.00607300,-1.00679016,0.427246,-0.061035,-0.183105
2525313166,0.00248718,0.00619507,-1.00726318,0.427246,-0.061035,-0.183105
2530387625,0.00248718,0.00619507,-1.00726318,0.488281,0.000000,-0.122070
2535466166,0.00186157,0.00727844,-1.00666809,0.488281,0.000000,-0.122070
2540532833,0.00186157,0.00727844,-1.00666809,0.610352,0.061035,-0.061035
2545601875,0.00233459,0.00634766,-1.00701904,0.610352,0.061035,-0.061035
2550667791,0.00233459,0.00634766,-1.00701904,0.427246,0.000000,0.000000
2553254500,0.00297546,0.00651550,-1.00706482,0.427246,0.000000,0.000000
2560876625,0.00297546,0.00651550,-1.00706482,0.549316,0.061035,-0.061035
2563415625,0.00328064,0.00798035,-1.00619507,0.549316,0.061035,-0.061035
2571014125,0.00328064,0.00798035,-1.00619507,0.610352,0.061035,-0.061035
2573560583,0.00216675,0.00796509,-1.00552368,0.610352,0.061035,-0.061035
2581180458,0.00216675,0.00796509,-1.00552368,0.488281,0.000000,-0.122070
2583349375,0.00219727,0.00868225,-1.00573730,0.488281,0.000000,-0.122070
2590935000,0.00219727,0.00868225,-1.00573730,0.427246,0.000000,-0.183105
2593479083,0.00157166,0.00921631,-1.00465393,0.427246,0.000000,-0.183105
2601060000,0.00157166,0.00921631,-1.00465393,0.549316,-0.122070,-0.122070
2603595083,0.00106812,0.00868225,-1.00714111,0.549316,-0.122070,-0.122070
2611203041,0.00106812,0.00868225,-1.00714111,0.488281,0.061035,-0.061035
2613605375,-0.00097656,0.00819397,-1.00726318,0.488281,0.061035,-0.061035
2621205125,-0.00097656,0.00819397,-1.00726318,0.549316,0.000000,-0.061035
2623747333,-0.00079346,0.00708008,-1.00479126,0.549316,0.000000,-0.061035
2631339833,-0.00079346,0.00708008,-1.00479126,0.488281,0.000000,-0.061035
2633532333,0.00053406,0.00801086,-1.00694275,0.488281,0.000000,-0.061035
2641130416,0.00053406,0.00801086,-1.00694275,0.244141,0.061035,-0.122070
2643690125,0.00108337,0.00816345,-1.00994873,0.244141,0.061035,-0.122070
2651303166,0.00108337,0.00816345,-1.00994873,0.427246,0.061035,-0.183105
2653860916,0.00195312,0.00848389,-1.00686646,0.427246,0.061035,-0.183105
2661426541,0.00195312,0.00848389,-1.00686646,0.427246,0.122070,-0.061035
2663982083,0.00097656,0.00743103,-1.00477600,0.427246,0.122070,-0.061035
2671558750,0.00097656,0.00743103,-1.00477600,0.549316,0.122070,-0.122070
2673973375,0.00120544,0.00694275,-1.00500488,0.549316,0.122070,-0.122070
2681592416,0.00120544,0.00694275,-1.00500488,0.488281,0.122070,0.000000
2684137166,0.00190735,0.00856018,-1.00779724,0.488281,0.122070,0.000000
2689207375,0.00190735,0.00856018,-1.00779724,0.488281,0.000000,-0.061035
2694281583,0.00291443,0.00773621,-1.00614929,0.488281,0.000000,-0.061035
2699354958,0.00291443,0.00773621,-1.00614929,0.488281,0.000000,-0.061035
2704434541,0.00325012,0.00579834,-1.00552368,0.488281,0.000000,-0.061035
2709292083,0.00325012,0.00579834,-1.00552368,0.427246,0.244141,-0.244141
2714367875,0.00329590,0.00622559,-1.00567627,0.427246,0.244141,-0.244141
2719450208,0.00329590,0.00622559,-1.00567627,0.427246,0.183105,0.061035
2724540250,0.00192261,0.00546265,-1.00688171,0.427246,0.183105,0.061035
2729619583,0.00192261,0.00546265,-1.00688171,0.366211,0.122070,-0.244141
2734696583,0.00192261,0.00531006,-1.00671387,0.366211,0.122070,-0.244141
2739619833,0.00192261,0.00531006,-1.00671387,0.244141,0.122070,-0.122070
2744730875,0.00187683,0.00569153,-1.00656128,0.244141,0.122070,-0.122070
2749818625,0.00187683,0.00569153,-1.00656128,0.366211,0.122070,-0.061035
2754900958,0.00173950,0.00726318,-1.00651550,0.366211,0.122070,-0.061035
2759982750,0.00173950,0.00726318,-1.00651550,0.366211,0.061035,-0.061035
2765073000,0.00013733,0.00845337,-1.00640869,0.366211,0.061035,-0.061035
2769876625,0.00013733,0.00845337,-1.00640869,0.305176,0.000000,-0.122070
2774949041,0.00039673,0.00897217,-1.00596619,0.305176,0.000000,-0.122070
2780025375,0.00039673,0.00897217,-1.00596619,0.549316,0.183105,0.000000
2785096791,0.00030518,0.00843811,-1.00622559,0.549316,0.183105,0.000000
2790166916,0.00030518,0.00843811,-1.00622559,0.427246,0.000000,-0.122070
2795232208,0.00044250,0.00788879,-1.00585938,0.427246,0.000000,-0.122070
2799909083,0.00044250,0.00788879,-1.00585938,0.427246,0.061035,-0.122070
2804997666,0.00146484,0.00752258,-1.00746155,0.427246,0.061035,-0.122070
2810076750,0.00146484,0.00752258,-1.00746155,0.427246,-0.061035,-0.122070
2815135666,0.00210571,0.00668335,-1.00650024,0.427246,-0.061035,-0.122070
2820179291,0.00210571,0.00668335,-1.00650024,0.366211,0.061035,-0.061035
2825254958,0.00299072,0.00590515,-1.00471497,0.366211,0.061035,-0.061035
2830332458,0.00299072,0.00590515,-1.00471497,0.366211,0.000000,-0.061035
2835409625,0.00378418,0.00476074,-1.00624084,0.366211,0.000000,-0.061035
2840414833,0.00378418,0.00476074,-1.00624084,0.244141,0.000000,0.000000
2845496083,0.00292969,0.00466919,-1.00695801,0.244141,0.000000,0.000000
2850564458,0.00292969,0.00466919,-1.00695801,0.366211,0.000000,-0.244141
2855629041,0.00328064,0.00521851,-1.00512695,0.366211,0.000000,-0.244141
2860735958,0.00328064,0.00521851,-1.00512695,0.427246,0.122070,-0.244141
2863290958,0.00292969,0.00610352,-1.00735474,0.427246,0.122070,-0.244141
2870895833,0.00292969,0.00610352,-1.00735474,0.427246,0.000000,-0.122070
2875957625,0.00350952,0.00741577,-1.00756836,0.427246,0.000000,-0.122070
2881043666,0.00350952,0.00741577,-1.00756836,0.427246,0.000000,-0.122070
2883285125,0.00068665,0.00830078,-1.00701904,0.427246,0.000000,-0.122070
2890888291,0.00068665,0.00830078,-1.00701904,0.366211,0.183105,-0.122070
2893455416,-0.00035095,0.00888062,-1.00601196,0.366211,0.183105,-0.122070
2901053916,-0.00035095,0.00888062,-1.00601196,0.427246,0.000000,-0.122070
2903289125,-0.00050354,0.00926208,-1.00674438,0.427246,0.000000,-0.122070
2910890333,-0.00050354,0.00926208,-1.00674438,0.244141,0.000000,-0.122070
2915649125,-0.00183105,0.00981140,-1.00648499,0.244141,0.000000,-0.122070
2920749458,-0.00183105,0.00981140,-1.00648499,0.305176,0.122070,-0.061035
2925491916,-0.00047302,0.00973511,-1.00665283,0.305176,0.122070,-0.061035
2930571583,-0.00047302,0.00973511,-1.00665283,0.427246,-0.061035,-0.061035
2933116750,-0.00056458,0.00869751,-1.00625610,0.427246,-0.061035,-0.061035
2940736541,-0.00056458,0.00869751,-1.00625610,0.122070,0.000000,0.122070
2945549833,0.00070190,0.00805664,-1.00605774,0.122070,0.000000,0.122070
2950619291,0.00070190,0.00805664,-1.00605774,0.305176,0.000000,-0.061035
2955685541,0.00250244,0.00781250,-1.00765991,0.305176,0.000000,-0.061035
2960761500,0.00250244,0.00781250,-1.00765991,0.305176,0.000000,-0.061035
2963314541,0.00355530,0.00628662,-1.00610352,0.305176,0.000000,-0.061035
2970945083,0.00355530,0.00628662,-1.00610352,0.305176,0.061035,0.061035
2976036541,0.00363159,0.00544739,-1.00541687,0.305176,0.061035,0.061035
2981114583,0.00363159,0.00544739,-1.00541687,0.305176,0.061035,-0.122070
2983661583,0.00363159,0.00440979,-1.00621033,0.305176,0.061035,-0.122070
2991258125,0.00363159,0.00440979,-1.00621033,0.366211,0.122070,-0.061035
2993795458,0.00337219,0.00434875,-1.00563049,0.366211,0.122070,-0.061035
3001027166,0.00337219,0.00434875,-1.00563049,0.244141,-0.061035,-0.183105
3003573666,0.00401306,0.00445557,-1.00645447,0.244141,-0.061035,-0.183105
3011175000,0.00401306,0.00445557,-1.00645447,0.305176,-0.183105,-0.122070
3013718041,0.00180054,0.00564575,-1.00756836,0.305176,-0.183105,-0.122070
3021019541,0.00180054,0.00564575,-1.00756836,0.305176,0.000000,-0.183105
3023571791,0.00106812,0.00646973,-1.00691223,0.305176,0.000000,-0.183105
3031167291,0.00106812,0.00646973,-1.00691223,0.244141,0.061035,-0.061035
3033706625,0.00086975,0.00640869,-1.00587463,0.244141,0.061035,-0.061035
3041290000,0.00086975,0.00640869,-1.00587463,0.305176,-0.061035,-0.061035
3043844208,0.00028992,0.00726318,-1.00622559,0.305176,-0.061035,-0.061035
3051437125,0.00028992,0.00726318,-1.00622559,0.305176,0.061035,-0.122070
3053979375,-0.00073242,0.00912476,-1.00588989,0.305176,0.061035,-0.122070
3061633583,-0.00073242,0.00912476,-1.00588989,0.366211,0.122070,-0.061035
3064202416,-0.00003052,0.00976562,-1.00584412,0.366211,0.122070,-0.061035
3069276666,-0.00003052,0.00976562,-1.00584412,0.305176,-0.061035,-0.061035
3074352375,0.00012207,0.00955200,-1.00601196,0.305176,-0.061035,-0.061035
3079423875,0.00012207,0.00955200,-1.00601196,0.244141,0.000000,0.000000
3084315250,0.00074768,0.00820923,-1.00682068,0.244141,0.000000,0.000000
3089393583,0.00074768,0.00820923,-1.00682068,0.305176,0.000000,-0.061035
3094464625,0.00202942,0.00776672,-1.00776672,0.305176,0.000000,-0.061035
3101610666,0.00202942,0.00776672,-1.00776672,0.244141,0.000000,0.000000
3104166000,0.00282288,0.00741577,-1.00633240,0.244141,0.000000,0.000000
3109317500,0.00282288,0.00741577,-1.00633240,0.427246,-0.122070,-0.183105
3114393875,0.00242615,0.00616455,-1.00569153,0.427246,-0.122070,-0.183105
3119462416,0.00242615,0.00616455,-1.00569153,0.366211,0.061035,0.000000
3124529708,0.00172424,0.00585938,-1.00682068,0.366211,0.061035,0.000000
3129593958,0.00172424,0.00585938,-1.00682068,0.305176,0.061035,-0.122070
3134655208,0.00242615,0.00517273,-1.00637817,0.305176,0.061035,-0.122070
3139718291,0.00242615,0.00517273,-1.00637817,0.244141,0.061035,-0.122070
3144787291,0.00193787,0.00531006,-1.00584412,0.244141,0.061035,-0.122070
3149862125,0.00193787,0.00531006,-1.00584412,0.366211,0.000000,-0.122070
3154953083,0.00262451,0.00625610,-1.00660706,0.366211,0.000000,-0.122070
3160020750,0.00262451,0.00625610,-1.00660706,0.427246,0.000000,-0.122070
3165177541,0.00131226,0.00645447,-1.00566101,0.427246,0.000000,-0.122070
3170364083,0.00131226,0.00645447,-1.00566101,0.244141,0.000000,-0.122070
3175512416,0.00112915,0.00663757,-1.00646973,0.244141,0.000000,-0.122070
3180619541,0.00112915,0.00663757,-1.00646973,0.244141,0.122070,-0.183105
3185756833,0.00262451,0.00753784,-1.00558472,0.244141,0.122070,-0.183105
3190579916,0.00262451,0.00753784,-1.00558472,0.244141,0.122070,0.000000
3195877333,0.00062561,0.00830078,-1.00616455,0.244141,0.122070,0.000000
3200968291,0.00062561,0.00830078,-1.00616455,0.366211,-0.122070,0.061035
3203586583,0.00057983,0.00816345,-1.00619507,0.366211,-0.122070,0.061035
3211365500,0.00057983,0.00816345,-1.00619507,0.305176,0.061035,-0.122070
3213954958,0.00068665,0.00807190,-1.00631714,0.305176,0.061035,-0.122070
3221674625,0.00068665,0.00807190,-1.00631714,0.488281,-0.061035,-0.061035
3224251416,0.00138855,0.00735474,-1.00616455,0.488281,-0.061035,-0.061035
3229379500,0.00138855,0.00735474,-1.00616455,0.122070,0.000000,-0.183105
3234485125,0.00163269,0.00709534,-1.00639343,0.122070,0.000000,-0.183105
3239577458,0.00163269,0.00709534,-1.00639343,0.244141,0.000000,-0.122070
3244666958,0.00155640,0.00691223,-1.00637817,0.244141,0.000000,-0.122070
3249771791,0.00155640,0.00691223,-1.00637817,0.305176,0.000000,0.000000
3254854416,0.00180054,0.00657654,-1.00668335,0.305176,0.000000,0.000000
3259962000,0.00180054,0.00657654,-1.00668335,0.244141,-0.061035,-0.122070
3265158958,0.00332642,0.00709534,-1.00617981,0.244141,-0.061035,-0.122070
3270232250,0.00332642,0.00709534,-1.00617981,0.244141,0.000000,0.000000
3275380500,0.00274658,0.00671387,-1.00697327,0.244141,0.000000,0.000000
3280568500,0.00274658,0.00671387,-1.00697327,0.366211,0.061035,0.061035
3285809625,0.00276184,0.00720215,-1.00611877,0.366211,0.061035,0.061035
3290923958,0.00276184,0.00720215,-1.00611877,0.305176,0.000000,-0.061035
3293509708,0.00244141,0.00692749,-1.00662231,0.305176,0.000000,-0.061035
3300796083,0.00244141,0.00692749,-1.00662231,0.305176,0.000000,-0.061035
3303351500,0.00086975,0.00686646,-1.00637817,0.305176,0.000000,-0.061035
3311053791,0.00086975,0.00686646,-1.00637817,0.244141,0.000000,-0.061035
3313639541,0.00074768,0.00730896,-1.00659180,0.244141,0.000000,-0.061035
3321294541,0.00074768,0.00730896,-1.00659180,0.183105,0.000000,-0.061035
3323874833,0.00123596,0.00674438,-1.00561523,0.183105,0.000000,-0.061035
3331459625,0.00123596,0.00674438,-1.00561523,0.427246,0.000000,-0.122070
3334003583,0.00140381,0.00654602,-1.00628662,0.427246,0.000000,-0.122070
3341629125,0.00140381,0.00654602,-1.00628662,0.427246,0.183105,0.061035
3344234958,0.00172424,0.00770569,-1.00665283,0.427246,0.183105,0.061035
3351525666,0.00172424,0.00770569,-1.00665283,0.366211,-0.061035,-0.061035
3354091458,0.00157166,0.00833130,-1.00718689,0.366211,-0.061035,-0.061035
3361768833,0.00157166,0.00833130,-1.00718689,0.244141,0.000000,0.000000
3364359708,0.00154114,0.00871277,-1.00617981,0.244141,0.000000,0.000000
3369511958,0.00154114,0.00871277,-1.00617981,0.366211,-0.061035,0.000000
3374653625,0.00140381,0.00827026,-1.00782776,0.366211,-0.061035,0.000000
3379535666,0.00140381,0.00827026,-1.00782776,0.244141,0.000000,0.000000
3384723625,0.00126648,0.00807190,-1.00677490,0.244141,0.000000,0.000000
3389623666,0.00126648,0.00807190,-1.00677490,0.244141,0.061035,-0.061035
3394752208,0.00135803,0.00694275,-1.00521851,0.244141,0.061035,-0.061035
3399968208,0.00135803,0.00694275,-1.00521851,0.488281,0.000000,-0.061035
3405087458,0.00193787,0.00611877,-1.00396729,0.488281,0.000000,-0.061035
3410203708,0.00193787,0.00611877,-1.00396729,0.305176,0.000000,-0.122070
3415170333,0.00215149,0.00573730,-1.00529480,0.305176,0.000000,-0.122070
3420263000,0.00215149,0.00573730,-1.00529480,0.488281,0.061035,-0.122070
3425359708,0.00209045,0.00567627,-1.00643921,0.488281,0.061035,-0.122070
3430465125,0.00209045,0.00567627,-1.00643921,0.244141,0.122070,-0.061035
3435528333,0.00134277,0.00572205,-1.00549316,0.244141,0.122070,-0.061035
3440614166,0.00134277,0.00572205,-1.00549316,0.244141,0.000000,-0.061035
3445720833,0.00251770,0.00677490,-1.00653076,0.244141,0.000000,-0.061035
3450924416,0.00251770,0.00677490,-1.00653076,0.366211,-0.061035,-0.061035
3453493333,0.00160217,0.00686646,-1.00769043,0.366211,-0.061035,-0.061035
3461134125,0.00160217,0.00686646,-1.00769043,0.305176,0.000000,-0.122070
3463700916,0.00057983,0.00791931,-1.00616455,0.305176,0.000000,-0.122070
3471334500,0.00057983,0.00791931,-1.00616455,0.366211,-0.061035,-0.122070
3473903083,0.00157166,0.00741577,-1.00561523,0.366211,-0.061035,-0.122070
3481262750,0.00157166,0.00741577,-1.00561523,0.305176,0.061035,0.000000
3483834833,0.00219727,0.00791931,-1.00698853,0.305176,0.061035,0.000000
3491467375,0.00219727,0.00791931,-1.00698853,0.244141,0.061035,-0.122070
3494046125,0.00177002,0.00851440,-1.00680542,0.244141,0.061035,-0.122070
3501711750,0.00177002,0.00851440,-1.00680542,0.305176,0.061035,0.061035
3504290500,0.00119019,0.00811768,-1.00596619,0.305176,0.061035,0.061035
3509408166,0.00119019,0.00811768,-1.00596619,0.488281,0.000000,-0.061035
3514101083,0.00096130,0.00695801,-1.00622559,0.488281,0.000000,-0.061035
3521693583,0.00096130,0.00695801,-1.00622559,0.305176,-0.061035,-0.122070
3524278375,0.00065613,0.00708008,-1.00569153,0.305176,-0.061035,-0.122070
3529368958,0.00065613,0.00708008,-1.00569153,0.427246,-0.061035,-0.122070
3534463583,0.00125122,0.00631714,-1.00607300,0.427246,-0.061035,-0.122070
3539535625,0.00125122,0.00631714,-1.00607300,0.366211,0.183105,-0.061035
3544628416,0.00155640,0.00651550,-1.00674438,0.366211,0.183105,-0.061035
3549707083,0.00155640,0.00651550,-1.00674438,0.305176,0.122070,-0.061035
3554780208,0.00332642,0.00689697,-1.00567627,0.305176,0.122070,-0.061035
3559501333,0.00332642,0.00689697,-1.00567627,0.305176,0.061035,-0.122070
3564065208,0.00274658,0.00701904,-1.00627136,0.305176,0.061035,-0.122070
3569247250,0.00274658,0.00701904,-1.00627136,0.366211,0.061035,-0.183105
3574361666,0.00210571,0.00630188,-1.00517273,0.366211,0.061035,-0.183105
3579483583,0.00210571,0.00630188,-1.00517273,0.244141,0.122070,-0.061035
3584608458,0.00143433,0.00607300,-1.00642395,0.244141,0.122070,-0.061035
3589716250,0.00143433,0.00607300,-1.00642395,0.427246,0.122070,-0.122070
3594828583,0.00128174,0.00723267,-1.00566101,0.427246,0.122070,-0.122070
3599930041,0.00128174,0.00723267,-1.00566101,0.244141,0.061035,-0.061035
3604999541,0.00024414,0.00688171,-1.00570679,0.244141,0.061035,-0.061035
3609904250,0.00024414,0.00688171,-1.00570679,0.366211,0.000000,-0.122070
3614993791,0.00062561,0.00650024,-1.00671387,0.366211,0.000000,-0.122070
3620076750,0.00062561,0.00650024,-1.00671387,0.427246,0.244141,0.000000
3625167750,0.00056458,0.00691223,-1.00619507,0.427246,0.244141,0.000000
3630269958,0.00056458,0.00691223,-1.00619507,0.244141,-0.061035,-0.122070
3635350416,0.00155640,0.00756836,-1.00552368,0.244141,-0.061035,-0.122070
3640463666,0.00155640,0.00756836,-1.00552368,0.183105,0.000000,-0.305176
3645587833,0.00215149,0.00790405,-1.00627136,0.183105,0.000000,-0.305176
3650711666,0.00215149,0.00790405,-1.00627136,0.305176,0.000000,0.000000
3655703208,0.00280762,0.00744629,-1.00579834,0.305176,0.000000,0.000000
3660787500,0.00280762,0.00744629,-1.00579834,0.366211,0.061035,0.000000
3663331625,0.00196838,0.00758362,-1.00576782,0.366211,0.061035,0.000000
3670630041,0.00196838,0.00758362,-1.00576782,0.305176,-0.061035,-0.061035
3675497500,0.00190735,0.00662231,-1.00666809,0.305176,-0.061035,-0.061035
3680610250,0.00190735,0.00662231,-1.00666809,0.305176,0.183105,-0.122070
3685692750,0.00207520,0.00662231,-1.00659180,0.305176,0.183105,-0.122070
3690871375,0.00207520,0.00662231,-1.00659180,0.244141,0.000000,-0.061035
3695677083,0.00108337,0.00595093,-1.00706482,0.244141,0.000000,-0.061035
3700388541,0.00108337,0.00595093,-1.00706482,0.305176,0.061035,0.000000
3705590541,0.00065613,0.00619507,-1.00801086,0.305176,0.061035,0.000000
3710300375,0.00065613,0.00619507,-1.00801086,0.244141,0.122070,-0.183105
3715525291,0.00106812,0.00694275,-1.00602722,0.244141,0.122070,-0.183105
3720667666,0.00106812,0.00694275,-1.00602722,0.305176,0.000000,-0.183105
3725573958,0.00138855,0.00735474,-1.00573730,0.305176,0.000000,-0.183105
3730712625,0.00138855,0.00735474,-1.00573730,0.366211,0.122070,-0.183105
3733297583,0.00071716,0.00764465,-1.00463867,0.366211,0.122070,-0.183105
3740596416,0.00071716,0.00764465,-1.00463867,0.427246,0.000000,-0.061035
3745748750,0.00231934,0.00735474,-1.00662231,0.427246,0.000000,-0.061035
3750951458,0.00231934,0.00735474,-1.00662231,0.366211,0.061035,-0.183105
3753544416,0.00262451,0.00740051,-1.00601196,0.366211,0.061035,-0.183105
3760953666,0.00262451,0.00740051,-1.00601196,0.305176,0.000000,0.000000
3763579250,0.00195312,0.00743103,-1.00588989,0.305176,0.000000,0.000000
3771295250,0.00195312,0.00743103,-1.00588989,0.244141,0.061035,-0.183105
3773870708,0.00149536,0.00735474,-1.00601196,0.244141,0.061035,-0.183105
3781542250,0.00149536,0.00735474,-1.00601196,0.305176,0.000000,-0.061035
3783797791,0.00053406,0.00817871,-1.00640869,0.305176,0.000000,-0.061035
3791449416,0.00053406,0.00817871,-1.00640869,0.366211,0.000000,-0.061035
3794045000,0.00155640,0.00801086,-1.00616455,0.366211,0.000000,-0.061035
3801535208,0.00155640,0.00801086,-1.00616455,0.305176,0.000000,-0.122070
3804141625,0.00102234,0.00677490,-1.00657654,0.305176,0.000000,-0.122070
3811874708,0.00102234,0.00677490,-1.00657654,0.305176,0.061035,0.061035
3814460875,0.00148010,0.00682068,-1.00598145,0.305176,0.061035,0.061035
3819617041,0.00148010,0.00682068,-1.00598145,0.244141,-0.061035,-0.183105
3824723708,0.00189209,0.00714111,-1.00621033,0.244141,-0.061035,-0.183105
3829837125,0.00189209,0.00714111,-1.00621033,0.366211,-0.061035,0.000000
3834945166,0.00276184,0.00668335,-1.00639343,0.366211,-0.061035,0.000000
3840034166,0.00276184,0.00668335,-1.00639343,0.305176,0.061035,-0.061035
3845134083,0.00323486,0.00671387,-1.00648499,0.305176,0.061035,-0.061035
3850225125,0.00323486,0.00671387,-1.00648499,0.366211,0.122070,-0.122070
3855185791,0.00148010,0.00758362,-1.00505066,0.366211,0.122070,-0.122070
3860346625,0.00148010,0.00758362,-1.00505066,0.244141,0.061035,-0.061035
3865473500,0.00204468,0.00804138,-1.00677490,0.244141,0.061035,-0.061035
3870601375,0.00204468,0.00804138,-1.00677490,0.183105,-0.122070,-0.183105
3875765250,0.00231934,0.00682068,-1.00785828,0.183105,-0.122070,-0.183105
3881003666,0.00231934,0.00682068,-1.00785828,0.366211,0.122070,-0.122070
3883607125,0.00196838,0.00619507,-1.00611877,0.366211,0.122070,-0.122070
3891234833,0.00196838,0.00619507,-1.00611877,0.305176,0.061035,-0.122070
3893811458,0.00108337,0.00750732,-1.00503540,0.305176,0.061035,-0.122070
3901605541,0.00108337,0.00750732,-1.00503540,0.427246,0.122070,0.061035
3904185958,0.00091553,0.00718689,-1.00708008,0.427246,0.122070,0.061035
3911435416,0.00091553,0.00718689,-1.00708008,0.305176,0.183105,-0.061035
3914013125,0.00148010,0.00794983,-1.00764465,0.305176,0.183105,-0.061035
3921281291,0.00148010,0.00794983,-1.00764465,0.122070,0.000000,-0.183105
3923854000,0.00192261,0.00822449,-1.00617981,0.122070,0.000000,-0.183105
3931019708,0.00192261,0.00822449,-1.00617981,0.244141,0.061035,-0.061035
3933581083,0.00163269,0.00881958,-1.00608826,0.244141,0.061035,-0.061035
3941188000,0.00163269,0.00881958,-1.00608826,0.305176,0.061035,-0.061035
3943732958,0.00186157,0.00765991,-1.00563049,0.305176,0.061035,-0.061035
3951023583,0.00186157,0.00765991,-1.00563049,0.305176,0.000000,-0.061035
3953586375,0.00169373,0.00791931,-1.00631714,0.305176,0.000000,-0.061035
3961250583,0.00169373,0.00791931,-1.00631714,0.183105,0.061035,-0.122070
3963855583,0.00248718,0.00682068,-1.00631714,0.183105,0.061035,-0.122070
3971493083,0.00248718,0.00682068,-1.00631714,0.305176,0.000000,0.000000
3974068000,0.00186157,0.00668335,-1.00527954,0.305176,0.000000,0.000000
3981710541,0.00186157,0.00668335,-1.00527954,0.305176,0.000000,-0.122070
3984260750,0.00169373,0.00720215,-1.00579834,0.305176,0.000000,-0.122070
3989384750,0.00169373,0.00720215,-1.00579834,0.244141,0.000000,-0.122070
3994481625,0.00224304,0.00628662,-1.00608826,0.244141,0.000000,-0.122070
3999582375,0.00224304,0.00628662,-1.00608826,0.488281,0.061035,-0.061035
4004660666,0.00328064,0.00572205,-1.00617981,0.488281,0.061035,-0.061035
4011853916,0.00328064,0.00572205,-1.00617981,0.122070,0.122070,-0.183105
4014421625,0.00250244,0.00524902,-1.00677490,0.122070,0.122070,-0.183105
4019506541,0.00250244,0.00524902,-1.00677490,0.305176,-0.061035,-0.122070
4024608708,0.00247192,0.00724792,-1.00738525,0.305176,-0.061035,-0.122070
4029726625,0.00247192,0.00724792,-1.00738525,0.366211,0.061035,-0.122070
4034247041,0.00109863,0.00723267,-1.00679016,0.366211,0.061035,-0.122070
4041874333,0.00109863,0.00723267,-1.00679016,0.305176,0.122070,-0.122070
4044425583,0.00161743,0.00633240,-1.00643921,0.305176,0.122070,-0.122070
4049491750,0.00161743,0.00633240,-1.00643921,0.488281,0.000000,0.061035
4054558833,0.00192261,0.00755310,-1.00614929,0.488281,0.000000,0.061035
4059654541,0.00192261,0.00755310,-1.00614929,0.305176,-0.061035,-0.122070
4064762375,0.00106812,0.00727844,-1.00546265,0.305176,-0.061035,-0.122070
4069866583,0.00106812,0.00727844,-1.00546265,0.427246,0.061035,-0.122070
4074948041,0.00180054,0.00726318,-1.00605774,0.427246,0.061035,-0.122070
4080034250,0.00180054,0.00726318,-1.00605774,0.366211,0.061035,-0.061035
4085107458,0.00137329,0.00765991,-1.00592041,0.366211,0.061035,-0.061035
4090211000,0.00137329,0.00765991,-1.00592041,0.244141,0.000000,-0.061035
4094825833,0.00086975,0.00683594,-1.00564575,0.244141,0.000000,-0.061035
4099909291,0.00086975,0.00683594,-1.00564575,0.305176,0.061035,-0.122070
4105017000,0.00099182,0.00714111,-1.00520325,0.305176,0.061035,-0.122070
4110075041,0.00099182,0.00714111,-1.00520325,0.305176,0.000000,-0.122070
4115155458,0.00096130,0.00717163,-1.00621033,0.305176,0.000000,-0.122070
4120248333,0.00096130,0.00717163,-1.00621033,0.305176,0.122070,-0.061035
4125326083,0.00096130,0.00679016,-1.00567627,0.305176,0.122070,-0.061035
4130454708,0.00096130,0.00679016,-1.00567627,0.305176,0.061035,-0.122070
4135443750,0.00105286,0.00682068,-1.00552368,0.305176,0.061035,-0.122070
4140055625,0.00105286,0.00682068,-1.00552368,0.305176,0.000000,-0.122070
4145134875,0.00241089,0.00682068,-1.00605774,0.305176,0.000000,-0.122070
4150207041,0.00241089,0.00682068,-1.00605774,0.305176,0.061035,-0.061035
4155293458,0.00224304,0.00688171,-1.00666809,0.305176,0.061035,-0.061035
4160379833,0.00224304,0.00688171,-1.00666809,0.366211,0.061035,-0.183105
4164974291,0.00183105,0.00712585,-1.00634766,0.366211,0.061035,-0.183105
4170055000,0.00183105,0.00712585,-1.00634766,0.305176,0.061035,-0.061035
4175134416,0.00128174,0.00650024,-1.00653076,0.305176,0.061035,-0.061035
4180234541,0.00128174,0.00650024,-1.00653076,0.427246,0.122070,0.061035
4185325583,0.00158691,0.00756836,-1.00659180,0.427246,0.122070,0.061035
4189996083,0.00158691,0.00756836,-1.00659180,0.305176,0.061035,-0.122070
4195075458,0.00137329,0.00854492,-1.00585938,0.305176,0.061035,-0.122070
4200164791,0.00137329,0.00854492,-1.00585938,0.366211,0.061035,-0.122070
4205261750,0.00111389,0.00801086,-1.00665283,0.366211,0.061035,-0.122070
4210014875,0.00111389,0.00801086,-1.00665283,0.244141,0.000000,-0.061035
4215121458,0.00077820,0.00813293,-1.00671387,0.244141,0.000000,-0.061035
4220083416,0.00077820,0.00813293,-1.00671387,0.366211,0.122070,-0.183105
4224871666,0.00123596,0.00863647,-1.00657654,0.366211,0.122070,-0.183105
4229979250,0.00123596,0.00863647,-1.00657654,0.366211,0.122070,-0.122070
4235068708,0.00177002,0.00717163,-1.00663757,0.366211,0.122070,-0.122070
4240137625,0.00177002,0.00717163,-1.00663757,0.427246,0.122070,0.000000
4245217875,0.00160217,0.00700378,-1.00592041,0.427246,0.122070,0.000000
4249939500,0.00160217,0.00700378,-1.00592041,0.183105,0.061035,-0.061035
4255009208,0.00219727,0.00737000,-1.00543213,0.183105,0.061035,-0.061035
4259953916,0.00219727,0.00737000,-1.00543213,0.549316,0.061035,0.000000
4265024625,0.00215149,0.00724792,-1.00550842,0.549316,0.061035,0.000000
4269604333,0.00215149,0.00724792,-1.00550842,0.244141,-0.061035,-0.061035
4274671708,0.00134277,0.00654602,-1.00550842,0.244141,-0.061035,-0.061035
4279767375,0.00134277,0.00654602,-1.00550842,0.366211,0.122070,-0.061035
4284861708,0.00250244,0.00703430,-1.00671387,0.366211,0.122070,-0.061035
4289949458,0.00250244,0.00703430,-1.00671387,0.427246,0.122070,-0.244141
4295024000,0.00234985,0.00712585,-1.00730896,0.427246,0.122070,-0.244141
4300089666,0.00234985,0.00712585,-1.00730896,0.427246,0.000000,0.000000
4305608250,0.00212097,0.00674438,-1.00680542,0.427246,0.000000,0.000000
4311014416,0.00212097,0.00674438,-1.00680542,0.305176,0.061035,-0.122070
4315654291,0.00157166,0.00669861,-1.00628662,0.305176,0.061035,-0.122070
4322798583,0.00157166,0.00669861,-1.00628662,0.488281,0.061035,-0.122070
4325065458,0.00111389,0.00730896,-1.00598145,0.488281,0.061035,-0.122070
4330144958,0.00111389,0.00730896,-1.00598145,0.305176,0.000000,-0.061035
4335124541,0.00169373,0.00732422,-1.00604248,0.305176,0.000000,-0.061035
4340369125,0.00169373,0.00732422,-1.00604248,0.427246,0.122070,-0.122070
4345511458,0.00138855,0.00700378,-1.00614929,0.427246,0.122070,-0.122070
4350635250,0.00138855,0.00700378,-1.00614929,0.366211,0.061035,-0.061035
4355286916,0.00163269,0.00721741,-1.00590515,0.366211,0.061035,-0.061035
4360412041,0.00163269,0.00721741,-1.00590515,0.366211,0.061035,-0.061035
4365275000,0.00094604,0.00729370,-1.00648499,0.366211,0.061035,-0.061035
4370442666,0.00094604,0.00729370,-1.00648499,0.183105,-0.061035,-0.183105
4375326583,0.00177002,0.00859070,-1.00677490,0.183105,-0.061035,-0.183105
4380552291,0.00177002,0.00859070,-1.00677490,0.244141,-0.061035,-0.061035
4385654208,0.00189209,0.00740051,-1.00549316,0.244141,-0.061035,-0.061035
4390807375,0.00189209,0.00740051,-1.00549316,0.305176,0.061035,-0.061035
4395763625,0.00202942,0.00656128,-1.00651550,0.305176,0.061035,-0.061035
4400843708,0.00202942,0.00656128,-1.00651550,0.305176,-0.061035,-0.061035
4403392458,0.00071716,0.00650024,-1.00648499,0.305176,-0.061035,-0.061035
4410994750,0.00071716,0.00650024,-1.00648499,0.366211,0.061035,-0.061035
4413556958,0.00143433,0.00602722,-1.00637817,0.366211,0.061035,-0.061035
4421142333,0.00143433,0.00602722,-1.00637817,0.305176,0.061035,0.000000
4423674958,0.00125122,0.00788879,-1.00569153,0.305176,0.061035,0.000000
4430721833,0.00125122,0.00788879,-1.00569153,0.305176,0.000000,-0.122070
4433276375,0.00102234,0.00660706,-1.00559998,0.305176,0.000000,-0.122070
4440862416,0.00102234,0.00660706,-1.00559998,0.244141,0.000000,-0.061035
4443410416,0.00218201,0.00680542,-1.00552368,0.244141,0.000000,-0.061035
4450986208,0.00218201,0.00680542,-1.00552368,0.122070,0.061035,-0.122070
4453533500,0.00193787,0.00787354,-1.00584412,0.122070,0.061035,-0.122070
4460828291,0.00193787,0.00787354,-1.00584412,0.244141,0.061035,-0.061035
4463370458,0.00079346,0.00747681,-1.00611877,0.244141,0.061035,-0.061035
4470975041,0.00079346,0.00747681,-1.00611877,0.488281,-0.061035,-0.122070
4473533875,0.00137329,0.00726318,-1.00614929,0.488281,-0.061035,-0.122070
4481155333,0.00137329,0.00726318,-1.00614929,0.122070,0.122070,0.000000
4483718500,0.00094604,0.00727844,-1.00588989,0.122070,0.122070,0.000000
4490937208,0.00094604,0.00727844,-1.00588989,0.183105,0.000000,-0.061035
4493497125,0.00149536,0.00820923,-1.00665283,0.183105,0.000000,-0.061035
4500992125,0.00149536,0.00820923,-1.00665283,0.244141,0.061035,-0.061035
4503547250,0.00180054,0.00701904,-1.00621033,0.244141,0.061035,-0.061035
4511163916,0.00180054,0.00701904,-1.00621033,0.183105,0.061035,-0.061035
4513723458,0.00099182,0.00791931,-1.00578308,0.183105,0.061035,-0.061035
4521338291,0.00099182,0.00791931,-1.00578308,0.305176,0.061035,0.061035
4523905000,0.00025940,0.00805664,-1.00576782,0.305176,0.061035,0.061035
4531525583,0.00025940,0.00805664,-1.00576782,0.305176,0.061035,-0.122070
4534077291,0.00064087,0.00706482,-1.00688171,0.305176,0.061035,-0.122070
4541684458,0.00064087,0.00706482,-1.00688171,0.183105,0.000000,0.061035
4544245833,0.00134277,0.00683594,-1.00642395,0.183105,0.000000,0.061035
4551880208,0.00134277,0.00683594,-1.00642395,0.427246,0.000000,-0.122070
4554441208,0.00172424,0.00729370,-1.00674438,0.427246,0.000000,-0.122070
4561805250,0.00172424,0.00729370,-1.00674438,0.305176,0.000000,-0.061035
4564356000,0.00160217,0.00657654,-1.00677490,0.305176,0.000000,-0.061035
4571964458,0.00160217,0.00657654,-1.00677490,0.366211,0.061035,-0.122070
4574512958,0.00279236,0.00740051,-1.00656128,0.366211,0.061035,-0.122070
4579593125,0.00279236,0.00740051,-1.00656128,0.366211,0.000000,-0.183105
4584323500,0.00378418,0.00772095,-1.00665283,0.366211,0.000000,-0.183105
4591941916,0.00378418,0.00772095,-1.00665283,0.244141,0.000000,0.000000
4594489125,0.00257874,0.00804138,-1.00584412,0.244141,0.000000,0.000000
4599561583,0.00257874,0.00804138,-1.00584412,0.366211,-0.061035,-0.122070
4604631250,0.00222778,0.00778198,-1.00592041,0.366211,-0.061035,-0.122070
4609712875,0.00222778,0.00778198,-1.00592041,0.366211,0.000000,-0.122070
4614270458,0.00244141,0.00761414,-1.00654602,0.366211,0.000000,-0.122070
4621894166,0.00244141,0.00761414,-1.00654602,0.305176,0.061035,0.000000
4624448541,0.00177002,0.00717163,-1.00651550,0.305176,0.061035,0.000000
4629525458,0.00177002,0.00717163,-1.00651550,0.366211,0.000000,-0.183105
4634528791,0.00207520,0.00738525,-1.00547791,0.366211,0.000000,-0.183105
4639618291,0.00207520,0.00738525,-1.00547791,0.366211,0.122070,-0.061035
4644708958,0.00119019,0.00643921,-1.00581360,0.366211,0.122070,-0.061035
4651950208,0.00119019,0.00643921,-1.00581360,0.366211,0.122070,-0.061035
4654488333,0.00184631,0.00688171,-1.00529480,0.366211,0.122070,-0.061035
4659551083,0.00184631,0.00688171,-1.00529480,0.366211,0.000000,-0.122070
4664622125,0.00170898,0.00639343,-1.00640869,0.366211,0.000000,-0.122070
4669683791,0.00170898,0.00639343,-1.00640869,0.305176,0.061035,-0.061035
4674789166,0.00135803,0.00636292,-1.00471497,0.305176,0.061035,-0.061035
4679869041,0.00135803,0.00636292,-1.00471497,0.244141,0.183105,-0.061035
4684944375,0.00114441,0.00738525,-1.00598145,0.244141,0.183105,-0.061035
4690041791,0.00114441,0.00738525,-1.00598145,0.366211,-0.061035,0.000000
4695123625,0.00177002,0.00677490,-1.00595093,0.366211,-0.061035,0.000000
4700214666,0.00177002,0.00677490,-1.00595093,0.305176,0.183105,-0.061035
4705288333,0.00119019,0.00715637,-1.00607300,0.305176,0.183105,-0.061035
4710379833,0.00119019,0.00715637,-1.00607300,0.244141,0.061035,-0.183105
4715120250,0.00161743,0.00697327,-1.00585938,0.244141,0.061035,-0.183105
4720191708,0.00161743,0.00697327,-1.00585938,0.366211,0.122070,0.000000
4725263250,0.00192261,0.00663757,-1.00621033,0.366211,0.122070,0.000000
4730330000,0.00192261,0.00663757,-1.00621033,0.427246,0.000000,0.000000
4735425500,0.00123596,0.00657654,-1.00634766,0.427246,0.000000,0.000000
4740492291,0.00123596,0.00657654,-1.00634766,0.305176,0.122070,0.000000
4745587791,0.00140381,0.00726318,-1.00610352,0.305176,0.122070,0.000000
4750707541,0.00140381,0.00726318,-1.00610352,0.183105,0.122070,-0.061035
4755792041,0.00071716,0.00759888,-1.00576782,0.183105,0.122070,-0.061035
4760892833,0.00071716,0.00759888,-1.00576782,0.244141,0.122070,0.061035
4763346500,0.00097656,0.00773621,-1.00752258,0.244141,0.122070,0.061035
4770985333,0.00097656,0.00773621,-1.00752258,0.305176,0.000000,-0.061035
4773552500,0.00199890,0.00740051,-1.00700378,0.305176,0.000000,-0.061035
4780921541,0.00199890,0.00740051,-1.00700378,0.244141,-0.061035,-0.061035
4783503333,0.00167847,0.00726318,-1.00651550,0.244141,-0.061035,-0.061035
4791249041,0.00167847,0.00726318,-1.00651550,0.366211,0.061035,-0.061035
4793872333,0.00166321,0.00750732,-1.00471497,0.366211,0.061035,-0.061035
4801523791,0.00166321,0.00750732,-1.00471497,0.305176,0.122070,-0.061035
4804079458,0.00190735,0.00659180,-1.00572205,0.305176,0.122070,-0.061035
4811753750,0.00190735,0.00659180,-1.00572205,0.366211,0.061035,0.000000
4814323041,0.00170898,0.00694275,-1.00630188,0.366211,0.061035,0.000000
4819580083,0.00170898,0.00694275,-1.00630188,0.427246,-0.061035,-0.061035
4824213583,0.00187683,0.00697327,-1.00576782,0.427246,-0.061035,-0.061035
4831532416,0.00187683,0.00697327,-1.00576782,0.244141,0.183105,0.061035
4834088333,0.00158691,0.00660706,-1.00749207,0.244141,0.183105,0.061035
4841703250,0.00158691,0.00660706,-1.00749207,0.305176,-0.061035,-0.122070
4844259041,0.00117493,0.00648499,-1.00834656,0.305176,-0.061035,-0.122070
4851571375,0.00117493,0.00648499,-1.00834656,0.244141,0.061035,0.061035
4854118541,0.00086975,0.00708008,-1.00579834,0.244141,0.061035,0.061035
4861356791,0.00086975,0.00708008,-1.00579834,0.427246,0.000000,-0.183105
4863909250,0.00096130,0.00642395,-1.00592041,0.427246,0.000000,-0.183105
4871497791,0.00096130,0.00642395,-1.00592041,0.427246,0.061035,0.000000
4874064958,0.00285339,0.00674438,-1.00640869,0.427246,0.061035,0.000000
4881730625,0.00285339,0.00674438,-1.00640869,0.427246,0.122070,-0.061035
4884276416,0.00317383,0.00717163,-1.00553894,0.427246,0.122070,-0.061035
4891890666,0.00317383,0.00717163,-1.00553894,0.244141,0.183105,0.000000
4894447041,0.00164795,0.00825500,-1.00613403,0.244141,0.183105,0.000000
4902037375,0.00164795,0.00825500,-1.00613403,0.366211,0.061035,-0.061035
4904601750,0.00144958,0.00764465,-1.00550842,0.366211,0.061035,-0.061035
4909665708,0.00144958,0.00764465,-1.00550842,0.305176,0.061035,-0.183105
4914746666,0.00212097,0.00718689,-1.00656128,0.305176,0.061035,-0.183105
4919656291,0.00212097,0.00718689,-1.00656128,0.244141,0.061035,-0.061035
4924742083,0.00117493,0.00662231,-1.00662231,0.244141,0.061035,-0.061035
4929823250,0.00117493,0.00662231,-1.00662231,0.244141,0.061035,0.061035
4934900625,0.00062561,0.00714111,-1.00523376,0.244141,0.061035,0.061035
4939604833,0.00062561,0.00714111,-1.00523376,0.305176,0.061035,0.061035
4944689791,0.00141907,0.00683594,-1.00585938,0.305176,0.061035,0.061035
4949590708,0.00141907,0.00683594,-1.00585938,0.305176,0.061035,0.061035
4954226375,0.00222778,0.00689697,-1.00576782,0.305176,0.061035,0.061035
4961817375,0.00222778,0.00689697,-1.00576782,0.305176,-0.061035,0.000000
4964359500,0.00173950,0.00706482,-1.00608826,0.305176,-0.061035,0.000000
4971969083,0.00173950,0.00706482,-1.00608826,0.305176,0.122070,-0.061035
4974518791,0.00202942,0.00646973,-1.00451660,0.305176,0.122070,-0.061035
4979577458,0.00202942,0.00646973,-1.00451660,0.366211,0.183105,-0.061035
4984311875,0.00221252,0.00720215,-1.00442505,0.366211,0.183105,-0.061035
4991899291,0.00221252,0.00720215,-1.00442505,0.122070,0.122070,-0.061035
4994437416,0.00225830,0.00785828,-1.00611877,0.122070,0.122070,-0.061035
5002043166,0.00225830,0.00785828,-1.00611877,0.366211,0.122070,-0.061035
5004604208,0.00219727,0.00718689,-1.00558472,0.366211,0.122070,-0.061035
5009823958,0.00219727,0.00718689,-1.00558472,0.305176,0.000000,-0.122070
5015025166,0.00178528,0.00608826,-1.00613403,0.305176,0.000000,-0.122070
5020169083,0.00178528,0.00608826,-1.00613403,0.305176,0.061035,0.000000
5025325416,0.00094604,0.00639343,-1.00527954,0.305176,0.061035,0.000000
5030437791,0.00094604,0.00639343,-1.00527954,0.427246,0.122070,0.000000
5035543333,0.00000000,0.00703430,-1.00553894,0.427246,0.122070,0.000000
5040625416,0.00000000,0.00703430,-1.00553894,0.244141,0.122070,-0.122070
5045708291,0.00154114,0.00750732,-1.00654602,0.244141,0.122070,-0.122070
5050815166,0.00154114,0.00750732,-1.00654602,0.305176,0.000000,-0.183105
5053369500,0.00164795,0.00675964,-1.00651550,0.305176,0.000000,-0.183105
5060923500,0.00164795,0.00675964,-1.00651550,0.305176,0.000000,-0.183105
5063496166,0.00239563,0.00704956,-1.00695801,0.305176,0.000000,-0.183105
5070866125,0.00239563,0.00704956,-1.00695801,0.366211,0.183105,-0.061035
5075518083,0.00152588,0.00729370,-1.00688171,0.366211,0.183105,-0.061035
5080651875,0.00152588,0.00729370,-1.00688171,0.366211,0.061035,-0.061035
5085914375,0.00144958,0.00708008,-1.00640869,0.366211,0.061035,-0.061035
5091092500,0.00144958,0.00708008,-1.00640869,0.183105,0.061035,-0.061035
5093656041,0.00173950,0.00761414,-1.00610352,0.183105,0.061035,-0.061035
5101260958,0.00173950,0.00761414,-1.00610352,0.305176,0.061035,-0.122070
5103805000,0.00225830,0.00711060,-1.00671387,0.305176,0.061035,-0.122070
5111381666,0.00225830,0.00711060,-1.00671387,0.427246,0.000000,0.000000
5113906791,0.00193787,0.00675964,-1.00666809,0.427246,0.000000,0.000000
5121454541,0.00193787,0.00675964,-1.00666809,0.366211,0.061035,0.000000
5123758833,0.00137329,0.00802612,-1.00515747,0.366211,0.061035,0.000000
5130767625,0.00137329,0.00802612,-1.00515747,0.305176,0.061035,-0.183105
5135705125,0.00132751,0.00776672,-1.00642395,0.305176,0.061035,-0.183105
5140721750,0.00132751,0.00776672,-1.00642395,0.244141,0.000000,-0.061035
5145765791,0.00166321,0.00840759,-1.00656128,0.244141,0.000000,-0.061035
5150819708,0.00166321,0.00840759,-1.00656128,0.305176,0.061035,-0.183105
5153370083,0.00125122,0.00695801,-1.00683594,0.305176,0.061035,-0.183105
5160925916,0.00125122,0.00695801,-1.00683594,0.366211,0.122070,0.000000
5163441083,0.00137329,0.00738525,-1.00656128,0.366211,0.122070,0.000000
5171001250,0.00137329,0.00738525,-1.00656128,0.366211,0.061035,-0.061035
5173519375,0.00183105,0.00730896,-1.00627136,0.366211,0.061035,-0.061035
5181062708,0.00183105,0.00730896,-1.00627136,0.244141,0.122070,-0.122070
5183578833,0.00173950,0.00656128,-1.00604248,0.244141,0.122070,-0.122070
5191120041,0.00173950,0.00656128,-1.00604248,0.122070,0.061035,-0.122070
5193633583,0.00115967,0.00671387,-1.00709534,0.122070,0.061035,-0.122070
5201201125,0.00115967,0.00671387,-1.00709534,0.244141,0.000000,-0.061035
5203730875,0.00216675,0.00712585,-1.00642395,0.244141,0.000000,-0.061035
5211291125,0.00216675,0.00712585,-1.00642395,0.366211,0.061035,-0.183105
5213806916,0.00170898,0.00666809,-1.00546265,0.366211,0.061035,-0.183105
5221343083,0.00170898,0.00666809,-1.00546265,0.427246,0.061035,-0.061035
5223873125,0.00221252,0.00704956,-1.00445557,0.427246,0.061035,-0.061035
5231417666,0.00221252,0.00704956,-1.00445557,0.305176,-0.061035,-0.061035
5233950291,0.00212097,0.00637817,-1.00540161,0.305176,-0.061035,-0.061035
5241518416,0.00212097,0.00637817,-1.00540161,0.244141,0.061035,-0.122070
5244040000,0.00202942,0.00753784,-1.00700378,0.244141,0.061035,-0.122070
5251584541,0.00202942,0.00753784,-1.00700378,0.366211,0.000000,-0.122070
5254097333,0.00201416,0.00721741,-1.00720215,0.366211,0.000000,-0.122070
5261628333,0.00201416,0.00721741,-1.00720215,0.427246,0.000000,-0.183105
5264142625,0.00126648,0.00756836,-1.00672913,0.427246,0.000000,-0.183105
5271701458,0.00126648,0.00756836,-1.00672913,0.305176,0.000000,-0.183105
5274216875,0.00154114,0.00798035,-1.00630188,0.305176,0.000000,-0.183105
5281749083,0.00154114,0.00798035,-1.00630188,0.305176,0.122070,0.000000
5284286541,0.00138855,0.00752258,-1.00511169,0.305176,0.122070,0.000000
5291836791,0.00138855,0.00752258,-1.00511169,0.305176,0.000000,0.000000
5294417291,0.00137329,0.00659180,-1.00588989,0.305176,0.000000,0.000000
5302141083,0.00137329,0.00659180,-1.00588989,0.427246,0.061035,-0.122070
5304725208,0.00109863,0.00642395,-1.00631714,0.427246,0.061035,-0.122070
5309804208,0.00109863,0.00642395,-1.00631714,0.366211,-0.122070,-0.122070
5314858333,0.00151062,0.00659180,-1.00590515,0.366211,-0.122070,-0.122070
5319927041,0.00151062,0.00659180,-1.00590515,0.244141,0.061035,-0.061035
5324981083,0.00151062,0.00656128,-1.00617981,0.244141,0.061035,-0.061035
5330020833,0.00151062,0.00656128,-1.00617981,0.366211,0.183105,0.000000
5335073708,0.00195312,0.00778198,-1.00714111,0.366211,0.183105,0.000000
5340136041,0.00195312,0.00778198,-1.00714111,0.244141,0.000000,-0.183105
5345200958,0.00128174,0.00802612,-1.00657654,0.244141,0.000000,-0.183105
5350274541,0.00128174,0.00802612,-1.00657654,0.244141,0.061035,-0.061035
5355354541,0.00175476,0.00708008,-1.00692749,0.244141,0.061035,-0.061035
5360434250,0.00175476,0.00708008,-1.00692749,0.244141,0.000000,-0.183105
5365501541,0.00225830,0.00775146,-1.00633240,0.244141,0.000000,-0.183105
5370570458,0.00225830,0.00775146,-1.00633240,0.427246,0.000000,0.000000
5375651250,0.00222778,0.00674438,-1.00607300,0.427246,0.000000,0.000000
5380750708,0.00222778,0.00674438,-1.00607300,0.366211,0.000000,-0.061035
5385433125,0.00207520,0.00701904,-1.00488281,0.366211,0.000000,-0.061035
5390522041,0.00207520,0.00701904,-1.00488281,0.244141,0.000000,-0.122070
5395137083,0.00105286,0.00755310,-1.00636292,0.244141,0.000000,-0.122070
5400229000,0.00105286,0.00755310,-1.00636292,0.366211,0.061035,0.000000
5405311083,0.00201416,0.00767517,-1.00614929,0.366211,0.061035,0.000000
5410388500,0.00201416,0.00767517,-1.00614929,0.244141,0.122070,-0.122070
5415123833,0.00149536,0.00738525,-1.00559998,0.244141,0.122070,-0.122070
5420225500,0.00149536,0.00738525,-1.00559998,0.366211,0.000000,0.000000
5425296916,0.00138855,0.00726318,-1.00582886,0.366211,0.000000,0.000000
5430139166,0.00138855,0.00726318,-1.00582886,0.305176,0.061035,-0.061035
5435204750,0.00219727,0.00726318,-1.00595093,0.305176,0.061035,-0.061035
5440248791,0.00219727,0.00726318,-1.00595093,0.244141,0.061035,0.000000
5445345291,0.00222778,0.00700378,-1.00628662,0.244141,0.061035,0.000000
5450579500,0.00222778,0.00700378,-1.00628662,0.427246,0.122070,0.000000
5455709291,0.00186157,0.00776672,-1.00569153,0.427246,0.122070,0.000000
5460819375,0.00186157,0.00776672,-1.00569153,0.305176,0.000000,-0.122070
5465936666,0.00109863,0.00759888,-1.00592041,0.305176,0.000000,-0.122070
5471025125,0.00109863,0.00759888,-1.00592041,0.366211,0.000000,-0.061035
5473581500,0.00120544,0.00614929,-1.00569153,0.366211,0.000000,-0.061035
5481239750,0.00120544,0.00614929,-1.00569153,0.244141,0.122070,-0.122070
5483831375,0.00096130,0.00610352,-1.00575256,0.244141,0.122070,-0.122070
5491469500,0.00096130,0.00610352,-1.00575256,0.183105,0.122070,0.000000
5493840000,0.00263977,0.00663757,-1.00679016,0.183105,0.122070,0.000000
5501083625,0.00263977,0.00663757,-1.00679016,0.305176,0.061035,-0.122070
5503651250,0.00163269,0.00621033,-1.00563049,0.305176,0.061035,-0.122070
5511271875,0.00163269,0.00621033,-1.00563049,0.305176,0.000000,-0.122070
5513878625,0.00166321,0.00723267,-1.00601196,0.305176,0.000000,-0.122070
5521458458,0.00166321,0.00723267,-1.00601196,0.244141,0.000000,-0.122070
5524030000,0.00286865,0.00735474,-1.00679016,0.244141,0.000000,-0.122070
5531641916,0.00286865,0.00735474,-1.00679016,0.427246,0.000000,-0.122070
5534032791,0.00236511,0.00715637,-1.00547791,0.427246,0.000000,-0.122070
5541633000,0.00236511,0.00715637,-1.00547791,0.305176,0.000000,-0.183105
5544181500,0.00158691,0.00741577,-1.00590515,0.305176,0.000000,-0.183105
5551690125,0.00158691,0.00741577,-1.00590515,0.305176,0.061035,0.000000
5554255541,0.00155640,0.00794983,-1.00477600,0.305176,0.061035,0.000000
5561871166,0.00155640,0.00794983,-1.00477600,0.305176,0.061035,0.000000
5564291833,0.00105286,0.00689697,-1.00474548,0.305176,0.061035,0.000000
5571923458,0.00105286,0.00689697,-1.00474548,0.305176,0.061035,-0.183105
5574480291,0.00169373,0.00733948,-1.00608826,0.305176,0.061035,-0.183105
5581961333,0.00169373,0.00733948,-1.00608826,0.366211,0.061035,-0.183105
5584141875,0.00166321,0.00752258,-1.00688171,0.366211,0.061035,-0.183105
5591757750,0.00166321,0.00752258,-1.00688171,0.183105,-0.061035,-0.061035
5594304291,0.00175476,0.00758362,-1.00544739,0.183105,-0.061035,-0.061035
5601902000,0.00175476,0.00758362,-1.00544739,0.366211,0.000000,0.000000
5604268583,0.00172424,0.00595093,-1.00518799,0.366211,0.000000,0.000000
5611886875,0.00172424,0.00595093,-1.00518799,0.366211,0.122070,-0.061035
5614462875,0.00239563,0.00679016,-1.00625610,0.366211,0.122070,-0.061035
5622071333,0.00239563,0.00679016,-1.00625610,0.244141,0.061035,-0.244141
5624639166,0.00210571,0.00653076,-1.00627136,0.244141,0.061035,-0.244141
5631970708,0.00210571,0.00653076,-1.00627136,0.366211,0.061035,-0.122070
5634514083,0.00141907,0.00660706,-1.00550842,0.366211,0.061035,-0.122070
5642130916,0.00141907,0.00660706,-1.00550842,0.305176,-0.122070,0.061035
5644701833,0.00152588,0.00691223,-1.00611877,0.305176,-0.122070,0.061035
5649720291,0.00152588,0.00691223,-1.00611877,0.305176,0.183105,-0.061035
5654540916,0.00117493,0.00692749,-1.00735474,0.305176,0.183105,-0.061035
5661870250,0.00117493,0.00692749,-1.00735474,0.427246,0.061035,-0.061035
5664413750,0.00119019,0.00674438,-1.00619507,0.427246,0.061035,-0.061035
5672009833,0.00119019,0.00674438,-1.00619507,0.366211,0.061035,-0.183105
5674562375,0.00248718,0.00691223,-1.00544739,0.366211,0.061035,-0.183105
5679723208,0.00248718,0.00691223,-1.00544739,0.366211,0.122070,-0.061035
5684823333,0.00148010,0.00682068,-1.00604248,0.366211,0.122070,-0.061035
5689906208,0.00148010,0.00682068,-1.00604248,0.305176,0.000000,0.000000
5694989541,0.00119019,0.00695801,-1.00587463,0.305176,0.000000,0.000000
5700058750,0.00119019,0.00695801,-1.00587463,0.488281,0.061035,-0.122070
5705144833,0.00241089,0.00735474,-1.00587463,0.488281,0.061035,-0.122070
5710229916,0.00241089,0.00735474,-1.00587463,0.244141,0.000000,-0.122070
5715138500,0.00230408,0.00804138,-1.00514221,0.244141,0.000000,-0.122070
5720237208,0.00230408,0.00804138,-1.00514221,0.427246,0.061035,-0.122070
5725311791,0.00201416,0.00683594,-1.00541687,0.427246,0.061035,-0.122070
5730405750,0.00201416,0.00683594,-1.00541687,0.427246,0.061035,0.000000
5735499375,0.00140381,0.00834656,-1.00604248,0.427246,0.061035,0.000000
5740570791,0.00140381,0.00834656,-1.00604248,0.244141,0.244141,-0.061035
5745650208,0.00096130,0.00857544,-1.00714111,0.244141,0.244141,-0.061035
5750745541,0.00096130,0.00857544,-1.00714111,0.427246,0.061035,0.061035
5755831291,0.00128174,0.00720215,-1.00636292,0.427246,0.061035,0.061035
5760925666,0.00128174,0.00720215,-1.00636292,0.244141,0.061035,-0.061035
5763479500,0.00080872,0.00692749,-1.00622559,0.244141,0.061035,-0.061035
5771069208,0.00080872,0.00692749,-1.00622559,0.244141,0.122070,0.061035
5773617041,0.00141907,0.00672913,-1.00646973,0.244141,0.122070,0.061035
5780845500,0.00141907,0.00672913,-1.00646973,0.610352,-0.061035,-0.122070
5785986958,0.00105286,0.00712585,-1.00593567,0.610352,-0.061035,-0.122070
5791100458,0.00105286,0.00712585,-1.00593567,0.305176,0.000000,-0.122070
5793648708,0.00126648,0.00640869,-1.00474548,0.305176,0.000000,-0.122070
5801286041,0.00126648,0.00640869,-1.00474548,0.427246,0.061035,0.000000
5803836583,0.00151062,0.00730896,-1.00830078,0.427246,0.061035,0.000000
5811124125,0.00151062,0.00730896,-1.00830078,0.244141,0.122070,-0.122070
5813753250,0.00144958,0.00695801,-1.00590515,0.244141,0.122070,-0.122070
5821472000,0.00144958,0.00695801,-1.00590515,0.427246,0.061035,0.000000
5824053000,0.00144958,0.00698853,-1.00611877,0.427246,0.061035,0.000000
5831660333,0.00144958,0.00698853,-1.00611877,0.305176,0.122070,-0.122070
5834230000,0.00114441,0.00770569,-1.00398254,0.305176,0.122070,-0.122070
5841832541,0.00114441,0.00770569,-1.00398254,0.244141,0.061035,-0.122070
5844385000,0.00155640,0.00672913,-1.00668335,0.244141,0.061035,-0.122070
5851909375,0.00155640,0.00672913,-1.00668335,0.305176,0.061035,-0.122070
5854466041,0.00137329,0.00802612,-1.00631714,0.305176,0.061035,-0.122070
5862086958,0.00137329,0.00802612,-1.00631714,0.427246,0.183105,-0.122070
5864674000,0.00155640,0.00816345,-1.00498962,0.427246,0.183105,-0.122070
5871809041,0.00155640,0.00816345,-1.00498962,0.305176,0.122070,-0.183105
5874387541,0.00152588,0.00708008,-1.00559998,0.305176,0.122070,-0.183105
5882025208,0.00152588,0.00708008,-1.00559998,0.244141,0.061035,-0.061035
5884594000,0.00143433,0.00714111,-1.00605774,0.244141,0.061035,-0.061035
5889668458,0.00143433,0.00714111,-1.00605774,0.305176,0.061035,-0.183105
5894747166,0.00175476,0.00750732,-1.00675964,0.305176,0.061035,-0.183105
5899857416,0.00175476,0.00750732,-1.00675964,0.244141,-0.061035,-0.061035
5904979583,0.00172424,0.00570679,-1.00550842,0.244141,-0.061035,-0.061035
5910071500,0.00172424,0.00570679,-1.00550842,0.305176,0.061035,-0.061035
5914803958,0.00219727,0.00663757,-1.00640869,0.305176,0.061035,-0.061035
5919897250,0.00219727,0.00663757,-1.00640869,0.244141,0.061035,0.000000
5924944208,0.00173950,0.00654602,-1.00582886,0.244141,0.061035,0.000000
5930023416,0.00173950,0.00654602,-1.00582886,0.366211,0.122070,-0.122070
5935100875,0.00155640,0.00703430,-1.00546265,0.366211,0.122070,-0.122070
5940178916,0.00155640,0.00703430,-1.00546265,0.305176,0.122070,-0.122070
5945260833,0.00076294,0.00700378,-1.00604248,0.305176,0.122070,-0.122070
5950356833,0.00076294,0.00700378,-1.00604248,0.488281,-0.122070,0.061035
5955435541,0.00122070,0.00697327,-1.00643921,0.488281,-0.122070,0.061035
5960516750,0.00122070,0.00697327,-1.00643921,0.305176,-0.061035,0.000000
5965598166,0.00138855,0.00744629,-1.00476074,0.305176,-0.061035,0.000000
5970675500,0.00138855,0.00744629,-1.00476074,0.488281,0.061035,-0.061035
5975746041,0.00094604,0.00753784,-1.00515747,0.488281,0.061035,-0.061035
5980828250,0.00094604,0.00753784,-1.00515747,0.366211,0.000000,0.000000
5985928625,0.00222778,0.00701904,-1.00727844,0.366211,0.000000,0.000000
5991012750,0.00222778,0.00701904,-1.00727844,0.366211,0.000000,-0.061035
5993598625,0.00233459,0.00726318,-1.00729370,0.366211,0.000000,-0.061035
6000999291,0.00233459,0.00726318,-1.00729370,0.183105,-0.061035,-0.061035
6003555666,0.00166321,0.00782776,-1.00547791,0.183105,-0.061035,-0.061035
6011136708,0.00166321,0.00782776,-1.00547791,0.366211,0.061035,0.000000
6013726291,0.00144958,0.00741577,-1.00553894,0.366211,0.061035,0.000000
6021370833,0.00144958,0.00741577,-1.00553894,0.244141,0.061035,0.000000
6023933958,0.00173950,0.00772095,-1.00656128,0.244141,0.061035,0.000000
6031550625,0.00173950,0.00772095,-1.00656128,0.488281,0.061035,0.061035
6034107333,0.00173950,0.00654602,-1.00727844,0.488281,0.061035,0.061035
6041705916,0.00173950,0.00654602,-1.00727844,0.183105,0.061035,-0.061035
6044028541,0.00134277,0.00672913,-1.00611877,0.183105,0.061035,-0.061035
6051632416,0.00134277,0.00672913,-1.00611877,0.427246,0.122070,-0.061035
6054203375,0.00180054,0.00717163,-1.00553894,0.427246,0.122070,-0.061035
6061373625,0.00180054,0.00717163,-1.00553894,0.366211,0.061035,-0.061035
6063974333,0.00180054,0.00788879,-1.00576782,0.366211,0.061035,-0.061035
6071624541,0.00180054,0.00788879,-1.00576782,0.366211,0.000000,-0.061035
6074196875,0.00199890,0.00776672,-1.00697327,0.366211,0.000000,-0.061035
6081781166,0.00199890,0.00776672,-1.00697327,0.427246,0.061035,-0.061035
6084335208,0.00160217,0.00671387,-1.00607300,0.427246,0.061035,-0.061035
6091947958,0.00160217,0.00671387,-1.00607300,0.244141,0.000000,0.000000
6094540000,0.00189209,0.00685120,-1.00695801,0.244141,0.000000,0.000000
6102201166,0.00189209,0.00685120,-1.00695801,0.488281,0.000000,0.061035
6104782083,0.00213623,0.00752258,-1.00582886,0.488281,0.000000,0.061035
6109872833,0.00213623,0.00752258,-1.00582886,0.305176,0.000000,-0.183105
6114999458,0.00146484,0.00717163,-1.00628662,0.305176,0.000000,-0.183105
6120133208,0.00146484,0.00717163,-1.00628662,0.427246,0.122070,-0.122070
6125222000,0.00154114,0.00733948,-1.00656128,0.427246,0.122070,-0.122070
6130309708,0.00154114,0.00733948,-1.00656128,0.366211,0.061035,-0.061035
6135396500,0.00260925,0.00643921,-1.00695801,0.366211,0.061035,-0.061035
6140469125,0.00260925,0.00643921,-1.00695801,0.427246,0.061035,0.061035
6145137791,0.00225830,0.00769043,-1.00604248,0.427246,0.061035,0.061035
6150211916,0.00225830,0.00769043,-1.00604248,0.366211,0.061035,0.000000
6155283166,0.00085449,0.00630188,-1.00538635,0.366211,0.061035,0.000000
6160382041,0.00085449,0.00630188,-1.00538635,0.244141,0.122070,-0.183105
6165468750,0.00213623,0.00764465,-1.00556946,0.244141,0.122070,-0.183105
6170536083,0.00213623,0.00764465,-1.00556946,0.366211,0.000000,-0.061035
6175604791,0.00117493,0.00770569,-1.00646973,0.366211,0.000000,-0.061035
6180485750,0.00117493,0.00770569,-1.00646973,0.305176,0.061035,-0.061035
6185352333,0.00123596,0.00709534,-1.00506592,0.305176,0.061035,-0.061035
6190435250,0.00123596,0.00709534,-1.00506592,0.427246,0.061035,-0.061035
6195347333,0.00105286,0.00765991,-1.00535583,0.427246,0.061035,-0.061035
6200467625,0.00105286,0.00765991,-1.00535583,0.244141,0.000000,0.000000
6205552083,0.00143433,0.00761414,-1.00535583,0.244141,0.000000,0.000000
6210622000,0.00143433,0.00761414,-1.00535583,0.244141,0.000000,-0.183105
6215704500,0.00199890,0.00784302,-1.00598145,0.244141,0.000000,-0.183105
6220793250,0.00199890,0.00784302,-1.00598145,0.366211,0.122070,-0.061035
6225880000,0.00177002,0.00765991,-1.00502014,0.366211,0.122070,-0.061035
6230961125,0.00177002,0.00765991,-1.00502014,0.244141,0.122070,-0.061035
6236041083,0.00091553,0.00721741,-1.00656128,0.244141,0.122070,-0.061035
6241109333,0.00091553,0.00721741,-1.00656128,0.366211,0.061035,-0.061035
6245896916,0.00091553,0.00817871,-1.00582886,0.366211,0.061035,-0.061035
6250979416,0.00091553,0.00817871,-1.00582886,0.366211,0.000000,0.000000
6253578166,0.00071716,0.00814819,-1.00642395,0.366211,0.000000,0.000000
6261211666,0.00071716,0.00814819,-1.00642395,0.244141,0.183105,0.061035
6263892916,0.00265503,0.00746155,-1.00631714,0.244141,0.183105,0.061035
6271587375,0.00265503,0.00746155,-1.00631714,0.427246,0.061035,-0.061035
6274148375,0.00196838,0.00653076,-1.00570679,0.427246,0.061035,-0.061035
6281449208,0.00196838,0.00653076,-1.00570679,0.366211,0.061035,-0.061035
6283990000,0.00123596,0.00747681,-1.00596619,0.366211,0.061035,-0.061035
6291582833,0.00123596,0.00747681,-1.00596619,0.366211,0.000000,-0.061035
6294127208,0.00077820,0.00747681,-1.00653076,0.366211,0.000000,-0.061035
6301744708,0.00077820,0.00747681,-1.00653076,0.305176,0.000000,-0.122070
6304299583,0.00090027,0.00697327,-1.00639343,0.305176,0.000000,-0.122070
6311728583,0.00090027,0.00697327,-1.00639343,0.366211,0.000000,0.000000
6314295208,0.00079346,0.00703430,-1.00668335,0.366211,0.000000,0.000000
6321950208,0.00079346,0.00703430,-1.00668335,0.366211,0.000000,-0.061035
6324518833,0.00196838,0.00701904,-1.00627136,0.366211,0.000000,-0.061035
6331778000,0.00196838,0.00701904,-1.00627136,0.305176,0.061035,-0.122070
6334321750,0.00125122,0.00654602,-1.00553894,0.305176,0.061035,-0.122070
6341941416,0.00125122,0.00654602,-1.00553894,0.183105,0.061035,-0.122070
6344493875,0.00028992,0.00675964,-1.00630188,0.183105,0.061035,-0.122070
6352164000,0.00028992,0.00675964,-1.00630188,0.183105,0.000000,-0.061035
6354745958,0.00146484,0.00740051,-1.00538635,0.183105,0.000000,-0.061035
6362192458,0.00146484,0.00740051,-1.00538635,0.305176,0.122070,-0.122070
6364754250,0.00303650,0.00724792,-1.00575256,0.305176,0.122070,-0.122070
6372364333,0.00303650,0.00724792,-1.00575256,0.244141,-0.061035,-0.244141
6374924333,0.00183105,0.00729370,-1.00605774,0.244141,-0.061035,-0.244141
6382593791,0.00183105,0.00729370,-1.00605774,0.183105,0.061035,-0.183105
6385188416,0.00189209,0.00711060,-1.00608826,0.183105,0.061035,-0.183105
6390295375,0.00189209,0.00711060,-1.00608826,0.305176,0.122070,-0.183105
6395451541,0.00178528,0.00807190,-1.00608826,0.305176,0.122070,-0.183105
6400568250,0.00178528,0.00807190,-1.00608826,0.305176,0.000000,-0.122070
6405536208,0.00207520,0.00796509,-1.00679016,0.305176,0.000000,-0.122070
6410646875,0.00207520,0.00796509,-1.00679016,0.244141,0.061035,-0.122070
6415386583,0.00143433,0.00727844,-1.00596619,0.244141,0.061035,-0.122070
6420466041,0.00143433,0.00727844,-1.00596619,0.244141,0.122070,0.000000
6425548041,0.00178528,0.00700378,-1.00588989,0.244141,0.122070,0.000000
6430638166,0.00178528,0.00700378,-1.00588989,0.366211,0.061035,-0.061035
6435730625,0.00163269,0.00642395,-1.00625610,0.366211,0.061035,-0.061035
6440802791,0.00163269,0.00642395,-1.00625610,0.305176,0.122070,-0.061035
6445909000,0.00125122,0.00718689,-1.00579834,0.305176,0.122070,-0.061035
6450932250,0.00125122,0.00718689,-1.00579834,0.183105,0.000000,-0.183105
6453493833,0.00123596,0.00720215,-1.00575256,0.183105,0.000000,-0.183105
6461112208,0.00123596,0.00720215,-1.00575256,0.427246,0.061035,-0.061035
6465882125,0.00177002,0.00712585,-1.00576782,0.427246,0.061035,-0.061035
6470783000,0.00177002,0.00712585,-1.00576782,0.244141,0.000000,-0.183105
6475872958,0.00274658,0.00723267,-1.00628662,0.244141,0.000000,-0.183105
6480852125,0.00274658,0.00723267,-1.00628662,0.488281,0.000000,-0.122070
6485976416,0.00331116,0.00718689,-1.00686646,0.488281,0.000000,-0.122070
6491044916,0.00331116,0.00718689,-1.00686646,0.366211,0.000000,-0.061035
6496132791,0.00155640,0.00762939,-1.00605774,0.366211,0.000000,-0.061035
6501206625,0.00155640,0.00762939,-1.00605774,0.366211,-0.061035,-0.122070
6503754208,0.00158691,0.00738525,-1.00717163,0.366211,-0.061035,-0.122070
6511361250,0.00158691,0.00738525,-1.00717163,0.244141,0.122070,-0.122070
6513916916,0.00143433,0.00704956,-1.00662231,0.244141,0.122070,-0.122070
6521102750,0.00143433,0.00704956,-1.00662231,0.366211,0.000000,-0.122070
6523641000,0.00141907,0.00663757,-1.00553894,0.366211,0.000000,-0.122070
6530904583,0.00141907,0.00663757,-1.00553894,0.244141,0.000000,-0.122070
6535987625,0.00172424,0.00711060,-1.00540161,0.244141,0.000000,-0.122070
6541061041,0.00172424,0.00711060,-1.00540161,0.305176,0.061035,-0.122070
6543621958,0.00138855,0.00697327,-1.00611877,0.305176,0.061035,-0.122070
6550968625,0.00138855,0.00697327,-1.00611877,0.244141,-0.061035,-0.061035
6556051541,0.00170898,0.00660706,-1.00595093,0.244141,-0.061035,-0.061035
6560822333,0.00170898,0.00660706,-1.00595093,0.366211,0.183105,0.000000
6565902000,0.00155640,0.00672913,-1.00590515,0.366211,0.183105,0.000000
6570891583,0.00155640,0.00672913,-1.00590515,0.427246,0.183105,-0.122070
6575954666,0.00143433,0.00833130,-1.00607300,0.427246,0.183105,-0.122070
6581082125,0.00143433,0.00833130,-1.00607300,0.305176,0.061035,0.000000
6585663125,0.00210571,0.00831604,-1.00592041,0.305176,0.061035,0.000000
6592641250,0.00210571,0.00831604,-1.00592041,0.244141,0.061035,-0.061035
6595182500,0.00202942,0.00759888,-1.00555420,0.244141,0.061035,-0.061035
6602789833,0.00202942,0.00759888,-1.00555420,0.305176,0.000000,-0.183105
6605339791,0.00172424,0.00628662,-1.00624084,0.305176,0.000000,-0.183105
6610414250,0.00172424,0.00628662,-1.00624084,0.366211,0.122070,-0.061035
6615094166,0.00163269,0.00732422,-1.00555420,0.366211,0.122070,-0.061035
6622291916,0.00163269,0.00732422,-1.00555420,0.305176,-0.061035,-0.061035
6624886333,0.00144958,0.00715637,-1.00604248,0.305176,-0.061035,-0.061035
6632165250,0.00144958,0.00715637,-1.00604248,0.244141,0.183105,-0.061035
6634731000,0.00207520,0.00653076,-1.00621033,0.244141,0.183105,-0.061035
6642226875,0.00207520,0.00653076,-1.00621033,0.244141,0.061035,-0.061035
6644794708,0.00148010,0.00679016,-1.00549316,0.244141,0.061035,-0.061035
6652403041,0.00148010,0.00679016,-1.00549316,0.427246,0.000000,-0.122070
6654545625,0.00267029,0.00825500,-1.00537109,0.427246,0.000000,-0.122070
6662125625,0.00267029,0.00825500,-1.00537109,0.366211,0.000000,0.000000
6664678708,0.00152588,0.00741577,-1.00724792,0.366211,0.000000,0.000000
6672334750,0.00152588,0.00741577,-1.00724792,0.305176,0.061035,-0.061035
6674893125,0.00167847,0.00721741,-1.00663757,0.305176,0.061035,-0.061035
6682568416,0.00167847,0.00721741,-1.00663757,0.305176,0.061035,0.000000
6685201541,0.00219727,0.00804138,-1.00735474,0.305176,0.061035,0.000000
6690295916,0.00219727,0.00804138,-1.00735474,0.366211,0.061035,-0.183105
6695393250,0.00205994,0.00753784,-1.00515747,0.366211,0.061035,-0.183105
6700594333,0.00205994,0.00753784,-1.00515747,0.244141,0.061035,0.000000
6705731208,0.00064087,0.00788879,-1.00584412,0.244141,0.061035,0.000000
6710834083,0.00064087,0.00788879,-1.00584412,0.244141,0.122070,-0.183105
6716048125,0.00082397,0.00781250,-1.00572205,0.244141,0.122070,-0.183105
6721175125,0.00082397,0.00781250,-1.00572205,0.427246,0.122070,-0.122070
6723731083,0.00151062,0.00689697,-1.00639343,0.427246,0.122070,-0.122070
6731335083,0.00151062,0.00689697,-1.00639343,0.366211,0.122070,0.000000
6733906625,0.00106812,0.00744629,-1.00546265,0.366211,0.122070,0.000000
6741533291,0.00106812,0.00744629,-1.00546265,0.244141,0.061035,0.000000
6743893541,0.00137329,0.00659180,-1.00564575,0.244141,0.061035,0.000000
6751515958,0.00137329,0.00659180,-1.00564575,0.488281,-0.061035,-0.061035
6754056125,0.00180054,0.00646973,-1.00604248,0.488281,-0.061035,-0.061035
6761332666,0.00180054,0.00646973,-1.00604248,0.366211,0.000000,-0.061035
6764164291,0.00181580,0.00709534,-1.00537109,0.366211,0.000000,-0.061035
6771736083,0.00181580,0.00709534,-1.00537109,0.305176,-0.122070,-0.122070
6774329166,0.00141907,0.00709534,-1.00621033,0.305176,-0.122070,-0.122070
6781947750,0.00141907,0.00709534,-1.00621033,0.427246,0.061035,-0.061035
6784539958,0.00164795,0.00596619,-1.00561523,0.427246,0.061035,-0.061035
6792172291,0.00164795,0.00596619,-1.00561523,0.244141,0.061035,0.000000
6794729833,0.00201416,0.00729370,-1.00650024,0.244141,0.061035,0.000000
6802363000,0.00201416,0.00729370,-1.00650024,0.305176,0.061035,-0.183105
6804930666,0.00244141,0.00805664,-1.00654602,0.305176,0.061035,-0.183105
6812233500,0.00244141,0.00805664,-1.00654602,0.305176,0.061035,-0.061035
6814795458,0.00143433,0.00706482,-1.00598145,0.305176,0.061035,-0.061035
6822457875,0.00143433,0.00706482,-1.00598145,0.427246,0.061035,0.061035
6825020833,0.00114441,0.00790405,-1.00656128,0.427246,0.061035,0.061035
6832614916,0.00114441,0.00790405,-1.00656128,0.244141,0.000000,-0.122070
6835164333,0.00151062,0.00831604,-1.00695801,0.244141,0.000000,-0.122070
6840249208,0.00151062,0.00831604,-1.00695801,0.366211,0.061035,0.000000
6845412333,0.00195312,0.00704956,-1.00588989,0.366211,0.061035,0.000000
6850708000,0.00195312,0.00704956,-1.00588989,0.366211,0.061035,-0.061035
6855813166,0.00169373,0.00793457,-1.00624084,0.366211,0.061035,-0.061035
6860905666,0.00169373,0.00793457,-1.00624084,0.427246,0.122070,0.000000
6865748250,0.00181580,0.00717163,-1.00642395,0.427246,0.122070,0.000000
6870815458,0.00181580,0.00717163,-1.00642395,0.305176,0.000000,-0.061035
6875906916,0.00160217,0.00672913,-1.00651550,0.305176,0.000000,-0.061035
6881019041,0.00160217,0.00672913,-1.00651550,0.427246,-0.061035,-0.122070
6886138625,0.00222778,0.00631714,-1.00503540,0.427246,-0.061035,-0.122070
6891235500,0.00222778,0.00631714,-1.00503540,0.183105,0.000000,-0.061035
6893782791,0.00221252,0.00608826,-1.00642395,0.183105,0.000000,-0.061035
6900965875,0.00221252,0.00608826,-1.00642395,0.366211,0.122070,-0.122070
6906045625,0.00245667,0.00656128,-1.00624084,0.366211,0.122070,-0.122070
6911137041,0.00245667,0.00656128,-1.00624084,0.305176,0.183105,-0.122070
6913716791,0.00244141,0.00747681,-1.00544739,0.305176,0.183105,-0.122070
6921376166,0.00244141,0.00747681,-1.00544739,0.305176,0.122070,-0.122070
6923934000,0.00138855,0.00674438,-1.00573730,0.305176,0.122070,-0.122070
6931534708,0.00138855,0.00674438,-1.00573730,0.488281,0.061035,-0.122070
6933844583,0.00141907,0.00675964,-1.00604248,0.488281,0.061035,-0.122070
6941460083,0.00141907,0.00675964,-1.00604248,0.244141,-0.061035,-0.122070
6944011833,0.00173950,0.00700378,-1.00680542,0.244141,-0.061035,-0.122070
6951651458,0.00173950,0.00700378,-1.00680542,0.244141,0.000000,-0.183105
6954199333,0.00100708,0.00650024,-1.00659180,0.244141,0.000000,-0.183105
6961798458,0.00100708,0.00650024,-1.00659180,0.183105,0.122070,-0.061035
6964355125,0.00183105,0.00767517,-1.00633240,0.183105,0.122070,-0.061035
6971957708,0.00183105,0.00767517,-1.00633240,0.366211,0.000000,-0.061035
6974506291,0.00141907,0.00765991,-1.00637817,0.366211,0.000000,-0.061035
6981777583,0.00141907,0.00765991,-1.00637817,0.244141,0.000000,0.000000
6984327250,0.00180054,0.00721741,-1.00570679,0.244141,0.000000,0.000000
6991943500,0.00180054,0.00721741,-1.00570679,0.305176,0.061035,-0.061035
6994484291,0.00263977,0.00764465,-1.00556946,0.305176,0.061035,-0.061035
7002128916,0.00263977,0.00764465,-1.00556946,0.305176,0.061035,-0.061035
7004687541,0.00216675,0.00708008,-1.00588989,0.305176,0.061035,-0.061035
7012297833,0.00216675,0.00708008,-1.00588989,0.366211,0.122070,0.000000
7014875250,0.00177002,0.00694275,-1.00569153,0.366211,0.122070,0.000000
7022478500,0.00177002,0.00694275,-1.00569153,0.366211,0.000000,0.122070
7025031083,0.00248718,0.00700378,-1.00503540,0.366211,0.000000,0.122070
7032630333,0.00248718,0.00700378,-1.00503540,0.305176,0.122070,-0.061035
7035192291,0.00146484,0.00662231,-1.00636292,0.305176,0.122070,-0.061035
7042476708,0.00146484,0.00662231,-1.00636292,0.305176,-0.122070,-0.183105
7045023500,0.00129700,0.00718689,-1.00588989,0.305176,-0.122070,-0.183105
7052615375,0.00129700,0.00718689,-1.00588989,0.427246,0.183105,-0.122070
7055177958,0.00196838,0.00721741,-1.00625610,0.427246,0.183105,-0.122070
7062788541,0.00196838,0.00721741,-1.00625610,0.366211,0.122070,0.061035
7064926958,0.00158691,0.00701904,-1.00550842,0.366211,0.122070,0.061035
7072536041,0.00158691,0.00701904,-1.00550842,0.244141,0.000000,-0.122070
7075099916,0.00244141,0.00694275,-1.00657654,0.244141,0.000000,-0.122070
7082447750,0.00244141,0.00694275,-1.00657654,0.244141,0.061035,-0.183105
7084989666,0.00253296,0.00712585,-1.00643921,0.244141,0.061035,-0.183105
7092609208,0.00253296,0.00712585,-1.00643921,0.305176,0.122070,-0.061035
7095167833,0.00189209,0.00654602,-1.00627136,0.305176,0.122070,-0.061035
7100256083,0.00189209,0.00654602,-1.00627136,0.427246,-0.061035,-0.183105
7105177958,0.00193787,0.00669861,-1.00648499,0.427246,-0.061035,-0.183105
7112536333,0.00193787,0.00669861,-1.00648499,0.183105,0.000000,0.061035
7115138458,0.00170898,0.00743103,-1.00573730,0.183105,0.000000,0.061035
7120250333,0.00170898,0.00743103,-1.00573730,0.305176,0.000000,-0.183105
7124991708,0.00210571,0.00662231,-1.00590515,0.305176,0.000000,-0.183105
7132653625,0.00210571,0.00662231,-1.00590515,0.427246,0.061035,-0.183105
7135251625,0.00132751,0.00737000,-1.00575256,0.427246,0.061035,-0.183105
7140343666,0.00132751,0.00737000,-1.00575256,0.122070,0.122070,-0.122070
7145438250,0.00045776,0.00639343,-1.00622559,0.122070,0.122070,-0.122070
7150533708,0.00045776,0.00639343,-1.00622559,0.366211,0.061035,0.061035
7155592708,0.00215149,0.00642395,-1.00659180,0.366211,0.061035,0.061035
7160675583,0.00215149,0.00642395,-1.00659180,0.366211,0.061035,0.061035
7165505666,0.00212097,0.00686646,-1.00599670,0.366211,0.061035,0.061035
7170572625,0.00212097,0.00686646,-1.00599670,0.427246,-0.061035,-0.061035
7175649458,0.00109863,0.00657654,-1.00532532,0.427246,-0.061035,-0.061035
7180747875,0.00109863,0.00657654,-1.00532532,0.427246,0.000000,0.000000
7185881125,0.00059509,0.00772095,-1.00613403,0.427246,0.000000,0.000000
7190986291,0.00059509,0.00772095,-1.00613403,0.305176,0.000000,0.000000
7196083833,0.00195312,0.00811768,-1.00573730,0.305176,0.000000,0.000000
7201205791,0.00195312,0.00811768,-1.00573730,0.366211,0.061035,-0.061035
7203777291,0.00164795,0.00677490,-1.00511169,0.366211,0.061035,-0.061035
7211407833,0.00164795,0.00677490,-1.00511169,0.427246,0.061035,-0.183105
7213983291,0.00267029,0.00685120,-1.00578308,0.427246,0.061035,-0.183105
7221592375,0.00267029,0.00685120,-1.00578308,0.305176,0.061035,-0.061035
7224124750,0.00296021,0.00781250,-1.00605774,0.305176,0.061035,-0.061035
7231386750,0.00296021,0.00781250,-1.00605774,0.305176,0.061035,-0.061035
7233945250,0.00210571,0.00720215,-1.00581360,0.305176,0.061035,-0.061035
7241551208,0.00210571,0.00720215,-1.00581360,0.305176,0.061035,0.000000
7243814833,0.00256348,0.00720215,-1.00639343,0.305176,0.061035,0.000000
7251450291,0.00256348,0.00720215,-1.00639343,0.366211,0.000000,0.000000
7254005750,0.00212097,0.00709534,-1.00611877,0.366211,0.000000,0.000000
7261331416,0.00212097,0.00709534,-1.00611877,0.244141,0.122070,-0.061035
7263879958,0.00096130,0.00714111,-1.00593567,0.244141,0.122070,-0.061035
7271134708,0.00096130,0.00714111,-1.00593567,0.305176,0.000000,-0.061035
7276279750,0.00117493,0.00703430,-1.00617981,0.305176,0.000000,-0.061035
7281374458,0.00117493,0.00703430,-1.00617981,0.244141,0.061035,-0.122070
7283986625,0.00117493,0.00775146,-1.00660706,0.244141,0.061035,-0.122070
7291596000,0.00117493,0.00775146,-1.00660706,0.305176,0.061035,-0.122070
7294157500,0.00132751,0.00767517,-1.00590515,0.305176,0.061035,-0.122070
7301763916,0.00132751,0.00767517,-1.00590515,0.305176,0.000000,0.000000
7304329208,0.00256348,0.00697327,-1.00622559,0.305176,0.000000,0.000000
7311794500,0.00256348,0.00697327,-1.00622559,0.183105,0.000000,-0.183105
7314335041,0.00253296,0.00749207,-1.00628662,0.183105,0.000000,-0.183105
7321937208,0.00253296,0.00749207,-1.00628662,0.305176,0.122070,0.000000
7324504958,0.00167847,0.00735474,-1.00613403,0.305176,0.122070,0.000000
7331780166,0.00167847,0.00735474,-1.00613403,0.366211,0.061035,-0.061035
7334331625,0.00202942,0.00743103,-1.00596619,0.366211,0.061035,-0.061035
7341542916,0.00202942,0.00743103,-1.00596619,0.427246,0.061035,-0.061035
7344098666,0.00189209,0.00672913,-1.00532532,0.427246,0.061035,-0.061035
7351709875,0.00189209,0.00672913,-1.00532532,0.427246,0.061035,0.000000
7354259208,0.00143433,0.00590515,-1.00631714,0.427246,0.061035,0.000000
7361800166,0.00143433,0.00590515,-1.00631714,0.305176,0.061035,-0.061035
7364370000,0.00134277,0.00672913,-1.00669861,0.305176,0.061035,-0.061035
7371984958,0.00134277,0.00672913,-1.00669861,0.305176,-0.061035,-0.122070
7374540375,0.00175476,0.00700378,-1.00601196,0.305176,-0.061035,-0.122070
7382166083,0.00175476,0.00700378,-1.00601196,0.427246,0.122070,-0.061035
7384732916,0.00155640,0.00750732,-1.00576782,0.427246,0.122070,-0.061035
7392326375,0.00155640,0.00750732,-1.00576782,0.305176,0.122070,-0.061035
7394868333,0.00250244,0.00735474,-1.00686646,0.305176,0.122070,-0.061035
7402543791,0.00250244,0.00735474,-1.00686646,0.183105,0.122070,-0.061035
7405104333,0.00186157,0.00706482,-1.00686646,0.183105,0.122070,-0.061035
7412719333,0.00186157,0.00706482,-1.00686646,0.305176,0.061035,0.000000
7415104583,0.00190735,0.00750732,-1.00573730,0.305176,0.061035,0.000000
7422727916,0.00190735,0.00750732,-1.00573730,0.305176,0.000000,-0.183105
7425279333,0.00247192,0.00814819,-1.00592041,0.305176,0.000000,-0.183105
7430377541,0.00247192,0.00814819,-1.00592041,0.305176,0.122070,0.000000
7435447416,0.00167847,0.00709534,-1.00643921,0.305176,0.122070,0.000000
7440515500,0.00167847,0.00709534,-1.00643921,0.244141,0.061035,0.000000
7445624166,0.00074768,0.00669861,-1.00631714,0.244141,0.061035,0.000000
7450723500,0.00074768,0.00669861,-1.00631714,0.366211,0.122070,-0.183105
7455810208,0.00222778,0.00720215,-1.00559998,0.366211,0.122070,-0.183105
7460888750,0.00222778,0.00720215,-1.00559998,0.427246,-0.061035,-0.061035
7465820500,0.00164795,0.00747681,-1.00619507,0.427246,-0.061035,-0.061035
7470924708,0.00164795,0.00747681,-1.00619507,0.366211,0.061035,-0.061035
7475530083,0.00141907,0.00613403,-1.00645447,0.366211,0.061035,-0.061035
7480604500,0.00141907,0.00613403,-1.00645447,0.366211,0.000000,0.000000
7485695083,0.00192261,0.00714111,-1.00686646,0.366211,0.000000,0.000000
7490762083,0.00192261,0.00714111,-1.00686646,0.244141,-0.061035,-0.061035
7495824625,0.00274658,0.00755310,-1.00634766,0.244141,-0.061035,-0.061035
7500937333,0.00274658,0.00755310,-1.00634766,0.305176,0.061035,-0.122070
7505826416,0.00192261,0.00677490,-1.00717163,0.305176,0.061035,-0.122070
7510600791,0.00192261,0.00677490,-1.00717163,0.305176,0.061035,-0.244141
7515683916,0.00257874,0.00680542,-1.00588989,0.305176,0.061035,-0.244141
7520770041,0.00257874,0.00680542,-1.00588989,0.305176,-0.061035,-0.183105
7526343083,0.00233459,0.00694275,-1.00590515,0.305176,-0.061035,-0.183105
7531530250,0.00233459,0.00694275,-1.00590515,0.244141,0.061035,-0.061035
7534164958,0.00132751,0.00598145,-1.00553894,0.244141,0.061035,-0.061035
7541531375,0.00132751,0.00598145,-1.00553894,0.366211,0.000000,-0.122070
7544216541,0.00106812,0.00634766,-1.00549316,0.366211,0.000000,-0.122070
7551882208,0.00106812,0.00634766,-1.00549316,0.244141,0.000000,-0.122070
7554463083,0.00096130,0.00679016,-1.00515747,0.244141,0.000000,-0.122070
7562090166,0.00096130,0.00679016,-1.00515747,0.183105,0.061035,-0.061035
7564683375,0.00155640,0.00695801,-1.00721741,0.183105,0.061035,-0.061035
7572462166,0.00155640,0.00695801,-1.00721741,0.305176,0.000000,0.061035
7575111708,0.00119019,0.00765991,-1.00616455,0.305176,0.000000,0.061035
7582455500,0.00119019,0.00765991,-1.00616455,0.244141,-0.061035,0.000000
7585083833,0.00227356,0.00698853,-1.00578308,0.244141,-0.061035,0.000000
7590435541,0.00227356,0.00698853,-1.00578308,0.122070,0.000000,-0.122070
7595658208,0.00204468,0.00746155,-1.00514221,0.122070,0.000000,-0.122070
7600873000,0.00204468,0.00746155,-1.00514221,0.427246,0.061035,0.061035
7606101916,0.00135803,0.00653076,-1.00561523,0.427246,0.061035,0.061035
7611250416,0.00135803,0.00653076,-1.00561523,0.183105,0.122070,-0.061035
7613844625,0.00204468,0.00656128,-1.00593567,0.183105,0.122070,-0.061035
7621075125,0.00204468,0.00656128,-1.00593567,0.366211,0.061035,-0.122070
7626234541,0.00143433,0.00645447,-1.00656128,0.366211,0.061035,-0.122070
7631398541,0.00143433,0.00645447,-1.00656128,0.366211,0.061035,0.000000
7633969000,0.00151062,0.00695801,-1.00604248,0.366211,0.061035,0.000000
7641606833,0.00151062,0.00695801,-1.00604248,0.366211,0.122070,-0.061035
7644174333,0.00170898,0.00715637,-1.00613403,0.366211,0.122070,-0.061035
7651611541,0.00170898,0.00715637,-1.00613403,0.305176,0.061035,-0.061035
7654157958,0.00225830,0.00662231,-1.00534058,0.305176,0.061035,-0.061035
7661766750,0.00225830,0.00662231,-1.00534058,0.122070,-0.061035,-0.183105
7664311458,0.00225830,0.00633240,-1.00653076,0.122070,-0.061035,-0.183105
7671918666,0.00225830,0.00633240,-1.00653076,0.305176,-0.061035,-0.061035
7674461958,0.00198364,0.00737000,-1.00570679,0.305176,-0.061035,-0.061035
7682084333,0.00198364,0.00737000,-1.00570679,0.305176,0.061035,-0.183105
7684632458,0.00231934,0.00718689,-1.00578308,0.305176,0.061035,-0.183105
7692251833,0.00231934,0.00718689,-1.00578308,0.366211,-0.061035,0.000000
7694805291,0.00184631,0.00668335,-1.00636292,0.366211,-0.061035,0.000000
7702419041,0.00184631,0.00668335,-1.00636292,0.305176,0.061035,-0.122070
7704978250,0.00117493,0.00737000,-1.00628662,0.305176,0.061035,-0.122070
7712614791,0.00117493,0.00737000,-1.00628662,0.366211,0.000000,-0.122070
7715104666,0.00202942,0.00747681,-1.00624084,0.366211,0.000000,-0.122070
7722345958,0.00202942,0.00747681,-1.00624084,0.427246,0.183105,-0.183105
7724894000,0.00245667,0.00683594,-1.00650024,0.427246,0.183105,-0.183105
7732496041,0.00245667,0.00683594,-1.00650024,0.366211,0.122070,-0.061035
7735054125,0.00138855,0.00709534,-1.00506592,0.366211,0.122070,-0.061035
7742663625,0.00138855,0.00709534,-1.00506592,0.366211,0.183105,-0.061035
7745232166,0.00241089,0.00633240,-1.00576782,0.366211,0.183105,-0.061035
7750312708,0.00241089,0.00633240,-1.00576782,0.244141,0.061035,-0.122070
7755406916,0.00201416,0.00665283,-1.00607300,0.244141,0.061035,-0.122070
7760474791,0.00201416,0.00665283,-1.00607300,0.366211,0.061035,0.000000
7765562875,0.00221252,0.00675964,-1.00584412,0.366211,0.061035,0.000000
7770651208,0.00221252,0.00675964,-1.00584412,0.427246,0.061035,-0.061035
7775451416,0.00082397,0.00625610,-1.00459290,0.427246,0.061035,-0.061035
7780543958,0.00082397,0.00625610,-1.00459290,0.244141,0.061035,-0.122070
7785616291,0.00125122,0.00660706,-1.00598145,0.244141,0.061035,-0.122070
7790696583,0.00125122,0.00660706,-1.00598145,0.305176,0.000000,-0.061035
7795761666,0.00181580,0.00735474,-1.00665283,0.305176,0.000000,-0.061035
7800858083,0.00181580,0.00735474,-1.00665283,0.305176,0.000000,0.000000
7805950291,0.00151062,0.00709534,-1.00550842,0.305176,0.000000,0.000000
7810610750,0.00151062,0.00709534,-1.00550842,0.366211,-0.061035,-0.061035
7815699250,0.00149536,0.00709534,-1.00556946,0.366211,-0.061035,-0.061035
7820776500,0.00149536,0.00709534,-1.00556946,0.366211,0.000000,-0.061035
7825865875,0.00167847,0.00723267,-1.00558472,0.366211,0.000000,-0.061035
7830961666,0.00167847,0.00723267,-1.00558472,0.366211,0.183105,-0.183105
7836048500,0.00181580,0.00730896,-1.00619507,0.366211,0.183105,-0.183105
7841154750,0.00181580,0.00730896,-1.00619507,0.183105,0.000000,-0.122070
7846243541,0.00184631,0.00692749,-1.00642395,0.183105,0.000000,-0.122070
7851337666,0.00184631,0.00692749,-1.00642395,0.305176,0.061035,0.000000
7856420250,0.00094604,0.00714111,-1.00588989,0.305176,0.061035,0.000000
7861529666,0.00094604,0.00714111,-1.00588989,0.366211,0.061035,-0.061035
7866302291,0.00141907,0.00776672,-1.00619507,0.366211,0.061035,-0.061035
7871411875,0.00141907,0.00776672,-1.00619507,0.427246,0.061035,0.000000
7876585000,0.00187683,0.00784302,-1.00572205,0.427246,0.061035,0.000000
7881723083,0.00187683,0.00784302,-1.00572205,0.305176,0.061035,-0.061035
7884319708,0.00283813,0.00694275,-1.00567627,0.305176,0.061035,-0.061035
7891843208,0.00283813,0.00694275,-1.00567627,0.183105,0.061035,-0.061035
7894434958,0.00192261,0.00706482,-1.00637817,0.183105,0.061035,-0.061035
7902118500,0.00192261,0.00706482,-1.00637817,0.427246,0.061035,-0.061035
7904748375,0.00222778,0.00718689,-1.00634766,0.427246,0.061035,-0.061035
7912462875,0.00222778,0.00718689,-1.00634766,0.366211,0.122070,-0.122070
7915093541,0.00186157,0.00598145,-1.00590515,0.366211,0.122070,-0.122070
7920325625,0.00186157,0.00598145,-1.00590515,0.244141,0.122070,-0.122070
7925449125,0.00187683,0.00624084,-1.00485229,0.244141,0.122070,-0.122070
7930549916,0.00187683,0.00624084,-1.00485229,0.427246,0.183105,-0.061035
7935643375,0.00183105,0.00698853,-1.00662231,0.427246,0.183105,-0.061035
7940757833,0.00183105,0.00698853,-1.00662231,0.305176,0.061035,0.061035
7945879541,0.00152588,0.00671387,-1.00613403,0.305176,0.061035,0.061035
7951020291,0.00152588,0.00671387,-1.00613403,0.305176,0.000000,-0.122070
7955870500,0.00279236,0.00729370,-1.00682068,0.305176,0.000000,-0.122070
7960996083,0.00279236,0.00729370,-1.00682068,0.427246,0.061035,0.000000
7966149208,0.00186157,0.00791931,-1.00555420,0.427246,0.061035,0.000000
7971299708,0.00186157,0.00791931,-1.00555420,0.305176,0.183105,-0.183105
7976454875,0.00166321,0.00730896,-1.00582886,0.305176,0.183105,-0.183105
7981572666,0.00166321,0.00730896,-1.00582886,0.244141,0.183105,-0.122070
7986728291,0.00143433,0.00737000,-1.00570679,0.244141,0.183105,-0.122070
7991851333,0.00143433,0.00737000,-1.00570679,0.244141,0.000000,0.000000
7994406333,0.00160217,0.00680542,-1.00677490,0.244141,0.000000,0.000000
8002041958,0.00160217,0.00680542,-1.00677490,0.183105,0.061035,-0.122070
8004629041,0.00109863,0.00776672,-1.00608826,0.183105,0.061035,-0.122070
8012282083,0.00109863,0.00776672,-1.00608826,0.305176,0.061035,0.000000
8014861250,0.00093079,0.00672913,-1.00610352,0.305176,0.061035,0.000000
8022532041,0.00093079,0.00672913,-1.00610352,0.366211,0.061035,0.000000
8025104208,0.00236511,0.00634766,-1.00579834,0.366211,0.061035,0.000000
8030212625,0.00236511,0.00634766,-1.00579834,0.305176,0.122070,-0.061035
8035290916,0.00115967,0.00631714,-1.00599670,0.305176,0.122070,-0.061035
8040380583,0.00115967,0.00631714,-1.00599670,0.305176,0.000000,-0.183105
8045490375,0.00114441,0.00692749,-1.00700378,0.305176,0.000000,-0.183105
8050567416,0.00114441,0.00692749,-1.00700378,0.305176,0.061035,0.000000
8055674458,0.00155640,0.00686646,-1.00639343,0.305176,0.061035,0.000000
8060765625,0.00155640,0.00686646,-1.00639343,0.549316,-0.061035,0.000000
8065928625,0.00230408,0.00682068,-1.00563049,0.549316,-0.061035,0.000000
8071050833,0.00230408,0.00682068,-1.00563049,0.427246,0.061035,0.000000
8075939625,0.00199890,0.00753784,-1.00587463,0.427246,0.061035,0.000000
8081084666,0.00199890,0.00753784,-1.00587463,0.305176,0.061035,-0.061035
8086180416,0.00096130,0.00732422,-1.00642395,0.305176,0.061035,-0.061035
8091306208,0.00096130,0.00732422,-1.00642395,0.305176,0.061035,-0.061035
8096427666,0.00141907,0.00659180,-1.00628662,0.305176,0.061035,-0.061035
8101547916,0.00141907,0.00659180,-1.00628662,0.244141,0.122070,-0.061035
8106655166,0.00103760,0.00743103,-1.00634766,0.244141,0.122070,-0.061035
8111808583,0.00103760,0.00743103,-1.00634766,0.305176,0.000000,0.000000
8114385625,0.00061035,0.00744629,-1.00682068,0.305176,0.000000,0.000000
8121962083,0.00061035,0.00744629,-1.00682068,0.244141,0.000000,-0.122070
8124531916,0.00048828,0.00680542,-1.00653076,0.244141,0.000000,-0.122070
8131787750,0.00048828,0.00680542,-1.00653076,0.244141,0.000000,-0.061035
8134380958,0.00083923,0.00686646,-1.00549316,0.244141,0.000000,-0.061035
8142063166,0.00083923,0.00686646,-1.00549316,0.305176,0.061035,-0.061035
8144652833,0.00169373,0.00767517,-1.00543213,0.305176,0.061035,-0.061035
8152392291,0.00169373,0.00767517,-1.00543213,0.122070,0.061035,-0.061035
8154969166,0.00117493,0.00753784,-1.00564575,0.122070,0.061035,-0.061035
8162669833,0.00117493,0.00753784,-1.00564575,0.488281,0.183105,-0.244141
8165160583,0.00115967,0.00767517,-1.00619507,0.488281,0.183105,-0.244141
8170392250,0.00115967,0.00767517,-1.00619507,0.244141,0.000000,-0.122070
8175511708,0.00196838,0.00659180,-1.00637817,0.244141,0.000000,-0.122070
8180672250,0.00196838,0.00659180,-1.00637817,0.305176,0.061035,-0.061035
8185843791,0.00192261,0.00653076,-1.00527954,0.305176,0.061035,-0.061035
8190955250,0.00192261,0.00653076,-1.00527954,0.366211,0.061035,0.000000
8196036750,0.00238037,0.00704956,-1.00523376,0.366211,0.061035,0.000000
8200990000,0.00238037,0.00704956,-1.00523376,0.366211,0.000000,0.000000
8206117791,0.00170898,0.00752258,-1.00630188,0.366211,0.000000,0.000000
8211303333,0.00170898,0.00752258,-1.00630188,0.244141,0.061035,-0.122070
